,Gyroscope X (deg/s),Gyroscope Y (deg/s),Gyroscope Z (deg/s),Accelerometer X (g),Accelerometer Y (g),Accelerometer Z (g),Magnetometer X (G),Magnetometer Y (G),Magnetometer Z (G)
0,0.0,-0.011,-0.019,0.129,-0.972,0.068,0.364,-0.183,-0.477
1,0.0,-0.011,-0.019,0.129,-0.972,0.068,0.364,-0.183,-0.477
2,0.0,-0.011,-0.019,0.129,-0.972,0.068,0.364,-0.183,-0.477
3,0.0,-0.011,-0.019,0.129,-0.972,0.068,0.364,-0.183,-0.477
4,0.0,-0.011,-0.019,0.129,-0.972,0.068,0.364,-0.183,-0.477
5,0.0,-0.011,-0.019,0.129,-0.972,0.068,0.364,-0.183,-0.477
6,0.0,-0.011,-0.019,0.129,-0.972,0.068,0.364,-0.183,-0.477
7,0.0,-0.011,-0.019,0.129,-0.972,0.068,0.364,-0.183,-0.477
8,0.0,-0.011,-0.019,0.129,-0.972,0.068,0.364,-0.183,-0.477
9,0.0,-0.011,-0.019,0.129,-0.972,0.068,0.364,-0.183,-0.477
10,0.0,-0.011,-0.019,0.129,-0.972,0.068,0.364,-0.183,-0.477
11,0.0,-0.011,-0.019,0.129,-0.972,0.068,0.364,-0.183,-0.477
12,0.0,-0.011,-0.019,0.129,-0.972,0.068,0.364,-0.183,-0.477
13,0.0,-0.011,-0.019,0.129,-0.972,0.068,0.364,-0.183,-0.477
14,0.0,-0.011,-0.019,0.129,-0.972,0.068,0.364,-0.183,-0.477
15,0.0,-0.011,-0.019,0.129,-0.972,0.068,0.364,-0.183,-0.477
16,0.0,-0.011,-0.019,0.129,-0.972,0.068,0.364,-0.183,-0.477
17,0.0,-0.011,-0.019,0.129,-0.972,0.068,0.364,-0.183,-0.477
18,0.0,-0.011,-0.019,0.129,-0.972,0.068,0.364,-0.183,-0.477
19,0.0,-0.011,-0.019,0.129,-0.972,0.068,0.364,-0.183,-0.477
20,0.0,-0.011,-0.019,0.129,-0.972,0.068,0.364,-0.183,-0.477
21,0.0,-0.011,-0.019,0.129,-0.972,0.068,0.364,-0.183,-0.477
22,0.0,-0.011,-0.019,0.129,-0.972,0.068,0.364,-0.183,-0.477
23,0.0,-0.011,-0.019,0.129,-0.972,0.068,0.364,-0.183,-0.477
24,0.0,-0.011,-0.019,0.129,-0.972,0.068,0.364,-0.183,-0.477
25,0.0,-0.011,-0.019,0.129,-0.972,0.068,0.364,-0.183,-0.477
26,0.0,-0.011,-0.019,0.129,-0.972,0.068,0.364,-0.183,-0.477
27,0.0,-0.011,-0.019,0.129,-0.972,0.068,0.364,-0.183,-0.477
28,0.0,-0.011,-0.019,0.129,-0.972,0.068,0.364,-0.183,-0.477
29,0.0,-0.011,-0.019,0.129,-0.972,0.068,0.364,-0.183,-0.477
30,0.0,-0.011,-0.019,0.129,-0.972,0.068,0.364,-0.183,-0.477
31,0.0,-0.011,-0.019,0.129,-0.972,0.068,0.364,-0.183,-0.477
32,0.0,-0.011,-0.019,0.129,-0.972,0.068,0.364,-0.183,-0.477
33,0.0,-0.011,-0.019,0.129,-0.972,0.068,0.364,-0.183,-0.477
34,0.0,-0.011,-0.019,0.129,-0.972,0.068,0.364,-0.183,-0.477
35,0.0,-0.011,-0.019,0.129,-0.972,0.068,0.364,-0.183,-0.477
36,0.0,-0.011,-0.019,0.129,-0.972,0.068,0.364,-0.183,-0.477
37,0.0,-0.011,-0.019,0.129,-0.972,0.068,0.364,-0.183,-0.477
38,0.0,-0.011,-0.019,0.129,-0.972,0.068,0.364,-0.183,-0.477
39,0.0,-0.011,-0.019,0.129,-0.972,0.068,0.364,-0.183,-0.477
40,0.0,-0.011,-0.019,0.129,-0.972,0.068,0.364,-0.183,-0.477
41,0.0,-0.011,-0.019,0.129,-0.972,0.068,0.364,-0.183,-0.477
42,0.0,-0.011,-0.019,0.129,-0.972,0.068,0.364,-0.183,-0.477
43,0.0,-0.011,-0.019,0.129,-0.972,0.068,0.364,-0.183,-0.477
44,0.0,-0.011,-0.019,0.129,-0.972,0.068,0.364,-0.183,-0.477
45,0.0,-0.011,-0.019,0.129,-0.972,0.068,0.364,-0.183,-0.477
46,0.0,-0.011,-0.019,0.129,-0.972,0.068,0.364,-0.183,-0.477
47,0.0,-0.011,-0.019,0.129,-0.972,0.068,0.364,-0.183,-0.477
48,0.0,-0.011,-0.019,0.129,-0.972,0.068,0.364,-0.183,-0.477
49,0.0,-0.011,-0.019,0.129,-0.972,0.068,0.364,-0.183,-0.477
50,0.0,-0.011,-0.019,0.129,-0.972,0.068,0.364,-0.183,-0.477
51,0.0,-0.011,-0.019,0.129,-0.972,0.068,0.364,-0.183,-0.477
52,0.0,-0.011,-0.019,0.129,-0.972,0.068,0.364,-0.183,-0.477
53,0.0,-0.011,-0.017,0.126,-0.974,0.073,0.364,-0.183,-0.477
54,0.001,-0.016,-0.016,0.126,-0.974,0.073,0.369,-0.202,-0.475
55,0.001,-0.014,-0.016,0.125,-0.972,0.075,0.375,-0.198,-0.46
56,0.003,-0.016,-0.017,0.131,-0.971,0.07,0.37,-0.201,-0.486
57,0.004,-0.019,-0.014,0.131,-0.971,0.073,0.351,-0.213,-0.474
58,0.005,-0.028,-0.012,0.134,-0.975,0.074,0.381,-0.198,-0.477
59,0.005,-0.02,-0.013,0.133,-0.977,0.069,0.381,-0.198,-0.477
60,0.0,-0.019,-0.015,0.129,-0.975,0.067,0.369,-0.214,-0.474
61,0.0,-0.021,-0.016,0.13,-0.971,0.068,0.351,-0.192,-0.472
62,0.0,-0.02,-0.014,0.133,-0.972,0.068,0.351,-0.192,-0.472
63,-0.003,-0.025,-0.013,0.13,-0.972,0.07,0.372,-0.199,-0.487
64,-0.002,-0.028,-0.01,0.131,-0.972,0.07,0.372,-0.202,-0.487
65,-0.001,-0.02,-0.012,0.133,-0.974,0.068,0.373,-0.196,-0.466
66,-0.002,-0.018,-0.015,0.135,-0.976,0.068,0.378,-0.195,-0.498
67,0.0,-0.015,-0.016,0.136,-0.973,0.07,0.351,-0.202,-0.486
68,0.0,-0.014,-0.013,0.131,-0.971,0.067,0.355,-0.213,-0.472
69,0.002,-0.021,-0.011,0.131,-0.969,0.066,0.381,-0.198,-0.472
70,0.003,-0.018,-0.014,0.131,-0.972,0.067,0.378,-0.211,-0.472
71,-0.001,-0.016,-0.014,0.132,-0.975,0.069,0.36,-0.205,-0.48
72,-0.002,-0.018,-0.011,0.136,-0.975,0.071,0.363,-0.199,-0.48
73,-0.004,-0.015,-0.011,0.133,-0.974,0.069,0.364,-0.189,-0.478
74,-0.004,-0.011,-0.014,0.133,-0.974,0.069,0.355,-0.216,-0.48
75,-0.004,-0.014,-0.015,0.133,-0.976,0.069,0.364,-0.193,-0.45
76,0.0,-0.014,-0.014,0.131,-0.977,0.068,0.373,-0.202,-0.475
77,0.004,-0.016,-0.013,0.127,-0.973,0.066,0.373,-0.202,-0.475
78,0.007,-0.022,-0.009,0.128,-0.972,0.068,0.375,-0.184,-0.475
79,0.007,-0.023,-0.009,0.134,-0.974,0.07,0.36,-0.195,-0.478
80,0.002,-0.016,-0.012,0.134,-0.971,0.064,0.381,-0.21,-0.481
81,0.0,-0.015,-0.011,0.134,-0.972,0.063,0.364,-0.189,-0.489
82,0.0,-0.009,-0.01,0.134,-0.973,0.068,0.361,-0.205,-0.459
83,0.002,-0.007,-0.011,0.133,-0.972,0.07,0.372,-0.195,-0.484
84,0.003,-0.007,-0.011,0.137,-0.972,0.071,0.37,-0.214,-0.481
85,0.004,-0.003,-0.011,0.138,-0.972,0.067,0.349,-0.184,-0.478
86,0.004,0.007,-0.011,0.136,-0.969,0.063,0.36,-0.192,-0.459
87,0.005,0.009,-0.011,0.135,-0.969,0.063,0.357,-0.204,-0.478
88,0.004,0.004,-0.01,0.132,-0.973,0.067,0.36,-0.177,-0.463
89,0.003,0.001,-0.01,0.128,-0.975,0.071,0.346,-0.198,-0.477
90,0.002,0.004,-0.009,0.128,-0.97,0.063,0.367,-0.199,-0.481
91,0.001,0.009,-0.009,0.128,-0.97,0.063,0.366,-0.204,-0.49
92,0.002,0.004,-0.009,0.129,-0.97,0.065,0.366,-0.204,-0.49
93,0.002,0.002,-0.01,0.128,-0.97,0.065,0.369,-0.211,-0.471
94,0.002,0.008,-0.012,0.129,-0.973,0.063,0.367,-0.202,-0.486
95,0.002,0.007,-0.013,0.128,-0.973,0.063,0.364,-0.208,-0.48
96,0.002,0.002,-0.012,0.13,-0.972,0.068,0.361,-0.189,-0.477
97,0.002,0.004,-0.011,0.128,-0.973,0.064,0.366,-0.21,-0.468
98,0.002,0.007,-0.011,0.127,-0.974,0.063,0.361,-0.19,-0.462
99,0.0,0.006,-0.012,0.131,-0.972,0.068,0.366,-0.196,-0.477
100,0.0,0.011,-0.014,0.133,-0.97,0.064,0.378,-0.201,-0.483
101,0.001,0.009,-0.014,0.132,-0.972,0.062,0.366,-0.19,-0.471
102,0.001,0.007,-0.014,0.13,-0.973,0.067,0.364,-0.208,-0.472
103,0.001,0.004,-0.011,0.132,-0.973,0.07,0.373,-0.205,-0.483
104,0.001,0.002,-0.011,0.135,-0.974,0.071,0.391,-0.205,-0.475
105,0.0,0.002,-0.011,0.134,-0.976,0.068,0.376,-0.199,-0.454
106,-0.002,0.007,-0.012,0.133,-0.974,0.066,0.367,-0.189,-0.481
107,-0.006,0.007,-0.013,0.134,-0.968,0.069,0.36,-0.196,-0.478
108,-0.004,0.003,-0.014,0.134,-0.975,0.074,0.363,-0.204,-0.474
109,-0.002,-0.002,-0.013,0.134,-0.975,0.074,0.361,-0.196,-0.475
110,-0.002,-0.004,-0.011,0.132,-0.973,0.076,0.361,-0.196,-0.475
111,-0.002,-0.007,-0.01,0.136,-0.968,0.079,0.363,-0.216,-0.486
112,0.0,-0.005,-0.009,0.138,-0.968,0.082,0.376,-0.217,-0.465
113,0.002,-0.007,-0.008,0.138,-0.971,0.082,0.373,-0.181,-0.453
114,0.001,-0.006,-0.008,0.139,-0.972,0.077,0.361,-0.202,-0.489
115,-0.002,-0.002,-0.008,0.139,-0.971,0.074,0.354,-0.198,-0.504
116,-0.001,0.002,-0.01,0.137,-0.967,0.076,0.376,-0.211,-0.477
117,0.0,0.004,-0.01,0.135,-0.97,0.075,0.384,-0.216,-0.492
118,0.0,-0.005,-0.009,0.136,-0.973,0.074,0.382,-0.195,-0.466
119,-0.001,-0.01,-0.009,0.136,-0.973,0.076,0.366,-0.213,-0.501
120,-0.002,-0.014,-0.007,0.131,-0.974,0.073,0.382,-0.207,-0.493
121,-0.004,-0.018,-0.007,0.126,-0.973,0.076,0.375,-0.199,-0.475
122,-0.011,-0.059,-0.009,0.13,-0.971,0.086,0.361,-0.208,-0.484
123,-0.004,-0.006,-0.009,0.137,-0.97,0.092,0.36,-0.201,-0.484
124,0.0,-0.001,-0.009,0.14,-0.966,0.084,0.355,-0.204,-0.469
125,-0.001,0.002,-0.01,0.147,-0.968,0.071,0.355,-0.204,-0.469
126,0.0,0.005,-0.009,0.144,-0.971,0.076,0.361,-0.198,-0.475
127,0.003,0.004,-0.009,0.144,-0.971,0.076,0.375,-0.208,-0.478
128,0.0,-0.01,-0.014,0.14,-0.973,0.077,0.372,-0.195,-0.478
129,-0.008,-0.045,-0.019,0.138,-0.968,0.073,0.367,-0.204,-0.477
130,-0.006,-0.038,-0.017,0.129,-0.967,0.082,0.354,-0.193,-0.49
131,0.002,-0.009,-0.014,0.127,-0.975,0.069,0.354,-0.205,-0.475
132,0.006,0.02,-0.015,0.137,-0.976,0.051,0.354,-0.207,-0.463
133,0.003,0.037,-0.017,0.14,-0.975,0.057,0.357,-0.199,-0.48
134,0.001,0.036,-0.017,0.139,-0.974,0.068,0.373,-0.207,-0.468
135,0.002,0.03,-0.014,0.137,-0.969,0.081,0.357,-0.204,-0.474
136,0.003,0.032,-0.009,0.131,-0.97,0.086,0.363,-0.19,-0.487
137,0.007,0.039,-0.004,0.124,-0.977,0.084,0.373,-0.22,-0.48
138,0.008,0.04,-0.004,0.123,-0.982,0.073,0.346,-0.198,-0.496
139,0.009,0.046,-0.007,0.119,-0.977,0.062,0.376,-0.201,-0.489
140,0.005,0.044,-0.011,0.109,-0.967,0.061,0.376,-0.201,-0.489
141,0.008,0.024,-0.01,0.097,-0.969,0.067,0.373,-0.195,-0.495
142,0.011,-0.014,-0.009,0.086,-0.982,0.067,0.37,-0.195,-0.478
143,0.012,-0.053,-0.011,0.084,-0.982,0.064,0.366,-0.201,-0.48
144,0.009,-0.068,-0.023,0.106,-0.973,0.065,0.372,-0.196,-0.483
145,0.007,-0.07,-0.032,0.106,-0.973,0.065,0.373,-0.199,-0.493
146,0.014,-0.074,-0.035,0.134,-0.971,0.067,0.37,-0.214,-0.474
147,0.011,-0.084,-0.031,0.153,-0.971,0.07,0.384,-0.201,-0.481
148,0.011,-0.081,-0.022,0.162,-0.968,0.075,0.378,-0.193,-0.478
149,0.009,-0.058,-0.011,0.178,-0.961,0.081,0.376,-0.207,-0.469
150,0.006,-0.017,-0.004,0.201,-0.956,0.084,0.352,-0.207,-0.486
151,-0.002,0.023,-0.004,0.206,-0.956,0.075,0.364,-0.204,-0.463
152,-0.012,0.039,-0.005,0.189,-0.966,0.075,0.373,-0.181,-0.462
153,-0.013,0.033,-0.007,0.163,-0.976,0.081,0.352,-0.205,-0.466
154,-0.01,0.027,-0.011,0.137,-0.977,0.079,0.361,-0.198,-0.454
155,-0.002,0.03,-0.017,0.119,-0.969,0.077,0.379,-0.207,-0.46
156,0.0,0.01,-0.023,0.115,-0.966,0.052,0.355,-0.187,-0.474
157,0.004,-0.022,-0.019,0.097,-0.97,0.076,0.361,-0.198,-0.478
158,0.009,-0.052,-0.017,0.086,-0.978,0.11,0.369,-0.204,-0.477
159,0.006,-0.064,-0.018,0.099,-0.983,0.084,0.363,-0.21,-0.49
160,0.003,-0.068,-0.018,0.111,-0.982,0.076,0.363,-0.21,-0.49
161,-0.002,-0.065,-0.017,0.133,-0.972,0.072,0.358,-0.204,-0.468
162,-0.008,-0.061,-0.018,0.139,-0.972,0.07,0.364,-0.192,-0.477
163,-0.007,-0.051,-0.02,0.139,-0.972,0.07,0.363,-0.217,-0.478
164,0.002,-0.038,-0.022,0.147,-0.974,0.072,0.367,-0.199,-0.477
165,0.011,-0.028,-0.022,0.149,-0.966,0.076,0.376,-0.195,-0.486
166,0.018,-0.023,-0.02,0.15,-0.957,0.071,0.366,-0.193,-0.475
167,0.023,-0.02,-0.018,0.154,-0.96,0.067,0.366,-0.193,-0.475
168,0.025,-0.01,-0.018,0.155,-0.968,0.065,0.366,-0.196,-0.471
169,0.024,0.006,-0.021,0.153,-0.97,0.067,0.351,-0.187,-0.498
170,0.026,0.019,-0.026,0.147,-0.971,0.072,0.367,-0.214,-0.462
171,0.028,0.027,-0.029,0.143,-0.97,0.073,0.363,-0.207,-0.472
172,0.034,0.025,-0.024,0.14,-0.968,0.077,0.354,-0.193,-0.459
173,0.037,0.018,-0.018,0.134,-0.967,0.08,0.367,-0.202,-0.465
174,0.037,0.016,-0.014,0.132,-0.968,0.08,0.346,-0.202,-0.466
175,0.03,0.014,-0.011,0.128,-0.975,0.077,0.346,-0.202,-0.466
176,0.023,0.014,-0.011,0.125,-0.979,0.076,0.379,-0.199,-0.468
177,0.016,0.024,-0.011,0.128,-0.978,0.073,0.375,-0.198,-0.471
178,0.014,0.036,-0.009,0.138,-0.971,0.067,0.357,-0.205,-0.468
179,0.016,0.051,-0.004,0.134,-0.971,0.06,0.37,-0.193,-0.462
180,0.019,0.033,0.004,0.134,-0.971,0.06,0.37,-0.193,-0.462
181,0.018,-0.002,0.007,0.114,-0.978,0.076,0.351,-0.196,-0.477
182,0.007,0.024,0.002,0.111,-0.975,0.066,0.357,-0.208,-0.472
183,0.003,0.127,0.0,0.125,-0.975,0.027,0.348,-0.21,-0.472
184,0.009,0.142,0.0,0.123,-0.984,0.008,0.364,-0.199,-0.469
185,0.012,0.087,0.002,0.107,-0.983,0.022,0.361,-0.211,-0.472
186,0.011,0.003,0.004,0.082,-0.983,0.054,0.373,-0.204,-0.474
187,0.009,-0.036,0.002,0.079,-0.981,0.058,0.36,-0.196,-0.472
188,0.011,-0.032,0.0,0.099,-0.972,0.043,0.36,-0.196,-0.472
189,0.009,-0.012,-0.004,0.12,-0.971,0.03,0.382,-0.213,-0.472
190,0.007,-0.011,-0.005,0.133,-0.976,0.027,0.379,-0.199,-0.477
191,0.002,-0.023,-0.004,0.138,-0.975,0.041,0.397,-0.208,-0.472
192,0.003,-0.02,-0.004,0.142,-0.973,0.062,0.384,-0.189,-0.49
193,0.002,0.0,-0.006,0.14,-0.973,0.061,0.367,-0.211,-0.484
194,0.001,0.004,-0.007,0.14,-0.972,0.054,0.366,-0.189,-0.472
195,0.002,0.001,-0.006,0.143,-0.973,0.053,0.372,-0.201,-0.477
196,0.004,-0.009,-0.004,0.129,-0.972,0.06,0.355,-0.196,-0.477
197,0.0,-0.011,-0.007,0.129,-0.972,0.06,0.36,-0.195,-0.481
198,0.0,-0.015,-0.011,0.123,-0.973,0.058,0.37,-0.198,-0.474
199,0.002,-0.021,-0.01,0.127,-0.978,0.053,0.366,-0.187,-0.478
200,0.004,-0.025,-0.009,0.134,-0.977,0.052,0.352,-0.199,-0.474
201,0.006,-0.025,-0.007,0.136,-0.971,0.057,0.355,-0.211,-0.466
202,0.008,-0.029,-0.007,0.135,-0.97,0.061,0.369,-0.193,-0.462
203,0.008,-0.027,-0.007,0.133,-0.971,0.059,0.369,-0.193,-0.462
204,0.004,-0.019,-0.007,0.138,-0.969,0.059,0.37,-0.202,-0.475
205,0.004,-0.008,-0.007,0.145,-0.968,0.063,0.37,-0.204,-0.457
206,0.008,-0.002,-0.005,0.147,-0.968,0.064,0.357,-0.193,-0.457
207,0.011,0.007,-0.005,0.146,-0.965,0.062,0.36,-0.213,-0.468
208,0.014,0.014,-0.004,0.143,-0.964,0.065,0.367,-0.214,-0.468
209,0.016,0.013,-0.001,0.142,-0.97,0.07,0.367,-0.219,-0.468
210,0.018,0.013,-0.001,0.141,-0.975,0.065,0.367,-0.192,-0.468
211,0.021,0.011,-0.001,0.136,-0.973,0.061,0.367,-0.199,-0.499
212,0.026,0.007,-0.001,0.132,-0.971,0.062,0.388,-0.201,-0.462
213,0.023,0.008,-0.001,0.141,-0.975,0.063,0.363,-0.208,-0.475
214,0.023,0.011,0.001,0.141,-0.975,0.063,0.355,-0.189,-0.459
215,0.031,0.008,0.005,0.139,-0.965,0.058,0.363,-0.192,-0.475
216,0.035,0.011,0.007,0.136,-0.965,0.054,0.363,-0.192,-0.475
217,0.032,0.025,0.01,0.13,-0.967,0.053,0.36,-0.202,-0.471
218,0.031,0.025,0.012,0.122,-0.962,0.054,0.36,-0.217,-0.477
219,0.021,0.028,0.013,0.119,-0.957,0.053,0.358,-0.192,-0.465
220,0.01,0.026,0.017,0.12,-0.959,0.055,0.378,-0.207,-0.495
221,0.058,0.044,0.026,0.122,-0.97,0.067,0.372,-0.193,-0.478
222,0.029,-0.004,0.032,0.092,-0.95,0.101,0.369,-0.201,-0.46
223,0.016,-0.023,0.032,0.095,-0.953,0.092,0.363,-0.204,-0.454
224,0.013,-0.017,0.028,0.118,-0.981,0.053,0.358,-0.205,-0.462
225,0.023,-0.018,0.025,0.108,-0.967,0.045,0.355,-0.198,-0.484
226,0.032,-0.042,0.03,0.111,-0.955,0.047,0.36,-0.198,-0.462
227,0.039,-0.061,0.033,0.115,-0.955,0.056,0.351,-0.195,-0.459
228,0.042,-0.076,0.037,0.115,-0.958,0.062,0.366,-0.195,-0.471
229,0.038,-0.085,0.04,0.12,-0.957,0.064,0.34,-0.223,-0.436
230,0.031,-0.085,0.047,0.128,-0.956,0.069,0.351,-0.195,-0.466
231,0.039,-0.096,0.055,0.142,-0.988,0.078,0.366,-0.201,-0.468
232,0.051,-0.123,0.061,0.142,-0.988,0.078,0.34,-0.204,-0.447
233,0.058,-0.142,0.062,0.141,-0.984,0.071,0.34,-0.204,-0.447
234,0.058,-0.148,0.06,0.137,-0.963,0.057,0.358,-0.213,-0.453
235,0.051,-0.165,0.056,0.138,-0.953,0.055,0.354,-0.193,-0.43
236,0.061,-0.187,0.063,0.147,-0.946,0.049,0.354,-0.193,-0.43
237,0.067,-0.219,0.076,0.171,-0.945,0.032,0.357,-0.222,-0.465
238,0.066,-0.228,0.077,0.178,-0.954,0.017,0.358,-0.19,-0.456
239,0.032,-0.24,0.053,0.173,-0.972,0.021,0.324,-0.201,-0.457
240,-0.007,-0.266,0.039,0.177,-0.963,0.049,0.333,-0.208,-0.456
241,-0.022,-0.322,0.049,0.203,-0.956,0.064,0.33,-0.204,-0.421
242,0.003,-0.367,0.077,0.254,-0.974,0.056,0.324,-0.193,-0.45
243,0.054,-0.296,0.078,0.283,-0.983,0.042,0.33,-0.201,-0.438
244,0.034,-0.337,0.084,0.238,-0.989,0.133,0.325,-0.189,-0.433
245,-0.011,-0.392,0.059,0.234,-0.971,0.156,0.316,-0.18,-0.438
246,-0.009,-0.322,0.035,0.272,-0.947,0.077,0.351,-0.205,-0.432
247,0.028,-0.209,0.03,0.276,-0.939,0.054,0.307,-0.21,-0.423
248,0.044,-0.163,0.037,0.28,-0.929,0.042,0.319,-0.186,-0.429
249,0.053,-0.154,0.049,0.295,-0.932,0.065,0.319,-0.204,-0.406
250,0.026,-0.147,0.056,0.306,-0.978,0.101,0.319,-0.204,-0.406
251,0.029,-0.122,0.061,0.323,-0.99,0.096,0.316,-0.201,-0.412
252,0.044,-0.07,0.042,0.331,-0.933,0.05,0.318,-0.189,-0.402
253,0.032,-0.081,0.013,0.286,-0.887,0.039,0.313,-0.177,-0.421
254,0.045,-0.116,-0.009,0.24,-0.897,0.057,0.31,-0.189,-0.379
255,0.021,-0.143,-0.005,0.214,-0.904,0.06,0.324,-0.181,-0.423
256,0.056,-0.133,-0.014,0.237,-0.91,0.048,0.324,-0.193,-0.415
257,0.1,-0.13,-0.018,0.272,-0.92,0.057,0.325,-0.198,-0.418
258,0.1,-0.147,-0.035,0.279,-0.902,0.075,0.313,-0.198,-0.409
259,0.147,-0.149,-0.055,0.308,-0.949,0.084,0.312,-0.216,-0.399
260,0.184,-0.128,-0.074,0.315,-0.983,0.071,0.312,-0.207,-0.396
261,0.205,-0.152,-0.095,0.295,-0.956,0.066,0.303,-0.199,-0.412
262,0.255,-0.189,-0.123,0.284,-0.947,0.08,0.303,-0.199,-0.412
263,0.193,-0.187,-0.147,0.294,-0.698,-0.153,0.324,-0.21,-0.384
264,0.206,-0.177,-0.17,0.303,-0.677,-0.198,0.33,-0.204,-0.388
265,0.207,-0.158,-0.195,0.311,-0.933,0.042,0.316,-0.207,-0.391
266,0.215,-0.117,-0.219,0.386,-0.989,0.081,0.319,-0.202,-0.381
267,0.199,-0.084,-0.24,0.39,-0.984,0.061,0.324,-0.198,-0.375
268,0.142,-0.007,-0.249,0.39,-0.984,0.061,0.313,-0.214,-0.391
269,0.174,-0.003,-0.254,0.375,-0.966,0.028,0.313,-0.216,-0.364
270,0.1,-0.063,-0.254,0.339,-0.969,0.059,0.333,-0.231,-0.366
271,0.086,-0.154,-0.305,0.324,-1.03,0.131,0.343,-0.211,-0.369
272,0.134,-0.175,-0.389,0.318,-1.088,0.21,0.348,-0.228,-0.349
273,-0.044,-0.094,-0.371,0.303,-1.035,0.276,0.351,-0.228,-0.358
274,-0.214,-0.05,-0.361,0.329,-1.0,0.286,0.351,-0.228,-0.358
275,-0.393,0.112,-0.266,0.379,-1.028,0.188,0.342,-0.262,-0.343
276,-0.544,0.387,-0.151,0.395,-1.074,-0.017,0.358,-0.231,-0.345
277,-0.737,0.639,-0.076,0.361,-1.12,-0.135,0.348,-0.244,-0.381
278,-0.881,0.81,0.025,0.274,-1.151,-0.12,0.361,-0.225,-0.4
279,-1.024,0.812,0.133,0.143,-1.136,-0.058,0.379,-0.247,-0.397
280,-1.156,0.522,0.25,0.067,-1.132,-0.01,0.357,-0.22,-0.417
281,-1.124,0.161,0.301,0.02,-1.19,0.032,0.366,-0.22,-0.45
282,-1.08,-0.151,0.283,-0.066,-1.234,0.078,0.358,-0.226,-0.478
283,-1.048,-0.429,0.344,-0.165,-1.188,0.112,0.363,-0.211,-0.462
284,-1.09,-0.241,0.29,0.034,-1.048,-0.038,0.372,-0.198,-0.489
285,-0.937,0.265,0.219,0.034,-1.048,-0.038,0.354,-0.178,-0.495
286,-0.898,0.893,0.301,0.232,-1.023,-0.151,0.355,-0.175,-0.501
287,-0.963,1.366,0.33,0.355,-1.03,-0.073,0.381,-0.171,-0.55
288,-0.882,1.465,0.265,0.326,-0.994,0.035,0.381,-0.171,-0.55
289,-0.747,1.386,0.216,0.189,-0.958,0.159,0.387,-0.16,-0.546
290,-0.707,1.437,0.191,0.048,-0.948,0.239,0.399,-0.142,-0.573
291,-0.603,1.37,0.101,-0.045,-0.876,0.173,0.393,-0.13,-0.612
292,-0.532,1.145,0.021,-0.106,-0.771,0.176,0.424,-0.123,-0.634
293,-0.28,0.867,0.032,-0.134,-0.712,0.273,0.432,-0.132,-0.624
294,-0.007,0.627,0.063,-0.102,-0.683,0.272,0.457,-0.112,-0.642
295,0.133,0.48,0.072,-0.038,-0.676,0.248,0.46,-0.105,-0.654
296,0.272,0.363,0.066,0.03,-0.709,0.311,0.471,-0.102,-0.651
297,0.385,0.28,0.057,0.037,-0.655,0.348,0.462,-0.115,-0.634
298,0.456,0.219,0.045,0.03,-0.584,0.369,0.466,-0.112,-0.655
299,0.516,0.171,0.025,0.036,-0.589,0.414,0.477,-0.115,-0.651
300,0.493,0.114,0.063,0.026,-0.613,0.463,0.459,-0.139,-0.612
301,0.499,0.067,0.125,0.053,-0.727,0.554,0.484,-0.142,-0.624
302,0.526,0.037,0.198,0.051,-0.783,0.554,0.484,-0.142,-0.624
303,0.482,0.117,0.234,0.051,-0.783,0.554,0.468,-0.15,-0.627
304,0.305,0.129,0.211,0.079,-0.921,0.619,0.468,-0.178,-0.639
305,0.187,-0.044,0.231,0.121,-1.095,0.697,0.46,-0.172,-0.613
306,0.247,0.009,0.226,0.134,-1.22,0.648,0.492,-0.172,-0.609
307,0.052,0.602,0.043,0.127,-1.095,0.603,0.48,-0.193,-0.619
308,0.119,0.763,-0.081,0.027,-0.608,0.727,0.474,-0.186,-0.618
309,0.071,0.354,0.023,-0.098,-0.294,0.674,0.495,-0.183,-0.619
310,0.163,-0.689,0.107,-0.168,-0.744,0.336,0.504,-0.183,-0.627
311,-0.092,-0.251,0.067,-0.232,-1.598,0.029,0.492,-0.171,-0.613
312,-0.344,0.111,0.191,0.149,-1.995,0.179,0.493,-0.196,-0.609
313,0.084,-0.683,-0.095,0.116,-1.008,0.272,0.498,-0.168,-0.636
314,-0.506,-0.165,-0.317,-0.288,-0.106,0.005,0.507,-0.199,-0.621
315,-0.072,-0.757,-0.071,-0.002,-0.429,-0.005,0.504,-0.177,-0.627
316,0.809,-1.444,0.053,0.315,-0.766,-0.11,0.477,-0.186,-0.616
317,0.634,-0.578,0.231,0.466,-1.231,-0.307,0.477,-0.186,-0.616
318,0.296,-0.397,0.263,0.1,-1.069,0.351,0.49,-0.193,-0.633
319,0.2,-0.732,0.065,-0.24,-0.668,0.29,0.475,-0.217,-0.621
320,0.242,-0.913,-0.081,-0.081,-0.738,0.08,0.463,-0.208,-0.606
321,0.34,-1.025,-0.047,-0.081,-0.738,0.08,0.444,-0.204,-0.597
322,0.426,-1.079,0.072,0.235,-0.943,0.006,0.438,-0.216,-0.586
323,0.542,-1.076,0.149,0.424,-0.969,0.003,0.438,-0.235,-0.595
324,0.585,-0.863,0.128,0.38,-0.837,0.005,0.426,-0.213,-0.568
325,0.562,-0.643,0.088,0.333,-0.795,-0.034,0.424,-0.243,-0.553
326,0.5,-0.49,0.009,0.301,-0.833,0.0,0.414,-0.249,-0.538
327,0.429,-0.395,-0.055,0.251,-0.852,0.022,0.4,-0.247,-0.547
328,0.382,-0.39,-0.107,0.224,-0.846,0.046,0.388,-0.258,-0.52
329,0.354,-0.378,-0.13,0.228,-0.875,0.097,0.382,-0.265,-0.507
330,0.375,-0.336,-0.147,0.282,-0.928,0.051,0.405,-0.273,-0.499
331,0.441,-0.262,-0.165,0.279,-0.929,-0.005,0.372,-0.274,-0.508
332,0.49,-0.258,-0.202,0.206,-0.887,0.031,0.39,-0.294,-0.463
333,0.527,-0.269,-0.244,0.145,-0.816,0.064,0.379,-0.291,-0.469
334,0.544,-0.31,-0.284,0.128,-0.784,0.066,0.394,-0.28,-0.466
335,0.524,-0.371,-0.312,0.157,-0.825,0.093,0.397,-0.298,-0.444
336,0.457,-0.443,-0.322,0.208,-0.895,0.126,0.397,-0.301,-0.447
337,0.408,-0.443,-0.317,0.308,-0.976,0.044,0.397,-0.301,-0.447
338,0.354,-0.412,-0.289,0.308,-0.976,0.044,0.418,-0.319,-0.427
339,0.27,-0.352,-0.239,0.296,-1.04,0.052,0.399,-0.31,-0.408
340,0.261,-0.196,-0.186,0.326,-1.08,0.075,0.406,-0.303,-0.4
341,0.287,-0.069,-0.172,0.4,-1.012,0.056,0.406,-0.307,-0.403
342,0.217,-0.058,-0.172,0.399,-1.015,0.113,0.418,-0.304,-0.4
343,0.015,-0.096,-0.133,0.363,-1.154,0.193,0.411,-0.309,-0.388
344,-0.178,-0.009,-0.024,0.392,-1.273,0.162,0.424,-0.3,-0.36
345,-0.485,0.241,-0.007,0.452,-1.319,0.051,0.412,-0.303,-0.382
346,-0.899,0.46,-0.011,0.368,-1.313,-0.052,0.406,-0.291,-0.37
347,-1.092,0.655,0.066,0.179,-1.272,-0.137,0.408,-0.304,-0.379
348,-1.155,0.917,0.149,0.042,-1.196,-0.171,0.423,-0.295,-0.394
349,-1.25,0.832,0.205,-0.004,-1.193,-0.064,0.414,-0.255,-0.436
350,-1.384,0.434,0.228,0.021,-1.222,0.086,0.421,-0.246,-0.475
351,-1.441,0.05,0.151,0.011,-1.218,0.133,0.436,-0.262,-0.504
352,-1.413,-0.298,0.046,-0.073,-1.191,0.136,0.436,-0.262,-0.504
353,-1.13,0.043,-0.036,-0.057,-1.109,0.022,0.438,-0.225,-0.463
354,-1.171,0.701,0.071,0.284,-1.102,-0.103,0.411,-0.225,-0.502
355,-1.212,0.985,0.198,0.283,-1.035,0.051,0.438,-0.223,-0.523
356,-1.108,1.183,0.135,0.283,-1.035,0.051,0.436,-0.204,-0.519
357,-0.917,1.281,0.099,0.127,-0.937,0.083,0.43,-0.195,-0.568
358,-0.725,1.241,0.131,0.043,-0.883,0.155,0.447,-0.183,-0.564
359,-0.591,1.207,0.112,0.013,-0.844,0.193,0.469,-0.171,-0.57
360,-0.451,1.171,0.027,-0.055,-0.784,0.181,0.471,-0.144,-0.58
361,-0.276,1.005,-0.042,-0.134,-0.658,0.178,0.492,-0.154,-0.592
362,0.023,0.674,-0.031,-0.136,-0.585,0.155,0.492,-0.141,-0.582
363,0.305,0.343,0.021,-0.083,-0.589,0.188,0.525,-0.156,-0.592
364,0.448,0.196,0.059,-0.036,-0.607,0.258,0.52,-0.129,-0.592
365,0.472,0.194,0.082,-0.024,-0.572,0.317,0.523,-0.154,-0.589
366,0.512,0.224,0.088,-0.023,-0.517,0.392,0.517,-0.159,-0.583
367,0.613,0.217,0.056,0.008,-0.498,0.391,0.517,-0.151,-0.568
368,0.662,0.162,0.079,0.049,-0.557,0.412,0.525,-0.147,-0.574
369,0.625,0.12,0.184,0.074,-0.697,0.511,0.52,-0.186,-0.567
370,0.524,0.153,0.289,0.063,-0.824,0.63,0.514,-0.163,-0.549
371,0.271,0.216,0.289,0.07,-0.956,0.77,0.508,-0.181,-0.547
372,0.058,0.049,0.353,0.149,-1.293,0.665,0.508,-0.181,-0.547
373,0.096,0.172,0.294,0.149,-1.293,0.665,0.48,-0.19,-0.538
374,-0.051,0.774,0.016,0.073,-1.096,0.607,0.48,-0.19,-0.538
375,0.033,0.977,-0.162,-0.091,-0.556,0.707,0.489,-0.18,-0.549
376,-0.11,0.439,-0.018,-0.195,-0.327,0.669,0.499,-0.189,-0.517
377,0.089,-0.558,0.064,-0.215,-0.965,0.369,0.519,-0.174,-0.547
378,-0.385,0.156,0.032,-0.265,-1.755,0.006,0.508,-0.169,-0.544
379,-0.084,-0.066,0.045,0.013,-1.681,0.216,0.492,-0.172,-0.538
380,-0.233,-0.256,-0.203,-0.082,-0.701,0.19,0.511,-0.187,-0.556
381,-0.367,-0.235,-0.119,-0.253,-0.31,-0.015,0.496,-0.171,-0.565
382,0.584,-1.488,0.098,0.14,-0.689,0.08,0.504,-0.166,-0.535
383,0.816,-1.267,0.16,0.288,-0.938,-0.235,0.484,-0.159,-0.535
384,0.464,-0.436,0.321,0.409,-1.388,-0.235,0.465,-0.18,-0.541
385,0.345,-0.62,0.275,0.299,-1.39,0.233,0.477,-0.199,-0.541
386,0.366,-1.124,0.14,-0.097,-0.861,0.391,0.477,-0.199,-0.541
387,0.438,-1.435,0.055,-0.237,-0.645,0.26,0.423,-0.186,-0.516
388,0.619,-1.395,0.149,-0.004,-0.731,0.049,0.447,-0.183,-0.499
389,0.686,-1.296,0.235,0.338,-0.91,-0.057,0.405,-0.198,-0.49
390,0.72,-1.159,0.224,0.335,-0.813,-0.019,0.367,-0.187,-0.462
391,0.729,-0.813,0.191,0.335,-0.813,-0.019,0.367,-0.187,-0.462
392,0.663,-0.427,0.051,0.351,-0.795,-0.05,0.388,-0.199,-0.453
393,0.55,-0.303,-0.058,0.3,-0.83,0.025,0.364,-0.208,-0.439
394,0.483,-0.336,-0.119,0.252,-0.849,0.072,0.375,-0.204,-0.418
395,0.507,-0.359,-0.159,0.258,-0.878,0.084,0.372,-0.22,-0.408
396,0.564,-0.236,-0.195,0.255,-0.894,0.028,0.357,-0.201,-0.414
397,0.669,-0.176,-0.235,0.215,-0.86,-0.005,0.351,-0.219,-0.393
398,0.758,-0.154,-0.281,0.177,-0.819,0.038,0.352,-0.211,-0.382
399,0.715,-0.221,-0.307,0.165,-0.84,0.095,0.354,-0.225,-0.372
400,0.588,-0.342,-0.312,0.188,-0.929,0.163,0.364,-0.232,-0.355
401,0.429,-0.409,-0.319,0.237,-0.988,0.185,0.369,-0.247,-0.345
402,0.345,-0.394,-0.305,0.309,-0.987,0.129,0.366,-0.232,-0.346
403,0.293,-0.344,-0.275,0.356,-0.999,0.061,0.366,-0.232,-0.346
404,0.221,-0.259,-0.244,0.34,-1.06,0.078,0.373,-0.255,-0.33
405,0.22,-0.226,-0.217,0.317,-1.09,0.082,0.36,-0.264,-0.342
406,0.156,-0.249,-0.239,0.189,-1.089,0.219,0.384,-0.244,-0.325
407,-0.021,-0.29,-0.286,0.279,-1.101,0.219,0.381,-0.228,-0.327
408,-0.193,-0.274,-0.191,0.279,-1.101,0.219,0.373,-0.243,-0.334
409,-0.392,0.004,-0.077,0.411,-1.12,0.049,0.361,-0.235,-0.325
410,-0.755,0.387,-0.049,0.531,-1.223,-0.103,0.375,-0.241,-0.324
411,-1.157,0.662,-0.044,0.464,-1.285,-0.206,0.369,-0.252,-0.336
412,-1.37,0.875,0.064,0.104,-1.298,-0.245,0.373,-0.256,-0.339
413,-1.329,0.891,0.149,-0.161,-1.269,-0.186,0.367,-0.244,-0.406
414,-1.403,0.389,0.206,-0.183,-1.283,-0.013,0.369,-0.222,-0.403
415,-1.433,-0.123,0.18,-0.137,-1.349,0.138,0.387,-0.246,-0.417
416,-1.467,-0.283,0.095,-0.12,-1.307,0.127,0.384,-0.211,-0.439
417,-1.262,-0.124,-0.002,-0.116,-1.165,0.076,0.367,-0.211,-0.478
418,-1.053,0.294,0.074,0.06,-1.01,-0.033,0.364,-0.186,-0.498
419,-1.075,0.713,0.213,0.315,-0.997,-0.082,0.372,-0.18,-0.51
420,-1.098,1.288,0.116,0.318,-1.021,0.011,0.375,-0.196,-0.531
421,-0.969,1.442,0.056,0.132,-0.921,0.024,0.375,-0.196,-0.531
422,-0.743,1.254,0.121,-0.007,-0.811,0.145,0.391,-0.169,-0.571
423,-0.596,1.204,0.182,-0.05,-0.797,0.272,0.403,-0.171,-0.571
424,-0.449,1.192,0.134,-0.098,-0.709,0.163,0.417,-0.151,-0.582
425,-0.273,1.049,0.068,-0.158,-0.576,0.183,0.43,-0.139,-0.606
426,0.0,0.696,0.081,-0.158,-0.576,0.183,0.435,-0.147,-0.601
427,0.286,0.338,0.13,-0.145,-0.533,0.205,0.432,-0.141,-0.613
428,0.452,0.156,0.142,-0.105,-0.553,0.254,0.457,-0.147,-0.6
429,0.486,0.172,0.142,-0.075,-0.558,0.328,0.453,-0.15,-0.601
430,0.573,0.221,0.108,-0.041,-0.56,0.404,0.435,-0.142,-0.607
431,0.654,0.196,0.095,0.028,-0.543,0.434,0.447,-0.166,-0.61
432,0.668,0.151,0.113,0.106,-0.552,0.45,0.456,-0.165,-0.57
433,0.637,0.113,0.189,0.129,-0.637,0.519,0.453,-0.178,-0.6
434,0.497,0.301,0.285,0.112,-0.799,0.602,0.469,-0.186,-0.562
435,0.214,0.366,0.297,0.109,-0.992,0.76,0.469,-0.186,-0.562
436,0.065,-0.016,0.374,0.142,-1.201,0.898,0.453,-0.178,-0.586
437,0.088,0.143,0.288,0.104,-1.356,0.736,0.441,-0.187,-0.573
438,-0.128,0.845,0.031,-0.013,-1.188,0.609,0.444,-0.187,-0.568
439,-0.146,0.97,-0.126,-0.163,-0.592,0.707,0.442,-0.184,-0.568
440,-0.007,0.047,0.004,-0.235,-0.496,0.655,0.447,-0.193,-0.583
441,-0.198,0.035,-0.109,-0.174,-1.393,0.251,0.468,-0.183,-0.57
442,-0.119,-0.042,0.169,-0.045,-1.136,0.096,0.451,-0.175,-0.594
443,0.025,-0.384,-0.091,-0.045,-1.136,0.096,0.474,-0.169,-0.577
444,-0.403,-0.196,-0.238,-0.236,-0.41,-0.02,0.457,-0.162,-0.591
445,0.232,-0.897,-0.027,-0.093,-0.61,0.034,0.442,-0.18,-0.585
446,0.791,-1.375,0.033,0.075,-0.699,-0.153,0.453,-0.172,-0.586
447,0.531,-0.772,0.191,0.231,-1.092,-0.213,0.436,-0.186,-0.559
448,0.432,-0.583,0.294,0.369,-1.454,0.036,0.438,-0.18,-0.562
449,0.389,-0.917,0.175,0.126,-1.144,0.31,0.427,-0.187,-0.543
450,0.422,-1.245,0.091,-0.12,-0.769,0.296,0.427,-0.187,-0.543
451,0.692,-1.47,0.122,-0.053,-0.697,0.091,0.391,-0.189,-0.543
452,0.814,-1.407,0.234,0.207,-0.813,-0.124,0.405,-0.187,-0.525
453,0.792,-1.18,0.245,0.359,-0.905,-0.15,0.351,-0.207,-0.49
454,0.838,-0.755,0.119,0.31,-0.887,-0.028,0.358,-0.211,-0.486
455,0.686,-0.441,0.016,0.213,-0.827,-0.015,0.322,-0.216,-0.456
456,0.544,-0.411,-0.081,0.193,-0.825,0.024,0.342,-0.223,-0.472
457,0.474,-0.449,-0.154,0.22,-0.869,0.079,0.34,-0.229,-0.451
458,0.501,-0.431,-0.193,0.209,-0.867,0.042,0.334,-0.238,-0.438
459,0.525,-0.367,-0.228,0.209,-0.852,0.042,0.342,-0.217,-0.438
460,0.595,-0.364,-0.261,0.167,-0.841,0.057,0.349,-0.225,-0.427
461,0.648,-0.345,-0.316,0.167,-0.841,0.057,0.352,-0.225,-0.403
462,0.678,-0.322,-0.377,0.152,-0.821,0.067,0.334,-0.256,-0.399
463,0.613,-0.36,-0.424,0.14,-0.839,0.124,0.334,-0.243,-0.399
464,0.519,-0.415,-0.443,0.17,-0.891,0.147,0.343,-0.255,-0.378
465,0.424,-0.446,-0.39,0.215,-0.936,0.1,0.343,-0.255,-0.378
466,0.303,-0.481,-0.309,0.23,-0.999,0.097,0.351,-0.247,-0.373
467,0.207,-0.399,-0.221,0.241,-1.07,0.139,0.351,-0.256,-0.357
468,0.154,-0.296,-0.192,0.268,-1.048,0.137,0.331,-0.253,-0.369
469,0.001,-0.254,-0.268,0.317,-1.041,0.168,0.357,-0.252,-0.34
470,-0.21,-0.144,-0.152,0.384,-1.105,0.165,0.352,-0.247,-0.352
471,-0.347,0.231,0.0,0.501,-1.165,-0.023,0.376,-0.258,-0.355
472,-0.721,0.525,0.038,0.583,-1.232,-0.144,0.363,-0.261,-0.349
473,-1.173,0.682,0.093,0.349,-1.364,-0.123,0.349,-0.238,-0.387
474,-1.294,0.939,0.235,-0.045,-1.446,-0.148,0.357,-0.243,-0.408
475,-1.346,0.781,0.31,-0.195,-1.382,-0.126,0.367,-0.226,-0.441
476,-1.369,0.26,0.317,-0.132,-1.376,0.021,0.361,-0.238,-0.444
477,-1.462,-0.076,0.208,-0.113,-1.296,0.024,0.364,-0.226,-0.463
478,-1.563,-0.184,0.035,-0.113,-1.296,0.024,0.352,-0.192,-0.487
479,-1.449,-0.009,-0.096,-0.161,-1.205,0.016,0.348,-0.193,-0.493
480,-1.111,0.296,0.039,0.002,-1.146,-0.113,0.348,-0.193,-0.493
481,-1.281,0.704,0.284,0.257,-1.161,-0.132,0.363,-0.172,-0.514
482,-1.266,1.263,0.218,0.295,-1.151,-0.071,0.37,-0.168,-0.514
483,-1.019,1.379,0.069,0.091,-0.894,-0.077,0.372,-0.136,-0.543
484,-0.74,1.213,0.039,-0.094,-0.673,0.09,0.369,-0.138,-0.559
485,-0.582,1.17,0.092,-0.073,-0.709,0.193,0.393,-0.121,-0.568
486,-0.417,1.11,0.044,-0.052,-0.719,0.163,0.417,-0.123,-0.595
487,-0.148,0.947,-0.023,-0.134,-0.568,0.186,0.405,-0.112,-0.58
488,0.177,0.624,-0.011,-0.164,-0.485,0.204,0.433,-0.115,-0.613
489,0.415,0.345,0.0,-0.125,-0.488,0.205,0.399,-0.094,-0.607
490,0.535,0.179,0.004,-0.088,-0.486,0.227,0.436,-0.108,-0.586
491,0.636,0.13,0.032,-0.075,-0.473,0.297,0.427,-0.097,-0.6
492,0.778,0.142,0.034,-0.052,-0.437,0.367,0.445,-0.102,-0.591
493,0.771,0.173,0.062,0.018,-0.463,0.443,0.447,-0.109,-0.586
494,0.665,0.235,0.163,0.114,-0.68,0.591,0.457,-0.127,-0.567
495,0.52,0.342,0.315,0.121,-1.055,0.799,0.441,-0.129,-0.576
496,0.208,0.322,0.383,0.121,-1.055,0.799,0.441,-0.144,-0.577
497,0.041,-0.173,0.5,0.127,-1.315,0.925,0.444,-0.139,-0.582
498,0.084,0.019,0.303,0.041,-1.414,0.788,0.444,-0.139,-0.582
499,-0.126,0.949,-0.055,-0.114,-1.088,0.607,0.436,-0.12,-0.559
500,-0.165,0.969,-0.18,-0.201,-0.493,0.599,0.45,-0.147,-0.577
501,-0.088,-0.022,-0.023,-0.292,-0.372,0.554,0.462,-0.136,-0.58
502,-0.234,-0.061,-0.156,-0.304,-1.28,0.158,0.472,-0.124,-0.583
503,-0.172,-0.01,0.144,-0.113,-1.992,0.033,0.46,-0.129,-0.592
504,0.002,-0.36,-0.085,-0.051,-1.154,0.063,0.462,-0.132,-0.579
505,-0.401,-0.151,-0.196,-0.152,-0.459,0.021,0.45,-0.123,-0.583
506,0.288,-0.898,-0.005,-0.046,-0.642,0.051,0.451,-0.121,-0.58
507,0.891,-1.354,0.07,0.113,-0.728,-0.172,0.457,-0.105,-0.576
508,0.621,-0.739,0.273,0.274,-1.17,-0.203,0.427,-0.126,-0.565
509,0.475,-0.57,0.322,0.391,-1.463,0.028,0.414,-0.132,-0.552
510,0.318,-0.963,0.163,0.036,-1.076,0.348,0.43,-0.129,-0.534
511,0.372,-1.292,0.044,-0.303,-0.714,0.387,0.411,-0.138,-0.544
512,0.66,-1.352,0.084,-0.121,-0.698,0.034,0.393,-0.139,-0.522
513,0.753,-1.187,0.184,0.274,-0.946,-0.077,0.393,-0.139,-0.522
514,0.674,-1.078,0.207,0.274,-0.946,-0.077,0.352,-0.124,-0.51
515,0.717,-0.889,0.172,0.306,-0.86,0.011,0.379,-0.123,-0.489
516,0.688,-0.609,0.107,0.233,-0.776,0.028,0.363,-0.133,-0.471
517,0.594,-0.508,0.003,0.236,-0.798,0.008,0.343,-0.133,-0.468
518,0.459,-0.511,-0.1,0.244,-0.836,0.052,0.339,-0.154,-0.432
519,0.409,-0.478,-0.161,0.212,-0.861,0.111,0.331,-0.16,-0.447
520,0.426,-0.391,-0.205,0.218,-0.861,0.117,0.349,-0.15,-0.435
521,0.529,-0.329,-0.24,0.233,-0.847,0.08,0.339,-0.157,-0.409
522,0.634,-0.309,-0.26,0.221,-0.84,0.047,0.355,-0.159,-0.417
523,0.705,-0.3,-0.285,0.192,-0.823,0.058,0.327,-0.157,-0.391
524,0.681,-0.317,-0.327,0.162,-0.842,0.127,0.355,-0.157,-0.393
525,0.612,-0.376,-0.361,0.179,-0.919,0.184,0.355,-0.157,-0.393
526,0.481,-0.427,-0.322,0.255,-0.983,0.179,0.354,-0.163,-0.366
527,0.319,-0.455,-0.259,0.306,-1.013,0.149,0.354,-0.163,-0.366
528,0.24,-0.338,-0.203,0.359,-1.055,0.117,0.345,-0.172,-0.373
529,0.203,-0.231,-0.191,0.353,-1.056,0.105,0.346,-0.181,-0.361
530,-0.011,-0.318,-0.273,0.175,-1.158,0.24,0.345,-0.175,-0.343
531,-0.246,-0.305,-0.27,0.277,-1.17,0.1,0.354,-0.183,-0.348
532,-0.456,0.035,-0.079,0.277,-1.17,0.1,0.339,-0.183,-0.324
533,-0.798,0.473,0.0,0.408,-1.179,-0.081,0.339,-0.189,-0.351
534,-1.203,0.699,0.08,0.425,-1.243,-0.175,0.343,-0.19,-0.345
535,-1.36,0.983,0.227,0.196,-1.352,-0.217,0.351,-0.178,-0.399
536,-1.331,0.922,0.315,-0.096,-1.374,-0.168,0.346,-0.18,-0.417
537,-1.334,0.424,0.312,-0.124,-1.421,-0.016,0.337,-0.163,-0.444
538,-1.421,-0.064,0.203,-0.121,-1.454,0.105,0.34,-0.139,-0.475
539,-1.569,-0.334,0.092,-0.161,-1.347,0.099,0.361,-0.124,-0.481
540,-1.237,-0.287,0.016,-0.214,-1.226,0.114,0.361,-0.124,-0.481
541,-1.103,0.256,0.159,-0.087,-1.075,-0.023,0.333,-0.115,-0.487
542,-1.201,0.898,0.26,0.251,-1.036,-0.172,0.336,-0.102,-0.49
543,-1.183,1.463,0.091,0.291,-1.027,-0.098,0.339,-0.1,-0.495
544,-1.071,1.619,-0.005,0.09,-0.863,-0.058,0.369,-0.1,-0.513
545,-0.859,1.384,0.021,0.0,-0.759,0.097,0.366,-0.073,-0.54
546,-0.639,1.186,0.086,-0.059,-0.722,0.268,0.397,-0.073,-0.586
547,-0.411,1.103,0.088,-0.189,-0.651,0.169,0.39,-0.069,-0.58
548,-0.215,0.987,0.072,-0.188,-0.556,0.1,0.412,-0.051,-0.595
549,0.105,0.658,0.079,-0.188,-0.556,0.1,0.42,-0.043,-0.598
550,0.446,0.318,0.093,-0.154,-0.48,0.109,0.439,-0.037,-0.609
551,0.617,0.134,0.078,-0.115,-0.445,0.189,0.448,-0.051,-0.597
552,0.639,0.155,0.042,-0.077,-0.445,0.283,0.439,-0.043,-0.603
553,0.728,0.139,0.03,-0.032,-0.47,0.406,0.438,-0.072,-0.603
554,0.795,0.1,0.053,0.029,-0.505,0.503,0.453,-0.057,-0.591
555,0.703,0.137,0.179,0.097,-0.626,0.585,0.45,-0.063,-0.588
556,0.487,0.245,0.345,0.13,-0.88,0.732,0.45,-0.063,-0.588
557,0.226,0.387,0.36,0.119,-1.098,0.866,0.442,-0.097,-0.577
558,0.007,0.125,0.348,0.122,-1.262,0.91,0.456,-0.091,-0.586
559,0.074,-0.002,0.274,0.072,-1.37,0.761,0.451,-0.078,-0.565
560,-0.088,0.774,-0.016,-0.058,-1.179,0.603,0.469,-0.088,-0.585
561,-0.039,1.003,-0.128,-0.208,-0.631,0.621,0.439,-0.082,-0.574
562,0.02,0.015,0.028,-0.346,-0.476,0.632,0.453,-0.07,-0.583
563,-0.028,-0.471,-0.024,-0.329,-1.285,0.299,0.469,-0.078,-0.595
564,-0.326,0.088,0.077,-0.248,-1.954,0.0,0.468,-0.067,-0.597
565,0.085,-0.548,0.006,-0.093,-0.569,0.091,0.465,-0.063,-0.583
566,-0.359,-0.308,-0.179,-0.093,-0.569,0.091,0.478,-0.064,-0.592
567,0.074,-0.81,-0.006,-0.136,-0.587,-0.02,0.469,-0.069,-0.555
568,0.801,-1.675,0.104,0.088,-0.768,-0.068,0.487,-0.066,-0.571
569,0.53,-1.026,0.206,0.203,-1.105,-0.249,0.457,-0.072,-0.562
570,0.323,-0.696,0.27,0.249,-1.404,-0.078,0.441,-0.064,-0.531
571,0.281,-1.027,0.128,0.011,-1.116,0.319,0.406,-0.087,-0.558
572,0.353,-1.361,0.039,-0.225,-0.744,0.37,0.405,-0.069,-0.531
573,0.432,-1.57,0.023,-0.109,-0.756,0.179,0.388,-0.075,-0.541
574,0.721,-1.556,0.213,0.191,-0.879,-0.021,0.388,-0.075,-0.541
575,0.781,-1.33,0.261,0.411,-0.921,-0.155,0.375,-0.09,-0.511
576,0.769,-0.98,0.201,0.391,-0.873,-0.085,0.373,-0.076,-0.486
577,0.683,-0.579,0.046,0.33,-0.848,0.003,0.372,-0.097,-0.48
578,0.584,-0.463,-0.081,0.261,-0.883,0.066,0.355,-0.1,-0.457
579,0.535,-0.515,-0.167,0.166,-0.869,0.123,0.366,-0.109,-0.468
580,0.494,-0.511,-0.217,0.143,-0.882,0.087,0.364,-0.1,-0.451
581,0.467,-0.451,-0.264,0.152,-0.891,0.076,0.366,-0.094,-0.456
582,0.508,-0.424,-0.298,0.169,-0.859,0.069,0.36,-0.112,-0.427
583,0.603,-0.394,-0.331,0.165,-0.822,0.088,0.372,-0.133,-0.406
584,0.663,-0.368,-0.366,0.165,-0.822,0.088,0.361,-0.127,-0.415
585,0.643,-0.395,-0.384,0.171,-0.829,0.144,0.366,-0.124,-0.385
586,0.562,-0.426,-0.365,0.211,-0.885,0.19,0.384,-0.13,-0.387
587,0.471,-0.432,-0.299,0.269,-0.932,0.15,0.361,-0.123,-0.393
588,0.323,-0.46,-0.234,0.315,-0.952,0.109,0.361,-0.123,-0.393
589,0.267,-0.352,-0.199,0.392,-0.994,0.11,0.361,-0.15,-0.363
590,0.237,-0.231,-0.193,0.356,-1.011,0.142,0.361,-0.141,-0.369
591,0.053,-0.315,-0.191,0.237,-1.089,0.254,0.363,-0.145,-0.358
592,-0.226,-0.196,-0.102,0.235,-1.18,0.292,0.381,-0.145,-0.354
593,-0.449,0.214,0.064,0.382,-1.223,0.043,0.372,-0.156,-0.366
594,-0.811,0.639,0.085,0.556,-1.305,-0.15,0.382,-0.147,-0.369
595,-1.253,0.714,0.037,0.446,-1.345,-0.182,0.375,-0.144,-0.361
596,-1.423,0.919,0.098,0.035,-1.368,-0.234,0.391,-0.147,-0.397
597,-1.453,0.856,0.161,-0.281,-1.373,-0.166,0.37,-0.138,-0.402
598,-1.501,0.176,0.177,-0.297,-1.463,0.087,0.382,-0.13,-0.448
599,-1.582,-0.31,0.024,-0.21,-1.466,0.205,0.382,-0.114,-0.444
600,-1.491,-0.378,-0.069,-0.189,-1.077,0.008,0.379,-0.105,-0.451
601,-1.325,-0.082,-0.144,-0.189,-1.063,0.018,0.366,-0.108,-0.463
602,-1.114,0.361,0.025,0.021,-1.063,0.018,0.373,-0.096,-0.48
603,-1.25,0.872,0.071,0.313,-1.112,-0.045,0.373,-0.096,-0.48
604,-1.271,1.216,-0.051,0.262,-1.032,-0.005,0.373,-0.099,-0.477
605,-0.99,1.171,-0.102,0.033,-0.814,0.087,0.4,-0.079,-0.499
606,-0.695,0.979,-0.029,-0.055,-0.645,0.173,0.4,-0.066,-0.523
607,-0.497,0.934,0.065,-0.08,-0.668,0.235,0.4,-0.066,-0.523
608,-0.345,0.933,0.088,-0.083,-0.708,0.189,0.435,-0.061,-0.544
609,-0.104,0.799,0.081,-0.112,-0.66,0.169,0.436,-0.043,-0.562
610,0.238,0.542,0.107,-0.156,-0.576,0.184,0.444,-0.037,-0.556
611,0.567,0.229,0.129,-0.144,-0.529,0.223,0.438,-0.052,-0.564
612,0.674,0.042,0.131,-0.11,-0.504,0.298,0.442,-0.04,-0.549
613,0.629,0.065,0.103,-0.07,-0.525,0.392,0.432,-0.063,-0.556
614,0.665,0.088,0.072,-0.012,-0.542,0.458,0.442,-0.069,-0.552
615,0.648,0.126,0.066,0.044,-0.551,0.517,0.441,-0.084,-0.547
616,0.579,0.198,0.114,0.085,-0.668,0.575,0.433,-0.081,-0.537
617,0.458,0.355,0.213,0.079,-0.862,0.639,0.456,-0.093,-0.532
618,0.26,0.487,0.233,-0.006,-1.179,0.837,0.441,-0.09,-0.552
619,0.127,0.145,0.304,-0.08,-1.326,0.791,0.441,-0.09,-0.552
620,0.145,-0.088,0.297,-0.08,-1.326,0.791,0.472,-0.084,-0.531
621,-0.047,0.482,0.093,-0.139,-1.221,0.721,0.474,-0.096,-0.532
622,-0.102,0.858,-0.058,-0.185,-0.713,0.714,0.46,-0.091,-0.525
623,-0.057,0.042,0.081,-0.264,-0.535,0.643,0.45,-0.106,-0.534
624,-0.063,-0.35,-0.051,-0.255,-1.334,0.292,0.468,-0.093,-0.534
625,-0.274,0.058,-0.043,-0.184,-1.974,-0.014,0.46,-0.091,-0.519
626,-0.007,-0.36,-0.234,-0.078,-1.27,0.039,0.471,-0.085,-0.546
627,-0.436,-0.109,-0.256,-0.112,-0.566,0.115,0.447,-0.087,-0.519
628,0.311,-0.914,0.104,-0.036,-0.706,0.104,0.453,-0.103,-0.529
629,0.959,-1.631,0.236,0.129,-0.812,-0.087,0.456,-0.076,-0.501
630,0.602,-0.894,0.315,0.194,-1.1,-0.264,0.415,-0.105,-0.508
631,0.397,-0.625,0.3,0.266,-1.399,-0.045,0.43,-0.103,-0.498
632,0.308,-0.903,0.063,0.024,-1.091,0.282,0.415,-0.085,-0.486
633,0.374,-1.148,-0.043,-0.234,-0.744,0.328,0.4,-0.109,-0.483
634,0.483,-1.278,-0.038,-0.096,-0.771,0.151,0.4,-0.109,-0.483
635,0.66,-1.369,0.098,0.332,-0.925,-0.101,0.397,-0.111,-0.465
636,0.774,-1.275,0.179,0.328,-0.811,-0.09,0.39,-0.094,-0.457
637,0.785,-0.952,0.163,0.328,-0.811,-0.09,0.385,-0.102,-0.435
638,0.793,-0.588,0.121,0.295,-0.746,-0.073,0.376,-0.105,-0.435
639,0.718,-0.406,0.021,0.282,-0.807,-0.052,0.381,-0.097,-0.412
640,0.592,-0.381,-0.085,0.25,-0.893,0.017,0.36,-0.12,-0.402
641,0.47,-0.427,-0.148,0.176,-0.907,0.096,0.358,-0.124,-0.394
642,0.446,-0.412,-0.195,0.156,-0.871,0.1,0.349,-0.123,-0.372
643,0.537,-0.353,-0.233,0.158,-0.821,0.044,0.37,-0.121,-0.357
644,0.627,-0.307,-0.268,0.188,-0.82,-0.008,0.376,-0.148,-0.378
645,0.668,-0.23,-0.332,0.171,-0.826,0.019,0.367,-0.142,-0.372
646,0.622,-0.256,-0.371,0.115,-0.84,0.113,0.367,-0.138,-0.358
647,0.55,-0.345,-0.378,0.109,-0.893,0.182,0.379,-0.136,-0.355
648,0.461,-0.429,-0.341,0.171,-0.946,0.161,0.372,-0.16,-0.331
649,0.363,-0.499,-0.248,0.248,-1.019,0.124,0.39,-0.153,-0.324
650,0.214,-0.421,-0.195,0.248,-1.103,0.167,0.39,-0.153,-0.324
651,0.19,-0.198,-0.177,0.261,-1.123,0.15,0.405,-0.15,-0.307
652,0.12,-0.132,-0.208,0.248,-1.108,0.132,0.384,-0.144,-0.327
653,-0.08,-0.126,-0.273,0.378,-1.208,0.144,0.394,-0.147,-0.319
654,-0.258,0.085,-0.039,0.474,-1.243,0.002,0.37,-0.15,-0.33
655,-0.585,0.419,-0.002,0.474,-1.243,0.002,0.387,-0.166,-0.333
656,-1.005,0.767,0.022,0.481,-1.267,-0.13,0.393,-0.16,-0.345
657,-1.264,0.968,0.135,0.352,-1.334,-0.274,0.405,-0.156,-0.346
658,-1.288,0.998,0.233,0.078,-1.35,-0.228,0.406,-0.144,-0.352
659,-1.295,0.684,0.294,-0.081,-1.315,-0.153,0.396,-0.13,-0.375
660,-1.363,0.247,0.24,-0.138,-1.317,-0.065,0.391,-0.147,-0.403
661,-1.485,-0.112,0.11,-0.212,-1.286,0.027,0.385,-0.129,-0.417
662,-1.061,-0.233,0.048,-0.204,-1.168,0.078,0.381,-0.127,-0.429
663,-0.989,0.452,0.139,-0.04,-1.041,-0.051,0.384,-0.103,-0.441
664,-1.256,1.121,0.228,0.221,-1.061,-0.164,0.4,-0.09,-0.435
665,-1.346,1.401,0.154,0.343,-1.143,-0.031,0.391,-0.123,-0.49
666,-1.254,1.568,0.011,0.162,-1.019,0.021,0.394,-0.079,-0.474
667,-0.968,1.456,0.023,-0.086,-0.772,0.065,0.414,-0.064,-0.513
668,-0.765,1.245,0.126,-0.175,-0.691,0.21,0.427,-0.084,-0.537
669,-0.577,1.232,0.131,-0.139,-0.74,0.214,0.427,-0.084,-0.537
670,-0.263,1.125,0.058,-0.138,-0.54,0.141,0.424,-0.075,-0.54
671,0.053,0.846,0.03,-0.08,-0.509,0.182,0.441,-0.046,-0.559
672,0.337,0.513,0.04,-0.08,-0.509,0.182,0.441,-0.046,-0.559
673,0.453,0.314,0.063,-0.027,-0.522,0.228,0.447,-0.055,-0.567
674,0.468,0.317,0.088,-0.044,-0.521,0.308,0.451,-0.06,-0.549
675,0.614,0.344,0.095,-0.095,-0.502,0.389,0.456,-0.06,-0.537
676,0.758,0.31,0.101,-0.074,-0.459,0.42,0.484,-0.067,-0.534
677,0.76,0.279,0.171,0.013,-0.536,0.461,0.459,-0.055,-0.547
678,0.658,0.245,0.268,0.071,-0.757,0.581,0.474,-0.067,-0.537
679,0.347,0.318,0.275,0.045,-0.994,0.753,0.474,-0.093,-0.546
680,-0.145,0.076,0.315,0.055,-1.327,0.978,0.466,-0.079,-0.516
681,-0.072,-0.055,0.301,0.061,-1.544,0.875,0.468,-0.096,-0.549
682,-0.198,0.694,0.081,-0.069,-1.439,0.645,0.475,-0.085,-0.538
683,-0.192,1.143,-0.108,-0.208,-0.935,0.733,0.475,-0.085,-0.538
684,-0.135,0.514,0.032,-0.252,-0.572,0.754,0.478,-0.069,-0.537
685,-0.035,-0.35,0.019,-0.185,-1.054,0.393,0.495,-0.051,-0.547
686,-0.18,-0.149,0.072,-0.146,-1.687,0.021,0.504,-0.051,-0.556
687,-0.114,-0.175,-0.07,-0.144,-1.363,0.021,0.501,-0.067,-0.538
688,-0.326,-0.013,-0.165,-0.13,-0.71,0.089,0.505,-0.07,-0.556
689,0.26,-0.634,-0.012,0.162,-0.832,-0.07,0.489,-0.057,-0.559
690,0.73,-1.211,0.063,0.162,-0.832,-0.07,0.483,-0.06,-0.564
691,0.539,-0.758,0.196,0.308,-1.098,-0.284,0.471,-0.052,-0.531
692,0.485,-0.469,0.324,0.312,-1.313,-0.125,0.45,-0.079,-0.546
693,0.492,-0.7,0.293,0.11,-1.095,0.197,0.468,-0.051,-0.534
694,0.508,-1.007,0.247,-0.1,-0.842,0.373,0.445,-0.06,-0.534
695,0.574,-1.225,0.215,-0.115,-0.811,0.306,0.441,-0.073,-0.523
696,0.795,-1.159,0.261,0.03,-0.826,0.092,0.411,-0.082,-0.522
697,0.787,-0.965,0.231,0.254,-0.878,-0.166,0.411,-0.082,-0.522
698,0.759,-0.746,0.201,0.328,-0.858,-0.133,0.429,-0.072,-0.511
699,0.732,-0.424,0.152,0.284,-0.802,0.009,0.396,-0.082,-0.499
700,0.695,-0.253,0.088,0.238,-0.832,0.0,0.391,-0.084,-0.493
701,0.608,-0.308,-0.015,0.178,-0.855,0.056,0.411,-0.087,-0.49
702,0.5,-0.356,-0.099,0.154,-0.882,0.082,0.388,-0.099,-0.489
703,0.525,-0.354,-0.137,0.154,-0.903,0.077,0.4,-0.087,-0.474
704,0.567,-0.324,-0.182,0.159,-0.875,0.077,0.379,-0.106,-0.459
705,0.613,-0.343,-0.246,0.168,-0.868,0.093,0.4,-0.118,-0.448
706,0.639,-0.297,-0.289,0.169,-0.844,0.077,0.396,-0.118,-0.459
707,0.622,-0.276,-0.318,0.169,-0.844,0.077,0.408,-0.114,-0.439
708,0.581,-0.287,-0.336,0.168,-0.865,0.101,0.396,-0.138,-0.426
709,0.504,-0.344,-0.299,0.212,-0.947,0.129,0.414,-0.138,-0.432
710,0.38,-0.417,-0.219,0.248,-1.017,0.135,0.403,-0.139,-0.423
711,0.239,-0.389,-0.179,0.252,-1.051,0.112,0.403,-0.139,-0.423
712,0.196,-0.268,-0.191,0.253,-1.053,0.064,0.402,-0.124,-0.406
713,0.152,-0.256,-0.2,0.193,-1.049,0.1,0.409,-0.142,-0.408
714,0.015,-0.297,-0.185,0.161,-1.119,0.226,0.394,-0.138,-0.426
715,-0.189,-0.279,-0.165,0.245,-1.132,0.258,0.409,-0.148,-0.403
716,-0.368,0.002,-0.133,0.384,-1.111,0.094,0.403,-0.141,-0.4
717,-0.671,0.425,-0.119,0.509,-1.209,-0.056,0.423,-0.145,-0.399
718,-1.13,0.703,-0.097,0.475,-1.273,-0.145,0.415,-0.157,-0.429
719,-1.377,0.942,0.03,0.176,-1.289,-0.162,0.424,-0.157,-0.424
720,-1.352,1.012,0.205,-0.103,-1.293,-0.119,0.423,-0.153,-0.444
721,-1.432,0.542,0.254,-0.163,-1.314,-0.029,0.439,-0.117,-0.477
722,-1.444,-0.075,0.165,-0.164,-1.387,0.134,0.436,-0.111,-0.492
723,-1.482,-0.418,0.039,-0.137,-1.245,0.075,0.424,-0.097,-0.504
724,-1.127,-0.28,0.1,-0.137,-1.245,0.075,0.429,-0.09,-0.523
725,-1.046,0.335,0.193,0.012,-1.087,-0.136,0.429,-0.09,-0.523
726,-1.226,0.95,0.277,0.26,-1.066,-0.203,0.43,-0.094,-0.54
727,-1.26,1.338,0.116,0.271,-1.07,-0.051,0.432,-0.082,-0.555
728,-1.139,1.375,-0.007,0.074,-0.928,0.02,0.459,-0.064,-0.549
729,-0.899,1.194,-0.011,-0.061,-0.798,0.163,0.477,-0.043,-0.589
730,-0.732,1.171,0.057,-0.123,-0.757,0.265,0.469,-0.027,-0.589
731,-0.543,1.11,0.048,-0.108,-0.77,0.193,0.49,-0.018,-0.597
732,-0.295,0.977,-0.006,-0.142,-0.672,0.172,0.498,-0.034,-0.6
733,0.036,0.693,0.001,-0.187,-0.557,0.168,0.516,-0.018,-0.609
734,0.39,0.375,0.037,-0.174,-0.5,0.175,0.535,0.0,-0.597
735,0.55,0.161,0.058,-0.134,-0.479,0.253,0.525,-0.018,-0.589
736,0.517,0.128,0.062,-0.075,-0.53,0.332,0.526,-0.025,-0.579
737,0.555,0.158,0.058,-0.047,-0.561,0.377,0.522,-0.033,-0.574
738,0.697,0.132,0.076,-0.046,-0.554,0.438,0.534,-0.04,-0.6
739,0.745,0.121,0.142,-0.007,-0.619,0.52,0.534,-0.04,-0.6
740,0.588,0.18,0.267,0.046,-0.783,0.596,0.544,-0.06,-0.582
741,0.317,0.27,0.355,0.099,-1.067,0.85,0.544,-0.06,-0.582
742,0.043,0.198,0.334,0.037,-1.167,0.831,0.544,-0.079,-0.573
743,0.036,-0.016,0.352,0.037,-1.167,0.831,0.541,-0.054,-0.559
744,0.092,0.194,0.274,-0.06,-1.196,0.661,0.541,-0.073,-0.57
745,-0.133,0.828,0.035,-0.111,-1.002,0.633,0.528,-0.07,-0.582
746,-0.184,0.747,-0.021,-0.188,-0.713,0.72,0.544,-0.064,-0.556
747,0.077,-0.317,0.052,-0.219,-1.027,0.54,0.559,-0.061,-0.579
748,-0.251,0.106,0.016,-0.259,-1.735,0.156,0.543,-0.066,-0.573
749,-0.102,-0.151,-0.059,-0.234,-1.497,0.179,0.54,-0.052,-0.559
750,-0.381,-0.143,-0.195,-0.243,-0.689,0.113,0.526,-0.064,-0.591
751,-0.046,-0.464,0.009,-0.148,-0.583,0.014,0.54,-0.061,-0.589
752,0.769,-1.392,0.117,0.101,-0.794,0.045,0.532,-0.054,-0.573
753,0.595,-0.992,0.142,0.206,-1.034,-0.206,0.516,-0.049,-0.562
754,0.327,-0.455,0.257,0.259,-1.394,-0.102,0.49,-0.09,-0.582
755,0.411,-0.671,0.217,0.1,-1.236,0.25,0.477,-0.084,-0.562
756,0.466,-0.959,0.119,-0.148,-0.808,0.362,0.477,-0.084,-0.562
757,0.506,-1.091,0.11,-0.133,-0.735,0.232,0.475,-0.079,-0.564
758,0.496,-1.145,0.123,0.287,-0.925,-0.065,0.484,-0.088,-0.55
759,0.662,-1.106,0.154,0.335,-0.837,-0.112,0.46,-0.091,-0.532
760,0.798,-1.012,0.188,0.335,-0.837,-0.112,0.456,-0.079,-0.528
761,0.791,-0.616,0.161,0.292,-0.757,-0.037,0.424,-0.1,-0.516
762,0.723,-0.333,0.102,0.305,-0.791,-0.047,0.451,-0.114,-0.528
763,0.655,-0.294,0.028,0.224,-0.872,0.036,0.414,-0.102,-0.498
764,0.59,-0.322,-0.053,0.141,-0.874,0.094,0.408,-0.123,-0.489
765,0.538,-0.405,-0.102,0.099,-0.867,0.111,0.409,-0.136,-0.496
766,0.542,-0.374,-0.162,0.12,-0.885,0.128,0.406,-0.124,-0.472
767,0.594,-0.303,-0.221,0.175,-0.884,0.058,0.406,-0.141,-0.456
768,0.69,-0.29,-0.273,0.189,-0.855,0.03,0.427,-0.121,-0.457
769,0.754,-0.252,-0.317,0.17,-0.825,0.066,0.388,-0.151,-0.444
770,0.711,-0.282,-0.34,0.161,-0.861,0.095,0.397,-0.154,-0.456
771,0.601,-0.34,-0.313,0.215,-0.954,0.139,0.397,-0.162,-0.426
772,0.459,-0.392,-0.24,0.272,-1.008,0.139,0.402,-0.154,-0.427
773,0.304,-0.39,-0.152,0.276,-1.022,0.112,0.402,-0.154,-0.427
774,0.22,-0.278,-0.126,0.283,-1.056,0.101,0.4,-0.175,-0.402
775,0.194,-0.189,-0.158,0.234,-1.047,0.112,0.412,-0.162,-0.424
776,0.14,-0.303,-0.16,0.121,-1.1,0.295,0.421,-0.178,-0.408
777,-0.086,-0.35,-0.192,0.121,-1.1,0.295,0.403,-0.178,-0.406
778,-0.297,-0.277,-0.137,0.241,-1.052,0.226,0.384,-0.174,-0.396
779,-0.49,0.109,-0.119,0.409,-1.118,-0.009,0.406,-0.189,-0.409
780,-0.809,0.595,-0.056,0.571,-1.282,-0.159,0.396,-0.174,-0.406
781,-1.216,0.811,-0.037,0.456,-1.329,-0.255,0.429,-0.174,-0.411
782,-1.374,1.086,0.06,-0.029,-1.323,-0.246,0.414,-0.181,-0.418
783,-1.394,0.918,0.135,-0.318,-1.298,-0.176,0.427,-0.178,-0.433
784,-1.426,0.121,0.149,-0.271,-1.337,0.069,0.411,-0.159,-0.459
785,-1.45,-0.342,0.025,-0.162,-1.382,0.223,0.436,-0.142,-0.474
786,-1.519,-0.302,-0.081,-0.137,-1.29,0.085,0.423,-0.144,-0.496
787,-1.197,-0.044,-0.07,-0.132,-1.166,0.022,0.435,-0.114,-0.523
788,-1.126,0.412,0.047,-0.006,-1.073,0.02,0.405,-0.115,-0.504
789,-1.182,0.706,0.047,0.193,-1.047,-0.012,0.405,-0.115,-0.529
790,-1.196,1.134,-0.008,0.161,-1.036,0.046,0.423,-0.105,-0.546
791,-0.985,1.144,-0.012,0.032,-0.925,0.083,0.441,-0.087,-0.559
792,-0.711,0.917,0.025,-0.018,-0.772,0.202,0.463,-0.064,-0.576
793,-0.585,0.947,0.072,-0.062,-0.734,0.272,0.451,-0.064,-0.579
794,-0.447,0.941,0.068,-0.076,-0.757,0.202,0.483,-0.054,-0.592
795,-0.285,0.857,0.018,-0.176,-0.585,0.174,0.483,-0.054,-0.592
796,0.004,0.611,0.002,-0.176,-0.585,0.174,0.481,-0.072,-0.589
797,0.366,0.268,0.068,-0.203,-0.506,0.194,0.474,-0.052,-0.58
798,0.553,0.048,0.133,-0.156,-0.528,0.277,0.465,-0.058,-0.6
799,0.573,0.028,0.14,-0.089,-0.553,0.346,0.475,-0.082,-0.58
800,0.624,0.06,0.122,-0.042,-0.522,0.385,0.487,-0.073,-0.591
801,0.682,0.049,0.125,0.018,-0.528,0.447,0.481,-0.07,-0.565
802,0.667,0.063,0.158,0.075,-0.622,0.494,0.502,-0.087,-0.579
803,0.55,0.165,0.253,0.102,-0.796,0.529,0.48,-0.066,-0.571
804,0.376,0.27,0.35,0.066,-1.002,0.665,0.481,-0.096,-0.568
805,0.085,0.281,0.335,0.035,-1.114,0.787,0.477,-0.106,-0.565
806,-0.035,0.018,0.345,0.018,-1.172,0.792,0.484,-0.099,-0.546
807,0.094,0.065,0.306,-0.044,-1.296,0.731,0.489,-0.106,-0.553
808,-0.073,0.66,0.102,-0.096,-1.168,0.68,0.489,-0.106,-0.553
809,-0.144,0.902,0.004,-0.138,-0.719,0.697,0.466,-0.099,-0.558
810,0.091,0.093,0.16,-0.165,-0.634,0.595,0.483,-0.112,-0.556
811,0.129,-0.493,0.16,-0.154,-1.785,0.041,0.486,-0.114,-0.568
812,-0.215,-0.18,0.107,-0.147,-1.511,0.207,0.477,-0.12,-0.564
813,-0.147,-0.333,-0.084,-0.147,-1.511,0.207,0.48,-0.117,-0.568
814,-0.238,-0.209,-0.261,-0.159,-0.843,0.151,0.471,-0.121,-0.556
815,0.093,-0.514,-0.156,-0.133,-0.632,0.086,0.466,-0.117,-0.573
816,0.507,-0.941,-0.018,0.141,-0.766,0.034,0.46,-0.115,-0.582
817,0.576,-0.699,0.11,0.29,-0.983,-0.223,0.441,-0.126,-0.549
818,0.494,-0.48,0.235,0.285,-1.161,-0.14,0.453,-0.108,-0.543
819,0.312,-0.567,0.156,0.125,-1.081,0.184,0.427,-0.12,-0.522
820,0.274,-0.733,0.046,-0.116,-0.903,0.419,0.421,-0.127,-0.517
821,0.243,-0.813,0.011,-0.155,-0.84,0.364,0.412,-0.142,-0.544
822,0.438,-0.933,0.102,0.039,-0.906,0.114,0.418,-0.13,-0.532
823,0.546,-0.938,0.177,0.235,-0.917,-0.065,0.394,-0.132,-0.501
824,0.633,-0.796,0.221,0.319,-0.877,-0.07,0.394,-0.132,-0.501
825,0.612,-0.441,0.17,0.33,-0.859,-0.017,0.399,-0.141,-0.526
826,0.562,-0.228,0.084,0.268,-0.836,0.005,0.393,-0.145,-0.499
827,0.496,-0.241,0.009,0.174,-0.838,0.072,0.39,-0.153,-0.466
828,0.433,-0.301,-0.044,0.15,-0.871,0.103,0.367,-0.171,-0.459
829,0.424,-0.301,-0.083,0.117,-0.933,0.117,0.387,-0.168,-0.457
830,0.43,-0.304,-0.128,0.117,-0.933,0.117,0.384,-0.184,-0.477
831,0.437,-0.31,-0.175,0.141,-0.899,0.104,0.382,-0.198,-0.463
832,0.448,-0.266,-0.228,0.169,-0.856,0.063,0.384,-0.18,-0.453
833,0.474,-0.244,-0.267,0.173,-0.862,0.056,0.379,-0.198,-0.432
834,0.477,-0.289,-0.273,0.158,-0.883,0.121,0.391,-0.199,-0.409
835,0.476,-0.325,-0.259,0.167,-0.903,0.129,0.384,-0.204,-0.429
836,0.445,-0.331,-0.245,0.19,-0.908,0.081,0.39,-0.211,-0.415
837,0.399,-0.336,-0.207,0.184,-0.906,0.07,0.39,-0.217,-0.397
838,0.32,-0.272,-0.158,0.171,-0.962,0.068,0.39,-0.217,-0.397
839,0.218,-0.193,-0.125,0.184,-1.027,0.079,0.394,-0.226,-0.391
840,0.082,-0.087,-0.102,0.199,-1.045,0.101,0.394,-0.207,-0.394
841,-0.006,-0.07,-0.089,0.194,-1.049,0.137,0.376,-0.232,-0.379
842,-0.065,-0.086,-0.093,0.202,-1.017,0.166,0.375,-0.229,-0.39
843,-0.141,-0.063,-0.088,0.249,-0.944,0.118,0.384,-0.225,-0.393
844,-0.273,0.121,-0.074,0.301,-0.995,0.053,0.405,-0.223,-0.385
845,-0.46,0.494,-0.038,0.362,-1.159,-0.061,0.402,-0.235,-0.387
846,-0.756,0.706,-0.011,0.109,-1.322,-0.246,0.406,-0.226,-0.39
847,-0.969,0.798,0.083,-0.165,-1.402,-0.188,0.393,-0.243,-0.411
848,-0.988,0.737,0.182,-0.165,-1.402,-0.188,0.394,-0.229,-0.441
849,-0.98,0.308,0.201,-0.244,-1.283,-0.041,0.415,-0.231,-0.463
850,-0.941,0.038,0.109,-0.151,-1.192,0.036,0.406,-0.217,-0.481
851,-0.896,-0.161,0.0,-0.031,-1.195,-0.034,0.397,-0.202,-0.496
852,-0.837,-0.357,-0.064,0.009,-1.165,-0.025,0.403,-0.196,-0.486
853,-0.889,-0.135,-0.138,-0.032,-1.143,0.056,0.408,-0.214,-0.484
854,-0.875,0.486,-0.213,-0.056,-1.081,-0.083,0.408,-0.214,-0.484
855,-0.822,0.756,-0.272,-0.096,-0.944,-0.206,0.402,-0.199,-0.498
856,-0.797,0.63,-0.287,-0.132,-0.881,-0.065,0.415,-0.201,-0.529
857,-0.655,0.405,-0.223,-0.1,-0.945,0.1,0.417,-0.193,-0.531
858,-0.424,0.275,-0.176,-0.057,-0.976,0.197,0.417,-0.172,-0.547
859,-0.279,0.275,-0.172,-0.029,-0.937,0.219,0.42,-0.177,-0.549
860,-0.129,0.346,-0.178,-0.027,-0.871,0.175,0.43,-0.175,-0.549
861,0.051,0.4,-0.171,-0.083,-0.777,0.122,0.451,-0.186,-0.564
862,0.214,0.356,-0.109,-0.111,-0.73,0.139,0.444,-0.178,-0.546
863,0.428,0.256,-0.011,-0.063,-0.756,0.234,0.463,-0.181,-0.564
864,0.609,0.186,0.072,0.007,-0.804,0.387,0.462,-0.198,-0.562
865,0.576,0.172,0.137,0.007,-0.804,0.387,0.475,-0.18,-0.558
866,0.431,0.148,0.2,0.079,-0.867,0.406,0.462,-0.199,-0.564
867,0.385,0.124,0.219,0.109,-0.877,0.333,0.466,-0.195,-0.561
868,0.44,0.106,0.177,0.015,-0.824,0.204,0.466,-0.195,-0.561
869,0.513,0.079,0.116,-0.085,-0.836,0.114,0.438,-0.21,-0.523
870,0.441,0.194,0.065,-0.114,-0.917,0.078,0.442,-0.199,-0.526
871,0.392,0.214,0.012,-0.107,-0.973,0.13,0.445,-0.201,-0.517
872,0.417,0.049,-0.03,-0.101,-0.944,0.174,0.441,-0.214,-0.519
873,0.438,0.03,-0.005,-0.172,-0.899,0.085,0.459,-0.213,-0.529
874,0.497,-0.238,0.111,-0.145,-1.071,0.03,0.45,-0.229,-0.519
875,0.6,-0.545,0.226,-0.01,-1.255,0.097,0.465,-0.232,-0.519
876,0.431,-0.511,0.163,0.056,-1.198,0.134,0.448,-0.217,-0.483
877,0.182,-0.128,-0.023,0.0,-1.02,0.13,0.445,-0.21,-0.492
878,0.091,0.169,-0.11,-0.036,-0.876,0.073,0.439,-0.231,-0.471
879,0.112,0.187,-0.084,0.057,-0.876,0.018,0.45,-0.225,-0.472
880,0.184,0.128,-0.012,0.103,-0.922,0.028,0.441,-0.252,-0.466
881,0.244,0.1,0.055,0.1,-0.949,0.039,0.45,-0.234,-0.474
882,0.259,0.06,0.102,0.111,-0.993,0.084,0.45,-0.234,-0.474
883,0.229,0.034,0.116,0.111,-0.993,0.084,0.436,-0.234,-0.475
884,0.191,0.049,0.09,0.089,-0.99,0.09,0.436,-0.234,-0.475
885,0.144,0.168,0.03,0.044,-0.979,0.062,0.438,-0.225,-0.459
886,0.102,0.163,0.004,-0.007,-0.998,0.05,0.438,-0.235,-0.444
887,0.056,0.128,0.002,-0.001,-1.027,0.046,0.435,-0.243,-0.463
888,0.03,0.091,0.011,0.041,-1.025,0.051,0.453,-0.25,-0.469
889,0.023,0.056,0.02,0.048,-1.005,0.064,0.418,-0.225,-0.451
890,0.027,0.027,0.023,0.041,-0.991,0.068,0.435,-0.22,-0.462
891,0.048,0.002,0.028,0.042,-0.991,0.079,0.448,-0.247,-0.454
892,0.07,-0.018,0.033,0.058,-0.991,0.078,0.433,-0.228,-0.441
893,0.084,-0.026,0.031,0.07,-0.979,0.063,0.447,-0.256,-0.475
894,0.088,-0.029,0.033,0.077,-0.975,0.041,0.444,-0.246,-0.48
895,0.083,-0.032,0.038,0.086,-0.979,0.038,0.448,-0.241,-0.444
896,0.077,-0.025,0.037,0.092,-0.98,0.048,0.448,-0.241,-0.444
897,0.069,-0.004,0.028,0.089,-0.984,0.043,0.432,-0.234,-0.474
898,0.056,0.015,0.018,0.08,-0.99,0.033,0.426,-0.235,-0.469
899,0.046,0.005,0.009,0.065,-0.987,0.042,0.426,-0.235,-0.469
900,0.041,0.001,-0.001,0.059,-0.975,0.038,0.433,-0.226,-0.454
901,0.035,0.0,-0.008,0.059,-0.975,0.038,0.43,-0.235,-0.478
902,0.035,-0.016,-0.004,0.069,-0.977,0.042,0.444,-0.237,-0.456
903,0.038,-0.034,0.003,0.081,-0.985,0.045,0.439,-0.246,-0.453
904,0.032,-0.041,0.002,0.081,-0.991,0.044,0.448,-0.258,-0.462
905,0.024,-0.045,-0.004,0.075,-0.992,0.044,0.435,-0.229,-0.451
906,0.014,-0.041,-0.016,0.07,-0.982,0.047,0.442,-0.267,-0.433
907,0.014,-0.032,-0.021,0.067,-0.978,0.048,0.427,-0.253,-0.451
908,0.02,-0.034,-0.016,0.069,-0.982,0.046,0.43,-0.243,-0.453
909,0.018,-0.046,-0.013,0.078,-0.983,0.048,0.43,-0.243,-0.453
910,0.013,-0.053,-0.012,0.084,-0.981,0.053,0.445,-0.232,-0.457
911,0.014,-0.047,-0.015,0.077,-0.979,0.051,0.421,-0.235,-0.444
912,0.018,-0.046,-0.018,0.07,-0.983,0.05,0.43,-0.261,-0.46
913,0.016,-0.062,-0.017,0.07,-0.985,0.055,0.441,-0.235,-0.457
914,0.013,-0.06,-0.023,0.08,-0.984,0.053,0.441,-0.234,-0.459
915,0.002,-0.039,-0.036,0.081,-0.981,0.048,0.444,-0.229,-0.432
916,0.0,-0.032,-0.042,0.081,-0.981,0.051,0.441,-0.237,-0.453
917,0.0,-0.036,-0.04,0.088,-0.982,0.061,0.444,-0.237,-0.465
918,0.005,-0.032,-0.038,0.088,-0.982,0.061,0.438,-0.256,-0.441
919,0.009,-0.032,-0.035,0.082,-0.981,0.056,0.432,-0.241,-0.448
920,0.01,-0.021,-0.032,0.081,-0.979,0.052,0.448,-0.226,-0.445
921,0.008,-0.007,-0.032,0.076,-0.976,0.053,0.43,-0.246,-0.451
922,0.009,-0.007,-0.03,0.071,-0.981,0.059,0.448,-0.249,-0.447
923,0.005,-0.024,-0.027,0.072,-0.981,0.063,0.442,-0.234,-0.445
924,0.0,-0.033,-0.027,0.066,-0.981,0.061,0.442,-0.234,-0.445
925,0.002,-0.037,-0.029,0.059,-0.981,0.059,0.436,-0.237,-0.46
926,0.004,-0.03,-0.032,0.056,-0.98,0.056,0.436,-0.255,-0.442
927,0.005,-0.029,-0.033,0.054,-0.979,0.048,0.423,-0.252,-0.465
928,0.007,-0.039,-0.03,0.055,-0.976,0.044,0.432,-0.244,-0.441
929,0.013,-0.052,-0.025,0.058,-0.98,0.044,0.436,-0.246,-0.454
930,0.014,-0.056,-0.027,0.07,-0.988,0.054,0.45,-0.25,-0.45
931,0.014,-0.044,-0.032,0.068,-0.986,0.052,0.442,-0.241,-0.433
932,0.009,-0.03,-0.037,0.056,-0.979,0.036,0.433,-0.261,-0.46
933,0.007,-0.026,-0.037,0.055,-0.978,0.034,0.438,-0.247,-0.42
934,0.003,-0.024,-0.037,0.052,-0.983,0.043,0.42,-0.25,-0.454
935,0.002,-0.027,-0.037,0.052,-0.983,0.045,0.429,-0.256,-0.459
936,0.003,-0.018,-0.038,0.052,-0.983,0.045,0.432,-0.252,-0.45
937,0.001,-0.011,-0.042,0.05,-0.979,0.043,0.441,-0.256,-0.453
938,0.0,-0.011,-0.045,0.048,-0.979,0.039,0.451,-0.262,-0.436
939,0.0,-0.011,-0.047,0.043,-0.98,0.035,0.426,-0.244,-0.43
940,0.001,-0.013,-0.045,0.042,-0.981,0.037,0.435,-0.246,-0.436
941,0.004,-0.01,-0.044,0.043,-0.983,0.038,0.441,-0.244,-0.438
942,0.007,-0.009,-0.042,0.04,-0.982,0.036,0.441,-0.244,-0.438
943,0.007,-0.004,-0.042,0.04,-0.981,0.036,0.421,-0.255,-0.441
944,0.002,-0.002,-0.044,0.042,-0.98,0.038,0.441,-0.243,-0.453
945,0.002,-0.008,-0.043,0.041,-0.983,0.043,0.436,-0.234,-0.451
946,0.002,-0.012,-0.039,0.039,-0.985,0.045,0.433,-0.249,-0.462
947,0.001,-0.016,-0.036,0.036,-0.983,0.047,0.438,-0.25,-0.448
948,0.003,-0.018,-0.036,0.034,-0.979,0.051,0.43,-0.255,-0.46
949,0.004,-0.016,-0.035,0.03,-0.976,0.048,0.451,-0.256,-0.441
950,0.006,-0.016,-0.033,0.027,-0.978,0.047,0.441,-0.234,-0.45
951,0.007,-0.021,-0.032,0.027,-0.979,0.05,0.45,-0.244,-0.451
952,0.01,-0.028,-0.032,0.034,-0.98,0.05,0.429,-0.237,-0.442
953,0.01,-0.026,-0.032,0.034,-0.98,0.05,0.447,-0.246,-0.435
954,0.007,-0.026,-0.03,0.035,-0.978,0.046,0.454,-0.246,-0.45
955,0.006,-0.021,-0.026,0.034,-0.978,0.042,0.42,-0.27,-0.442
956,0.007,-0.02,-0.023,0.034,-0.984,0.041,0.42,-0.27,-0.442
957,0.007,-0.024,-0.021,0.034,-0.985,0.047,0.45,-0.226,-0.435
958,0.005,-0.025,-0.021,0.032,-0.986,0.046,0.453,-0.27,-0.429
959,0.003,-0.024,-0.02,0.032,-0.985,0.043,0.445,-0.243,-0.42
960,0.004,-0.023,-0.021,0.031,-0.981,0.044,0.445,-0.253,-0.441
961,0.003,-0.02,-0.023,0.028,-0.98,0.046,0.433,-0.243,-0.411
962,0.007,-0.021,-0.023,0.027,-0.984,0.044,0.451,-0.268,-0.432
963,0.011,-0.019,-0.021,0.026,-0.985,0.042,0.43,-0.249,-0.442
964,0.01,-0.015,-0.021,0.024,-0.981,0.043,0.435,-0.259,-0.433
965,0.01,-0.014,-0.018,0.025,-0.98,0.042,0.433,-0.252,-0.436
966,0.011,-0.014,-0.016,0.028,-0.981,0.041,0.448,-0.241,-0.436
967,0.011,-0.009,-0.016,0.03,-0.983,0.04,0.43,-0.258,-0.432
968,0.009,-0.002,-0.018,0.029,-0.981,0.041,0.445,-0.261,-0.438
969,0.007,-0.006,-0.018,0.027,-0.979,0.044,0.445,-0.261,-0.438
970,0.006,-0.007,-0.016,0.031,-0.985,0.042,0.445,-0.241,-0.43
971,0.007,-0.007,-0.013,0.031,-0.985,0.042,0.436,-0.259,-0.445
972,0.007,-0.002,-0.013,0.027,-0.988,0.035,0.447,-0.262,-0.447
973,0.005,0.0,-0.014,0.024,-0.983,0.036,0.426,-0.261,-0.435
974,0.005,0.0,-0.015,0.022,-0.981,0.039,0.426,-0.261,-0.435
975,0.005,0.0,-0.014,0.02,-0.983,0.039,0.444,-0.252,-0.436
976,0.004,0.0,-0.013,0.022,-0.983,0.035,0.448,-0.258,-0.45
977,0.004,0.004,-0.012,0.021,-0.982,0.033,0.444,-0.25,-0.451
978,0.004,0.002,-0.011,0.017,-0.984,0.034,0.436,-0.231,-0.445
979,0.003,0.001,-0.012,0.02,-0.986,0.037,0.448,-0.255,-0.432
980,0.002,0.005,-0.015,0.02,-0.986,0.037,0.444,-0.24,-0.444
981,0.003,0.004,-0.016,0.018,-0.982,0.033,0.456,-0.249,-0.441
982,0.005,0.0,-0.014,0.02,-0.979,0.035,0.444,-0.277,-0.427
983,0.007,-0.001,-0.011,0.023,-0.979,0.035,0.444,-0.277,-0.427
984,0.008,-0.002,-0.011,0.026,-0.981,0.036,0.441,-0.246,-0.439
985,0.009,-0.003,-0.01,0.024,-0.981,0.037,0.448,-0.261,-0.441
986,0.008,-0.001,-0.011,0.021,-0.983,0.035,0.444,-0.267,-0.441
987,0.005,-0.003,-0.013,0.024,-0.985,0.04,0.429,-0.237,-0.435
988,0.004,-0.009,-0.011,0.025,-0.983,0.038,0.445,-0.27,-0.43
989,0.007,-0.007,-0.008,0.025,-0.983,0.038,0.435,-0.25,-0.454
990,0.007,-0.003,-0.009,0.026,-0.981,0.036,0.45,-0.262,-0.441
991,0.007,-0.007,-0.009,0.024,-0.979,0.039,0.439,-0.264,-0.442
992,0.003,-0.001,-0.014,0.025,-0.978,0.039,0.435,-0.253,-0.447
993,0.0,0.001,-0.016,0.028,-0.98,0.037,0.456,-0.246,-0.463
994,0.0,0.002,-0.013,0.028,-0.98,0.038,0.453,-0.274,-0.447
995,0.003,-0.004,-0.007,0.026,-0.98,0.04,0.453,-0.274,-0.447
996,0.005,-0.008,-0.007,0.025,-0.98,0.04,0.444,-0.255,-0.438
997,0.007,-0.011,-0.007,0.03,-0.986,0.035,0.46,-0.255,-0.442
998,0.006,-0.01,-0.008,0.029,-0.989,0.034,0.444,-0.249,-0.46
999,0.004,-0.007,-0.01,0.028,-0.986,0.033,0.439,-0.262,-0.454
1000,-0.001,-0.006,-0.009,0.03,-0.983,0.034,0.445,-0.249,-0.433
1001,-0.004,-0.011,-0.005,0.032,-0.984,0.038,0.433,-0.243,-0.433
1002,-0.005,-0.01,-0.005,0.034,-0.988,0.036,0.454,-0.255,-0.438
1003,-0.007,-0.011,-0.006,0.033,-0.989,0.035,0.445,-0.261,-0.439
1004,-0.011,-0.009,-0.008,0.028,-0.986,0.035,0.457,-0.249,-0.463
1005,-0.012,-0.009,-0.008,0.03,-0.981,0.036,0.448,-0.258,-0.418
1006,-0.013,-0.005,-0.007,0.03,-0.981,0.036,0.435,-0.247,-0.447
1007,-0.01,-0.009,-0.007,0.032,-0.983,0.036,0.429,-0.262,-0.436
1008,-0.009,-0.009,-0.009,0.031,-0.983,0.034,0.442,-0.264,-0.438
1009,-0.01,-0.005,-0.012,0.029,-0.982,0.036,0.442,-0.264,-0.438
1010,-0.009,-0.002,-0.013,0.03,-0.983,0.037,0.454,-0.258,-0.445
1011,-0.008,-0.005,-0.01,0.03,-0.982,0.038,0.43,-0.256,-0.432
1012,-0.005,-0.009,-0.007,0.031,-0.986,0.041,0.433,-0.255,-0.436
1013,-0.005,-0.008,-0.009,0.03,-0.986,0.039,0.435,-0.261,-0.439
1014,-0.007,-0.009,-0.01,0.03,-0.981,0.039,0.442,-0.271,-0.429
1015,-0.007,-0.011,-0.009,0.033,-0.981,0.042,0.447,-0.243,-0.438
1016,-0.004,-0.012,-0.009,0.034,-0.983,0.044,0.43,-0.255,-0.454
1017,-0.004,-0.012,-0.01,0.034,-0.983,0.045,0.438,-0.258,-0.441
1018,-0.004,-0.012,-0.011,0.034,-0.982,0.046,0.435,-0.259,-0.447
1019,-0.003,-0.011,-0.011,0.034,-0.98,0.048,0.441,-0.253,-0.442
1020,-0.001,-0.012,-0.01,0.039,-0.979,0.049,0.454,-0.25,-0.444
1021,-0.002,-0.013,-0.009,0.042,-0.98,0.049,0.436,-0.267,-0.447
1022,-0.004,-0.008,-0.009,0.045,-0.984,0.048,0.448,-0.264,-0.442
1023,-0.006,-0.002,-0.01,0.041,-0.984,0.048,0.448,-0.264,-0.442
1024,-0.008,0.0,-0.012,0.041,-0.984,0.048,0.451,-0.246,-0.442
1025,-0.007,-0.001,-0.011,0.04,-0.98,0.049,0.429,-0.256,-0.448
1026,-0.005,0.0,-0.009,0.04,-0.979,0.048,0.435,-0.255,-0.432
1027,-0.003,-0.001,-0.008,0.04,-0.982,0.047,0.432,-0.238,-0.445
1028,-0.004,-0.002,-0.01,0.037,-0.98,0.046,0.441,-0.268,-0.441
1029,-0.002,-0.002,-0.013,0.034,-0.979,0.047,0.432,-0.25,-0.438
1030,0.0,-0.003,-0.014,0.033,-0.98,0.05,0.451,-0.256,-0.454
1031,0.0,-0.004,-0.013,0.034,-0.982,0.05,0.444,-0.249,-0.424
1032,0.0,-0.005,-0.011,0.035,-0.983,0.05,0.453,-0.252,-0.45
1033,0.0,-0.007,-0.01,0.035,-0.982,0.048,0.433,-0.244,-0.45
1034,0.0,-0.009,-0.01,0.034,-0.98,0.048,0.432,-0.256,-0.427
1035,0.0,-0.01,-0.011,0.032,-0.981,0.048,0.442,-0.249,-0.442
1036,0.0,-0.009,-0.011,0.033,-0.981,0.046,0.439,-0.253,-0.459
1037,0.0,-0.005,-0.014,0.035,-0.98,0.043,0.445,-0.243,-0.42
1038,0.0,-0.007,-0.014,0.033,-0.983,0.043,0.427,-0.229,-0.447
1039,0.0,-0.012,-0.014,0.031,-0.981,0.044,0.453,-0.262,-0.435
1040,0.0,-0.016,-0.014,0.03,-0.978,0.047,0.436,-0.252,-0.415
1041,0.003,-0.019,-0.014,0.032,-0.983,0.048,0.436,-0.252,-0.415
1042,0.004,-0.019,-0.012,0.032,-0.983,0.048,0.432,-0.255,-0.456
1043,0.001,-0.019,-0.012,0.036,-0.985,0.047,0.427,-0.265,-0.444
1044,0.0,-0.015,-0.012,0.036,-0.984,0.046,0.427,-0.265,-0.444
1045,0.0,-0.013,-0.012,0.033,-0.983,0.05,0.439,-0.25,-0.444
1046,0.0,-0.014,-0.014,0.034,-0.987,0.054,0.45,-0.25,-0.429
1047,0.0,-0.014,-0.014,0.037,-0.988,0.054,0.432,-0.256,-0.427
1048,0.003,-0.012,-0.013,0.036,-0.984,0.05,0.453,-0.258,-0.45
1049,0.005,-0.011,-0.009,0.033,-0.982,0.049,0.451,-0.243,-0.438
1050,0.004,-0.014,-0.007,0.036,-0.982,0.051,0.435,-0.244,-0.441
1051,0.002,-0.015,-0.009,0.035,-0.981,0.053,0.454,-0.253,-0.474
1052,-0.001,-0.011,-0.011,0.037,-0.982,0.051,0.424,-0.249,-0.439
1053,-0.005,-0.009,-0.014,0.038,-0.98,0.048,0.42,-0.247,-0.445
1054,-0.005,-0.007,-0.014,0.035,-0.981,0.049,0.435,-0.258,-0.456
1055,-0.004,-0.008,-0.011,0.035,-0.983,0.049,0.429,-0.246,-0.436
1056,-0.003,-0.008,-0.009,0.035,-0.983,0.048,0.429,-0.243,-0.444
1057,-0.002,-0.006,-0.008,0.034,-0.98,0.05,0.429,-0.243,-0.444
1058,-0.003,-0.004,-0.009,0.034,-0.977,0.05,0.429,-0.234,-0.442
1059,-0.004,-0.002,-0.01,0.034,-0.977,0.05,0.432,-0.252,-0.439
1060,-0.003,0.0,-0.01,0.036,-0.979,0.049,0.435,-0.25,-0.433
1061,-0.002,0.0,-0.011,0.039,-0.983,0.047,0.444,-0.25,-0.445
1062,-0.002,0.002,-0.012,0.035,-0.982,0.047,0.439,-0.259,-0.43
1063,-0.001,0.0,-0.012,0.03,-0.981,0.047,0.438,-0.237,-0.444
1064,0.0,0.0,-0.011,0.03,-0.981,0.047,0.43,-0.243,-0.453
1065,0.002,-0.005,-0.011,0.032,-0.982,0.048,0.439,-0.256,-0.447
1066,0.004,-0.007,-0.011,0.034,-0.982,0.047,0.454,-0.228,-0.451
1067,0.003,-0.006,-0.011,0.035,-0.982,0.048,0.427,-0.252,-0.448
1068,0.003,-0.004,-0.012,0.035,-0.982,0.051,0.453,-0.241,-0.447
1069,0.003,-0.004,-0.013,0.034,-0.981,0.052,0.439,-0.243,-0.448
1070,0.002,-0.004,-0.012,0.032,-0.981,0.053,0.433,-0.247,-0.435
1071,0.002,-0.007,-0.011,0.035,-0.98,0.052,0.429,-0.243,-0.453
1072,0.003,-0.007,-0.011,0.039,-0.98,0.052,0.439,-0.244,-0.453
1073,0.004,-0.003,-0.012,0.038,-0.98,0.053,0.432,-0.253,-0.438
1074,0.003,-0.002,-0.011,0.037,-0.98,0.051,0.432,-0.253,-0.438
1075,0.003,-0.002,-0.009,0.04,-0.981,0.052,0.43,-0.25,-0.451
1076,0.003,0.0,-0.009,0.038,-0.981,0.053,0.423,-0.253,-0.433
1077,0.002,0.0,-0.009,0.038,-0.981,0.053,0.444,-0.253,-0.444
1078,0.003,0.0,-0.009,0.035,-0.982,0.055,0.445,-0.243,-0.444
1079,0.004,0.0,-0.009,0.034,-0.982,0.054,0.433,-0.252,-0.45
1080,0.004,-0.002,-0.009,0.034,-0.98,0.052,0.451,-0.256,-0.435
1081,0.001,0.001,-0.01,0.037,-0.981,0.053,0.442,-0.262,-0.427
1082,0.002,-0.002,-0.009,0.038,-0.983,0.053,0.429,-0.244,-0.444
1083,0.002,0.0,-0.008,0.036,-0.981,0.051,0.442,-0.27,-0.447
1084,0.002,0.0,-0.008,0.036,-0.982,0.051,0.418,-0.253,-0.448
1085,0.002,0.001,-0.009,0.036,-0.982,0.05,0.432,-0.234,-0.451
1086,0.002,0.0,-0.009,0.036,-0.984,0.052,0.433,-0.246,-0.435
1087,0.003,-0.003,-0.007,0.036,-0.984,0.053,0.451,-0.256,-0.457
1088,0.002,-0.003,-0.007,0.036,-0.981,0.05,0.433,-0.238,-0.447
1089,0.001,-0.001,-0.007,0.038,-0.981,0.047,0.442,-0.247,-0.444
1090,0.0,0.003,-0.007,0.038,-0.984,0.047,0.435,-0.252,-0.427
1091,0.001,0.002,-0.007,0.036,-0.987,0.05,0.442,-0.24,-0.441
1092,0.0,0.0,-0.009,0.034,-0.987,0.052,0.442,-0.24,-0.441
1093,-0.001,-0.002,-0.009,0.036,-0.98,0.051,0.445,-0.241,-0.442
1094,0.0,-0.002,-0.007,0.036,-0.98,0.051,0.426,-0.256,-0.435
1095,0.0,0.001,-0.007,0.038,-0.98,0.048,0.432,-0.25,-0.436
1096,0.0,0.007,-0.006,0.045,-0.979,0.049,0.451,-0.261,-0.45
1097,0.002,0.003,-0.004,0.049,-0.977,0.049,0.445,-0.265,-0.424
1098,0.003,0.002,-0.003,0.048,-0.977,0.05,0.43,-0.259,-0.441
1099,0.002,0.007,-0.004,0.042,-0.981,0.051,0.444,-0.249,-0.438
1100,0.001,0.009,-0.005,0.039,-0.984,0.048,0.445,-0.261,-0.468
1101,0.0,0.007,-0.005,0.039,-0.984,0.049,0.447,-0.244,-0.438
1102,0.0,0.006,-0.004,0.039,-0.984,0.051,0.445,-0.255,-0.442
1103,0.0,0.006,-0.003,0.037,-0.982,0.049,0.427,-0.24,-0.444
1104,0.0,0.004,-0.002,0.036,-0.979,0.048,0.433,-0.237,-0.442
1105,-0.001,0.007,-0.004,0.04,-0.979,0.046,0.439,-0.241,-0.439
1106,0.0,0.007,-0.007,0.042,-0.982,0.046,0.439,-0.241,-0.439
1107,0.001,0.005,-0.006,0.04,-0.979,0.048,0.438,-0.261,-0.441
1108,0.002,0.005,-0.004,0.036,-0.98,0.046,0.423,-0.241,-0.421
1109,0.002,0.003,-0.003,0.036,-0.985,0.048,0.423,-0.241,-0.421
1110,0.003,0.003,-0.003,0.039,-0.984,0.048,0.439,-0.255,-0.439
1111,0.0,0.0,-0.003,0.042,-0.983,0.049,0.432,-0.252,-0.442
1112,0.002,0.004,-0.002,0.042,-0.983,0.049,0.414,-0.261,-0.442
1113,0.001,0.008,-0.004,0.042,-0.982,0.048,0.414,-0.246,-0.435
1114,0.0,0.009,-0.006,0.046,-0.982,0.05,0.466,-0.252,-0.457
1115,-0.001,0.015,-0.007,0.046,-0.983,0.051,0.427,-0.25,-0.432
1116,0.001,0.011,-0.005,0.045,-0.984,0.051,0.429,-0.238,-0.445
1117,0.002,0.009,-0.004,0.045,-0.983,0.053,0.448,-0.255,-0.447
1118,0.002,0.01,-0.003,0.042,-0.983,0.051,0.43,-0.256,-0.429
1119,0.0,0.01,-0.004,0.04,-0.983,0.049,0.445,-0.238,-0.448
1120,0.0,0.01,-0.004,0.041,-0.983,0.046,0.429,-0.261,-0.45
1121,0.0,0.009,-0.006,0.042,-0.983,0.047,0.418,-0.238,-0.436
1122,-0.002,0.008,-0.005,0.044,-0.982,0.049,0.442,-0.256,-0.448
1123,0.0,0.007,-0.004,0.042,-0.981,0.051,0.447,-0.262,-0.453
1124,0.0,0.009,-0.006,0.042,-0.98,0.05,0.445,-0.247,-0.453
1125,0.0,0.01,-0.007,0.046,-0.978,0.05,0.442,-0.234,-0.433
1126,0.002,0.013,-0.007,0.049,-0.979,0.051,0.442,-0.259,-0.459
1127,0.002,0.009,-0.004,0.047,-0.981,0.05,0.432,-0.252,-0.444
1128,0.003,0.007,-0.004,0.047,-0.984,0.052,0.432,-0.252,-0.444
1129,0.004,0.006,-0.003,0.044,-0.984,0.051,0.412,-0.234,-0.43
1130,0.002,0.008,-0.003,0.044,-0.984,0.051,0.436,-0.246,-0.456
