,Gyroscope X (deg/s),Gyroscope Y (deg/s),Gyroscope Z (deg/s),Accelerometer X (g),Accelerometer Y (g),Accelerometer Z (g),Magnetometer X (G),Magnetometer Y (G),Magnetometer Z (G)
0,0.001,-0.014,-0.011,0.021,-0.981,-0.016,0.307,-0.211,-0.406
1,0.001,-0.014,-0.011,0.021,-0.981,-0.016,0.307,-0.211,-0.406
2,0.001,-0.014,-0.011,0.021,-0.981,-0.016,0.307,-0.211,-0.406
3,0.001,-0.014,-0.011,0.021,-0.981,-0.016,0.307,-0.211,-0.406
4,0.001,-0.014,-0.011,0.021,-0.981,-0.016,0.307,-0.211,-0.406
5,0.001,-0.014,-0.011,0.021,-0.981,-0.016,0.307,-0.211,-0.406
6,0.001,-0.014,-0.011,0.021,-0.981,-0.016,0.307,-0.211,-0.406
7,0.001,-0.014,-0.011,0.021,-0.981,-0.016,0.307,-0.211,-0.406
8,0.001,-0.014,-0.011,0.021,-0.981,-0.016,0.307,-0.211,-0.406
9,0.001,-0.014,-0.011,0.021,-0.981,-0.016,0.307,-0.211,-0.406
10,0.001,-0.014,-0.011,0.021,-0.981,-0.016,0.307,-0.211,-0.406
11,0.001,-0.014,-0.011,0.021,-0.981,-0.016,0.307,-0.211,-0.406
12,0.001,-0.014,-0.011,0.021,-0.981,-0.016,0.307,-0.211,-0.406
13,0.001,-0.014,-0.011,0.021,-0.981,-0.016,0.307,-0.211,-0.406
14,0.001,-0.014,-0.011,0.021,-0.981,-0.016,0.307,-0.211,-0.406
15,0.001,-0.014,-0.011,0.021,-0.981,-0.016,0.307,-0.211,-0.406
16,0.001,-0.014,-0.011,0.021,-0.981,-0.016,0.307,-0.211,-0.406
17,0.001,-0.014,-0.011,0.021,-0.981,-0.016,0.307,-0.211,-0.406
18,0.001,-0.014,-0.011,0.021,-0.981,-0.016,0.307,-0.211,-0.406
19,0.001,-0.014,-0.011,0.021,-0.981,-0.016,0.307,-0.211,-0.406
20,0.001,-0.014,-0.011,0.021,-0.981,-0.016,0.307,-0.211,-0.406
21,0.001,-0.014,-0.011,0.021,-0.981,-0.016,0.307,-0.211,-0.406
22,0.001,-0.014,-0.011,0.021,-0.981,-0.016,0.307,-0.211,-0.406
23,0.001,-0.014,-0.011,0.021,-0.981,-0.016,0.307,-0.211,-0.406
24,0.001,-0.014,-0.011,0.021,-0.981,-0.016,0.307,-0.211,-0.406
25,0.001,-0.014,-0.011,0.021,-0.981,-0.016,0.307,-0.211,-0.406
26,0.001,-0.014,-0.011,0.021,-0.981,-0.016,0.307,-0.211,-0.406
27,0.001,-0.014,-0.011,0.021,-0.981,-0.016,0.307,-0.211,-0.406
28,0.001,-0.014,-0.011,0.021,-0.981,-0.016,0.307,-0.211,-0.406
29,0.001,-0.014,-0.011,0.021,-0.981,-0.016,0.307,-0.211,-0.406
30,0.001,-0.014,-0.011,0.021,-0.981,-0.016,0.307,-0.211,-0.406
31,0.001,-0.014,-0.011,0.021,-0.981,-0.016,0.307,-0.211,-0.406
32,0.001,-0.014,-0.011,0.021,-0.981,-0.016,0.307,-0.211,-0.406
33,0.001,-0.014,-0.011,0.021,-0.981,-0.016,0.307,-0.211,-0.406
34,0.001,-0.014,-0.011,0.021,-0.981,-0.016,0.307,-0.211,-0.406
35,0.001,-0.014,-0.011,0.021,-0.981,-0.016,0.307,-0.211,-0.406
36,0.001,-0.014,-0.011,0.021,-0.981,-0.016,0.307,-0.211,-0.406
37,0.001,-0.014,-0.011,0.021,-0.981,-0.016,0.307,-0.211,-0.406
38,0.001,-0.014,-0.011,0.021,-0.981,-0.016,0.307,-0.211,-0.406
39,0.001,-0.014,-0.011,0.021,-0.981,-0.016,0.307,-0.211,-0.406
40,0.001,-0.014,-0.011,0.021,-0.981,-0.016,0.307,-0.211,-0.406
41,0.001,-0.014,-0.011,0.021,-0.981,-0.016,0.307,-0.211,-0.406
42,0.001,-0.014,-0.011,0.021,-0.981,-0.016,0.307,-0.211,-0.406
43,0.001,-0.014,-0.011,0.021,-0.981,-0.016,0.307,-0.211,-0.406
44,0.001,-0.014,-0.011,0.021,-0.981,-0.016,0.307,-0.211,-0.406
45,0.001,-0.014,-0.011,0.021,-0.981,-0.016,0.307,-0.211,-0.406
46,0.001,-0.014,-0.011,0.021,-0.981,-0.016,0.307,-0.211,-0.406
47,0.001,-0.014,-0.011,0.021,-0.981,-0.016,0.307,-0.211,-0.406
48,0.001,-0.014,-0.011,0.021,-0.981,-0.016,0.307,-0.211,-0.406
49,0.001,-0.014,-0.011,0.021,-0.981,-0.016,0.307,-0.211,-0.406
50,0.001,-0.014,-0.011,0.021,-0.981,-0.016,0.307,-0.211,-0.406
51,0.001,-0.014,-0.011,0.021,-0.981,-0.016,0.307,-0.211,-0.406
52,0.001,-0.014,-0.011,0.021,-0.981,-0.016,0.307,-0.211,-0.406
53,0.001,-0.014,-0.011,0.021,-0.981,-0.016,0.307,-0.211,-0.406
54,0.001,-0.014,-0.011,0.021,-0.981,-0.016,0.307,-0.211,-0.406
55,0.001,-0.014,-0.011,0.021,-0.981,-0.016,0.307,-0.211,-0.406
56,0.001,-0.014,-0.011,0.021,-0.981,-0.016,0.307,-0.211,-0.406
57,0.001,-0.014,-0.011,0.021,-0.981,-0.016,0.307,-0.211,-0.406
58,0.001,-0.014,-0.011,0.021,-0.981,-0.016,0.307,-0.211,-0.406
59,0.001,-0.014,-0.011,0.021,-0.981,-0.016,0.307,-0.211,-0.406
60,0.001,-0.014,-0.011,0.021,-0.981,-0.016,0.307,-0.211,-0.406
61,0.001,-0.014,-0.011,0.021,-0.981,-0.016,0.307,-0.211,-0.406
62,0.001,-0.014,-0.011,0.021,-0.981,-0.016,0.307,-0.211,-0.406
63,0.001,-0.014,-0.011,0.021,-0.981,-0.016,0.307,-0.211,-0.406
64,0.001,-0.014,-0.011,0.021,-0.981,-0.016,0.307,-0.211,-0.406
65,0.001,-0.014,-0.011,0.021,-0.981,-0.016,0.307,-0.211,-0.406
66,0.001,-0.014,-0.011,0.021,-0.981,-0.016,0.307,-0.211,-0.406
67,0.001,-0.014,-0.011,0.021,-0.981,-0.016,0.307,-0.211,-0.406
68,0.001,-0.014,-0.011,0.021,-0.981,-0.016,0.307,-0.211,-0.406
69,0.001,-0.014,-0.011,0.021,-0.981,-0.016,0.307,-0.211,-0.406
70,0.001,-0.014,-0.011,0.021,-0.981,-0.016,0.307,-0.211,-0.406
71,0.001,-0.014,-0.011,0.021,-0.981,-0.016,0.307,-0.211,-0.406
72,0.001,-0.014,-0.011,0.021,-0.981,-0.016,0.307,-0.211,-0.406
73,0.001,-0.014,-0.011,0.021,-0.981,-0.016,0.307,-0.211,-0.406
74,0.001,-0.014,-0.011,0.021,-0.981,-0.016,0.307,-0.211,-0.406
75,0.001,-0.014,-0.011,0.021,-0.981,-0.016,0.307,-0.211,-0.406
76,0.001,-0.014,-0.011,0.021,-0.981,-0.016,0.307,-0.211,-0.406
77,0.001,-0.014,-0.011,0.021,-0.981,-0.016,0.307,-0.211,-0.406
78,0.001,-0.014,-0.011,0.021,-0.981,-0.016,0.307,-0.211,-0.406
79,0.001,-0.014,-0.011,0.021,-0.981,-0.016,0.307,-0.211,-0.406
80,0.001,-0.014,-0.011,0.021,-0.981,-0.016,0.307,-0.211,-0.406
81,0.001,-0.014,-0.011,0.021,-0.981,-0.016,0.307,-0.211,-0.406
82,0.001,-0.014,-0.011,0.021,-0.981,-0.016,0.307,-0.211,-0.406
83,0.001,-0.014,-0.011,0.021,-0.981,-0.016,0.307,-0.211,-0.406
84,0.001,-0.014,-0.011,0.021,-0.981,-0.016,0.307,-0.211,-0.406
85,0.001,-0.014,-0.011,0.021,-0.981,-0.016,0.307,-0.211,-0.406
86,0.001,-0.014,-0.011,0.021,-0.981,-0.016,0.307,-0.211,-0.406
87,0.001,-0.014,-0.011,0.021,-0.981,-0.016,0.307,-0.211,-0.406
88,0.001,-0.014,-0.011,0.021,-0.981,-0.016,0.307,-0.211,-0.406
89,0.001,-0.014,-0.011,0.021,-0.981,-0.016,0.307,-0.211,-0.406
90,0.001,-0.014,-0.011,0.021,-0.981,-0.016,0.307,-0.211,-0.406
91,-0.006,0.006,-0.02,0.16,-0.972,0.035,0.318,-0.244,-0.462
92,0.004,0.006,-0.02,0.149,-0.969,0.04,0.315,-0.243,-0.448
93,0.002,0.009,-0.021,0.144,-0.969,0.039,0.306,-0.231,-0.466
94,-0.001,0.007,-0.021,0.141,-0.968,0.044,0.304,-0.255,-0.489
95,-0.007,0.005,-0.021,0.142,-0.967,0.05,0.303,-0.252,-0.487
96,-0.007,0.005,-0.021,0.145,-0.968,0.048,0.3,-0.267,-0.478
97,-0.008,0.006,-0.021,0.145,-0.969,0.044,0.31,-0.252,-0.451
98,-0.005,0.007,-0.021,0.142,-0.97,0.041,0.285,-0.238,-0.454
99,-0.004,0.011,-0.021,0.139,-0.972,0.039,0.285,-0.238,-0.454
100,-0.007,0.018,-0.023,0.138,-0.973,0.042,0.306,-0.25,-0.462
101,-0.007,0.02,-0.025,0.14,-0.973,0.047,0.297,-0.229,-0.454
102,-0.01,0.015,-0.027,0.14,-0.972,0.049,0.322,-0.237,-0.477
103,-0.011,0.014,-0.028,0.139,-0.971,0.046,0.322,-0.249,-0.477
104,-0.009,0.016,-0.028,0.139,-0.972,0.044,0.312,-0.241,-0.478
105,-0.005,0.011,-0.028,0.14,-0.972,0.046,0.304,-0.223,-0.451
106,-0.002,0.009,-0.026,0.143,-0.973,0.045,0.304,-0.223,-0.451
107,-0.004,0.013,-0.026,0.14,-0.973,0.046,0.312,-0.241,-0.463
108,-0.007,0.021,-0.028,0.136,-0.976,0.049,0.301,-0.256,-0.454
109,-0.011,0.023,-0.031,0.132,-0.977,0.053,0.328,-0.241,-0.478
110,-0.014,0.02,-0.032,0.126,-0.976,0.052,0.312,-0.241,-0.478
111,-0.015,0.019,-0.032,0.126,-0.976,0.052,0.322,-0.247,-0.475
112,-0.01,0.015,-0.03,0.125,-0.976,0.048,0.322,-0.247,-0.459
113,-0.01,0.014,-0.029,0.124,-0.975,0.05,0.322,-0.247,-0.459
114,-0.011,0.009,-0.028,0.123,-0.977,0.053,0.325,-0.238,-0.468
115,-0.011,0.001,-0.028,0.127,-0.977,0.056,0.304,-0.247,-0.486
116,-0.011,0.001,-0.028,0.131,-0.972,0.056,0.33,-0.249,-0.457
117,-0.011,-0.006,-0.027,0.133,-0.966,0.05,0.33,-0.246,-0.474
118,-0.009,-0.011,-0.026,0.133,-0.966,0.044,0.316,-0.244,-0.478
119,-0.008,-0.011,-0.026,0.13,-0.969,0.042,0.306,-0.25,-0.462
120,-0.007,-0.007,-0.026,0.13,-0.972,0.043,0.306,-0.25,-0.462
121,-0.007,-0.004,-0.027,0.134,-0.973,0.046,0.321,-0.246,-0.463
122,-0.004,-0.003,-0.025,0.135,-0.975,0.05,0.324,-0.249,-0.468
123,-0.004,0.0,-0.025,0.133,-0.972,0.053,0.319,-0.252,-0.465
124,-0.002,-0.002,-0.026,0.13,-0.969,0.053,0.307,-0.225,-0.459
125,-0.004,-0.003,-0.028,0.129,-0.969,0.05,0.313,-0.231,-0.478
126,-0.008,-0.009,-0.028,0.13,-0.971,0.05,0.31,-0.253,-0.474
127,-0.008,-0.002,-0.028,0.133,-0.971,0.052,0.31,-0.253,-0.474
128,-0.007,-0.002,-0.026,0.136,-0.973,0.051,0.328,-0.228,-0.457
129,-0.007,-0.002,-0.024,0.134,-0.975,0.049,0.298,-0.253,-0.469
130,-0.005,0.0,-0.023,0.132,-0.976,0.049,0.324,-0.243,-0.46
131,-0.004,0.002,-0.022,0.132,-0.976,0.049,0.316,-0.241,-0.474
132,-0.002,0.003,-0.021,0.129,-0.977,0.052,0.313,-0.241,-0.469
133,-0.001,0.0,-0.022,0.126,-0.974,0.056,0.307,-0.249,-0.462
134,-0.001,0.0,-0.022,0.128,-0.969,0.056,0.307,-0.249,-0.462
135,-0.003,-0.001,-0.023,0.13,-0.969,0.052,0.331,-0.25,-0.453
136,-0.002,0.002,-0.022,0.132,-0.969,0.047,0.322,-0.24,-0.474
137,0.0,0.005,-0.022,0.133,-0.967,0.042,0.319,-0.25,-0.489
138,0.0,0.007,-0.021,0.131,-0.968,0.042,0.312,-0.246,-0.468
139,0.003,0.007,-0.021,0.127,-0.969,0.045,0.319,-0.256,-0.466
140,0.004,0.007,-0.019,0.123,-0.973,0.046,0.312,-0.235,-0.48
141,0.005,0.005,-0.019,0.123,-0.975,0.047,0.312,-0.235,-0.48
142,0.005,0.002,-0.018,0.122,-0.976,0.05,0.306,-0.232,-0.474
143,0.003,-0.002,-0.018,0.119,-0.978,0.051,0.309,-0.243,-0.475
144,0.002,-0.003,-0.016,0.119,-0.977,0.05,0.306,-0.234,-0.474
145,-0.001,-0.003,-0.017,0.123,-0.975,0.052,0.325,-0.252,-0.472
146,-0.003,-0.007,-0.019,0.125,-0.975,0.053,0.319,-0.246,-0.474
147,-0.002,-0.01,-0.021,0.125,-0.978,0.051,0.312,-0.247,-0.444
148,-0.004,-0.009,-0.022,0.126,-0.98,0.049,0.312,-0.247,-0.444
149,-0.005,-0.009,-0.023,0.126,-0.978,0.048,0.322,-0.253,-0.493
150,-0.005,-0.011,-0.023,0.126,-0.98,0.048,0.318,-0.249,-0.478
151,-0.006,-0.009,-0.023,0.123,-0.98,0.048,0.336,-0.256,-0.484
152,-0.007,-0.01,-0.022,0.119,-0.981,0.049,0.322,-0.237,-0.478
153,-0.007,-0.013,-0.022,0.121,-0.979,0.051,0.339,-0.252,-0.465
154,-0.007,-0.016,-0.021,0.125,-0.977,0.05,0.304,-0.244,-0.475
155,-0.007,-0.016,-0.021,0.126,-0.975,0.048,0.304,-0.244,-0.475
156,-0.006,-0.017,-0.019,0.126,-0.972,0.047,0.334,-0.237,-0.477
157,-0.004,-0.017,-0.018,0.126,-0.972,0.048,0.333,-0.258,-0.483
158,-0.002,-0.018,-0.016,0.125,-0.973,0.049,0.34,-0.25,-0.459
159,-0.002,-0.017,-0.016,0.121,-0.97,0.047,0.319,-0.232,-0.456
160,-0.004,-0.015,-0.015,0.118,-0.969,0.046,0.318,-0.252,-0.484
161,-0.004,0.0,-0.017,0.117,-0.973,0.05,0.297,-0.246,-0.462
162,-0.004,-0.006,-0.017,0.118,-0.977,0.053,0.297,-0.246,-0.462
163,-0.007,-0.014,-0.017,0.121,-0.979,0.052,0.322,-0.249,-0.477
164,-0.007,-0.021,-0.017,0.125,-0.982,0.052,0.307,-0.253,-0.468
165,-0.006,-0.024,-0.016,0.127,-0.983,0.052,0.316,-0.244,-0.477
166,-0.003,-0.029,-0.016,0.124,-0.979,0.052,0.325,-0.231,-0.481
167,0.0,-0.035,-0.014,0.121,-0.977,0.049,0.309,-0.232,-0.48
168,0.0,-0.039,-0.011,0.119,-0.974,0.045,0.31,-0.249,-0.454
169,0.001,-0.032,-0.012,0.117,-0.972,0.044,0.31,-0.249,-0.454
170,0.002,-0.023,-0.014,0.117,-0.972,0.044,0.3,-0.259,-0.48
171,0.003,-0.018,-0.014,0.119,-0.971,0.044,0.322,-0.247,-0.46
172,0.001,-0.02,-0.014,0.124,-0.97,0.047,0.336,-0.24,-0.477
173,0.0,-0.023,-0.014,0.128,-0.968,0.049,0.319,-0.24,-0.463
174,0.0,-0.024,-0.014,0.127,-0.965,0.049,0.318,-0.252,-0.472
175,0.0,-0.024,-0.014,0.124,-0.969,0.049,0.31,-0.262,-0.48
176,0.001,-0.018,-0.014,0.122,-0.973,0.049,0.31,-0.262,-0.48
177,0.003,-0.014,-0.014,0.121,-0.977,0.051,0.322,-0.249,-0.478
178,0.003,-0.016,-0.012,0.125,-0.976,0.052,0.328,-0.256,-0.468
179,0.002,-0.02,-0.01,0.131,-0.973,0.05,0.327,-0.271,-0.463
180,0.0,-0.018,-0.01,0.128,-0.975,0.048,0.312,-0.27,-0.466
181,0.0,-0.014,-0.011,0.122,-0.978,0.047,0.33,-0.247,-0.481
182,0.0,-0.018,-0.012,0.124,-0.978,0.047,0.306,-0.247,-0.429
183,-0.002,-0.015,-0.013,0.125,-0.975,0.047,0.306,-0.247,-0.429
184,-0.002,-0.014,-0.013,0.124,-0.971,0.046,0.318,-0.252,-0.474
185,0.0,-0.012,-0.012,0.122,-0.971,0.041,0.33,-0.231,-0.474
186,-0.001,-0.008,-0.013,0.12,-0.971,0.04,0.328,-0.231,-0.48
187,-0.003,-0.004,-0.014,0.124,-0.975,0.043,0.301,-0.241,-0.474
188,-0.003,-0.004,-0.015,0.128,-0.974,0.045,0.319,-0.241,-0.457
189,-0.002,-0.009,-0.013,0.128,-0.974,0.045,0.318,-0.246,-0.493
190,0.0,-0.003,-0.013,0.13,-0.971,0.045,0.318,-0.246,-0.493
191,0.002,-0.002,-0.011,0.127,-0.973,0.043,0.322,-0.243,-0.465
192,0.003,-0.001,-0.012,0.123,-0.972,0.04,0.304,-0.253,-0.474
193,0.004,-0.002,-0.011,0.124,-0.971,0.039,0.313,-0.243,-0.48
194,0.004,-0.002,-0.011,0.124,-0.973,0.039,0.342,-0.244,-0.483
195,0.005,0.0,-0.011,0.122,-0.972,0.039,0.325,-0.244,-0.468
196,0.007,0.002,-0.013,0.122,-0.973,0.04,0.312,-0.241,-0.456
197,0.007,0.003,-0.014,0.12,-0.974,0.041,0.312,-0.241,-0.456
198,0.006,0.005,-0.014,0.119,-0.976,0.042,0.282,-0.253,-0.463
199,0.007,0.008,-0.014,0.12,-0.977,0.041,0.327,-0.249,-0.484
200,0.011,0.009,-0.014,0.122,-0.974,0.038,0.328,-0.246,-0.474
201,0.012,0.009,-0.013,0.125,-0.975,0.041,0.315,-0.253,-0.492
202,0.011,0.004,-0.012,0.127,-0.978,0.044,0.322,-0.238,-0.471
203,0.007,0.007,-0.014,0.126,-0.976,0.04,0.325,-0.252,-0.48
204,0.007,0.007,-0.016,0.122,-0.974,0.043,0.325,-0.252,-0.48
205,0.004,0.007,-0.016,0.121,-0.973,0.047,0.327,-0.247,-0.453
206,0.002,0.006,-0.016,0.124,-0.975,0.047,0.312,-0.252,-0.465
207,0.004,0.002,-0.015,0.126,-0.974,0.046,0.301,-0.252,-0.465
208,0.006,0.001,-0.014,0.126,-0.973,0.044,0.328,-0.244,-0.454
209,0.007,0.004,-0.014,0.126,-0.973,0.044,0.313,-0.258,-0.474
210,0.009,0.004,-0.015,0.126,-0.975,0.044,0.312,-0.247,-0.462
211,0.008,0.004,-0.016,0.127,-0.976,0.048,0.312,-0.247,-0.462
212,0.006,0.002,-0.015,0.128,-0.975,0.053,0.309,-0.25,-0.49
213,0.007,-0.002,-0.013,0.129,-0.977,0.055,0.306,-0.226,-0.477
214,0.007,-0.002,-0.013,0.128,-0.979,0.054,0.319,-0.234,-0.477
215,0.007,-0.005,-0.013,0.125,-0.978,0.056,0.321,-0.235,-0.483
216,0.005,-0.009,-0.014,0.122,-0.976,0.058,0.315,-0.232,-0.477
217,0.004,-0.012,-0.013,0.123,-0.975,0.055,0.3,-0.256,-0.456
218,0.004,-0.01,-0.012,0.126,-0.972,0.05,0.3,-0.256,-0.456
219,0.007,-0.007,-0.011,0.126,-0.973,0.047,0.316,-0.247,-0.463
220,0.009,-0.003,-0.011,0.127,-0.971,0.046,0.312,-0.225,-0.477
221,0.009,0.0,-0.012,0.126,-0.968,0.045,0.318,-0.238,-0.487
222,0.009,0.001,-0.013,0.124,-0.968,0.044,0.306,-0.234,-0.466
223,0.009,0.003,-0.012,0.124,-0.969,0.046,0.321,-0.252,-0.465
224,0.012,-0.005,-0.011,0.127,-0.97,0.048,0.298,-0.25,-0.459
225,0.012,0.0,-0.01,0.129,-0.972,0.048,0.298,-0.25,-0.459
226,0.011,0.0,-0.01,0.13,-0.971,0.049,0.318,-0.252,-0.466
227,0.013,-0.001,-0.009,0.129,-0.974,0.052,0.321,-0.249,-0.475
228,0.011,-0.006,-0.009,0.128,-0.979,0.053,0.304,-0.232,-0.474
229,0.01,-0.012,-0.009,0.128,-0.979,0.053,0.327,-0.253,-0.469
230,0.009,-0.011,-0.01,0.13,-0.978,0.053,0.295,-0.249,-0.468
231,0.005,-0.012,-0.011,0.131,-0.977,0.052,0.304,-0.25,-0.463
232,0.004,-0.011,-0.013,0.131,-0.975,0.05,0.304,-0.25,-0.463
233,0.004,-0.01,-0.013,0.132,-0.972,0.048,0.313,-0.238,-0.465
234,0.004,-0.01,-0.013,0.13,-0.973,0.045,0.303,-0.241,-0.466
235,0.004,-0.004,-0.014,0.129,-0.976,0.044,0.306,-0.249,-0.435
236,0.007,0.001,-0.014,0.129,-0.975,0.047,0.318,-0.234,-0.472
237,0.007,0.0,-0.013,0.129,-0.972,0.05,0.313,-0.237,-0.478
238,0.004,-0.005,-0.014,0.133,-0.969,0.048,0.315,-0.24,-0.456
239,0.002,-0.007,-0.014,0.133,-0.971,0.048,0.315,-0.24,-0.456
240,0.003,-0.005,-0.014,0.129,-0.975,0.047,0.325,-0.222,-0.456
241,0.006,-0.002,-0.014,0.128,-0.976,0.044,0.309,-0.25,-0.471
242,0.007,0.0,-0.016,0.131,-0.975,0.047,0.306,-0.237,-0.456
243,0.009,-0.002,-0.014,0.132,-0.974,0.046,0.333,-0.234,-0.453
244,0.009,-0.006,-0.014,0.13,-0.972,0.047,0.34,-0.256,-0.46
245,0.009,0.002,-0.015,0.13,-0.971,0.051,0.315,-0.235,-0.457
246,0.01,-0.007,-0.014,0.129,-0.971,0.05,0.315,-0.235,-0.457
247,0.011,-0.013,-0.014,0.129,-0.971,0.045,0.312,-0.259,-0.475
248,0.01,-0.012,-0.014,0.129,-0.972,0.041,0.327,-0.247,-0.493
249,0.012,-0.008,-0.014,0.129,-0.972,0.041,0.316,-0.249,-0.478
250,0.014,-0.001,-0.015,0.128,-0.973,0.041,0.3,-0.238,-0.469
251,0.012,0.003,-0.016,0.126,-0.973,0.042,0.303,-0.253,-0.462
252,0.012,0.001,-0.016,0.127,-0.973,0.045,0.337,-0.244,-0.471
253,0.012,0.001,-0.016,0.13,-0.972,0.05,0.337,-0.244,-0.471
254,0.009,-0.002,-0.016,0.129,-0.975,0.051,0.324,-0.244,-0.465
255,0.009,-0.004,-0.015,0.126,-0.976,0.047,0.318,-0.232,-0.468
256,0.01,-0.007,-0.015,0.127,-0.974,0.045,0.307,-0.237,-0.469
257,0.011,-0.009,-0.014,0.128,-0.973,0.042,0.325,-0.25,-0.48
258,0.011,-0.013,-0.013,0.127,-0.973,0.041,0.313,-0.255,-0.465
259,0.01,-0.024,-0.012,0.123,-0.971,0.037,0.321,-0.243,-0.444
260,0.008,-0.007,-0.014,0.121,-0.971,0.037,0.321,-0.243,-0.444
261,0.004,0.004,-0.017,0.122,-0.971,0.042,0.325,-0.252,-0.462
262,0.002,0.005,-0.018,0.121,-0.974,0.043,0.327,-0.234,-0.46
263,0.001,0.003,-0.019,0.121,-0.978,0.04,0.312,-0.256,-0.48
264,0.002,0.002,-0.019,0.124,-0.978,0.036,0.331,-0.24,-0.472
265,0.004,-0.001,-0.019,0.126,-0.978,0.037,0.307,-0.246,-0.462
266,0.008,0.002,-0.02,0.125,-0.981,0.041,0.327,-0.265,-0.468
267,0.009,-0.006,-0.018,0.124,-0.978,0.041,0.327,-0.265,-0.468
268,0.009,-0.011,-0.018,0.122,-0.972,0.036,0.309,-0.265,-0.456
269,0.009,-0.008,-0.017,0.122,-0.972,0.036,0.322,-0.25,-0.457
270,0.011,-0.006,-0.017,0.121,-0.97,0.037,0.3,-0.238,-0.475
271,0.009,-0.007,-0.016,0.124,-0.974,0.041,0.319,-0.246,-0.466
272,0.007,-0.007,-0.017,0.128,-0.976,0.039,0.313,-0.255,-0.483
273,0.007,-0.007,-0.017,0.129,-0.975,0.038,0.313,-0.255,-0.483
274,0.007,-0.009,-0.017,0.128,-0.974,0.04,0.291,-0.243,-0.463
275,0.005,-0.009,-0.016,0.125,-0.972,0.04,0.327,-0.247,-0.486
276,0.004,-0.007,-0.017,0.125,-0.974,0.038,0.334,-0.237,-0.465
277,0.006,-0.006,-0.017,0.125,-0.976,0.037,0.334,-0.225,-0.451
278,0.005,-0.004,-0.018,0.124,-0.978,0.039,0.333,-0.24,-0.477
279,0.004,0.0,-0.018,0.122,-0.976,0.041,0.304,-0.24,-0.474
280,0.004,0.003,-0.018,0.125,-0.972,0.041,0.304,-0.24,-0.474
281,0.001,-0.002,-0.02,0.127,-0.973,0.04,0.325,-0.241,-0.474
282,-0.001,-0.002,-0.021,0.129,-0.973,0.038,0.337,-0.244,-0.46
283,-0.002,0.0,-0.019,0.129,-0.975,0.04,0.33,-0.259,-0.459
284,0.0,0.002,-0.02,0.128,-0.975,0.042,0.313,-0.241,-0.474
285,0.0,0.001,-0.02,0.127,-0.976,0.042,0.324,-0.253,-0.483
286,-0.002,0.001,-0.02,0.123,-0.979,0.041,0.322,-0.259,-0.468
287,-0.004,-0.004,-0.018,0.121,-0.98,0.041,0.322,-0.259,-0.468
288,-0.002,-0.004,-0.018,0.12,-0.977,0.043,0.312,-0.241,-0.459
289,-0.002,-0.005,-0.019,0.12,-0.977,0.043,0.324,-0.246,-0.466
290,-0.003,-0.007,-0.019,0.116,-0.974,0.042,0.312,-0.261,-0.478
291,-0.001,-0.002,-0.019,0.112,-0.974,0.035,0.33,-0.246,-0.477
292,-0.001,0.0,-0.019,0.11,-0.976,0.032,0.328,-0.241,-0.462
293,-0.001,0.0,-0.019,0.111,-0.976,0.037,0.331,-0.244,-0.474
294,-0.004,-0.009,-0.018,0.112,-0.976,0.04,0.331,-0.244,-0.474
295,-0.003,-0.012,-0.018,0.11,-0.978,0.037,0.315,-0.246,-0.444
296,-0.002,-0.017,-0.018,0.111,-0.977,0.036,0.333,-0.243,-0.454
297,-0.002,-0.023,-0.016,0.11,-0.973,0.038,0.313,-0.243,-0.474
298,0.0,-0.026,-0.015,0.108,-0.972,0.037,0.304,-0.231,-0.471
299,0.0,-0.027,-0.014,0.112,-0.974,0.036,0.322,-0.246,-0.478
300,0.001,-0.03,-0.01,0.116,-0.975,0.038,0.318,-0.246,-0.472
301,0.002,-0.035,-0.008,0.118,-0.975,0.039,0.318,-0.246,-0.472
302,0.003,-0.035,-0.008,0.12,-0.976,0.038,0.321,-0.24,-0.454
303,0.003,-0.032,-0.009,0.12,-0.977,0.039,0.318,-0.258,-0.471
304,0.003,-0.028,-0.011,0.122,-0.977,0.041,0.303,-0.255,-0.474
305,0.002,-0.026,-0.012,0.126,-0.975,0.041,0.309,-0.24,-0.465
306,0.0,-0.028,-0.013,0.127,-0.974,0.039,0.312,-0.229,-0.465
307,0.0,-0.027,-0.013,0.126,-0.975,0.035,0.321,-0.249,-0.468
308,0.002,-0.019,-0.013,0.126,-0.975,0.035,0.321,-0.249,-0.468
309,0.003,-0.019,-0.013,0.124,-0.975,0.035,0.306,-0.258,-0.445
310,0.002,-0.018,-0.013,0.121,-0.975,0.037,0.31,-0.255,-0.46
311,0.001,-0.018,-0.011,0.122,-0.973,0.041,0.31,-0.255,-0.459
312,0.001,-0.023,-0.01,0.125,-0.973,0.041,0.328,-0.247,-0.466
313,0.001,-0.023,-0.01,0.124,-0.976,0.04,0.313,-0.241,-0.474
314,0.0,-0.02,-0.011,0.123,-0.975,0.038,0.322,-0.225,-0.466
315,0.0,-0.014,-0.011,0.124,-0.974,0.039,0.322,-0.225,-0.466
316,0.001,-0.009,-0.013,0.124,-0.973,0.037,0.331,-0.243,-0.46
317,0.002,-0.004,-0.014,0.123,-0.974,0.036,0.322,-0.253,-0.474
318,0.003,-0.007,-0.013,0.124,-0.974,0.038,0.306,-0.247,-0.451
319,0.002,-0.004,-0.012,0.126,-0.974,0.039,0.321,-0.244,-0.468
320,0.001,-0.006,-0.013,0.123,-0.974,0.039,0.316,-0.25,-0.48
321,0.001,-0.005,-0.013,0.121,-0.974,0.039,0.316,-0.25,-0.48
322,0.002,-0.009,-0.011,0.124,-0.976,0.04,0.321,-0.243,-0.453
323,0.003,-0.006,-0.011,0.125,-0.977,0.04,0.321,-0.243,-0.453
324,0.001,-0.004,-0.011,0.124,-0.976,0.036,0.312,-0.241,-0.471
325,0.001,0.0,-0.012,0.12,-0.976,0.035,0.319,-0.255,-0.453
326,0.002,0.0,-0.012,0.12,-0.974,0.041,0.322,-0.243,-0.472
327,0.0,0.0,-0.012,0.12,-0.974,0.041,0.316,-0.244,-0.451
328,0.0,-0.002,-0.011,0.123,-0.973,0.046,0.319,-0.247,-0.468
329,0.0,0.0,-0.011,0.122,-0.976,0.043,0.319,-0.247,-0.468
330,0.0,-0.001,-0.01,0.122,-0.977,0.041,0.319,-0.237,-0.469
331,0.002,-0.002,-0.009,0.124,-0.976,0.039,0.325,-0.249,-0.481
332,0.004,0.0,-0.009,0.125,-0.974,0.036,0.316,-0.235,-0.457
333,0.004,0.0,-0.009,0.124,-0.973,0.037,0.333,-0.241,-0.492
334,0.006,0.002,-0.008,0.125,-0.973,0.04,0.313,-0.238,-0.463
335,0.004,0.002,-0.009,0.123,-0.971,0.041,0.312,-0.243,-0.465
336,0.003,0.003,-0.01,0.123,-0.972,0.038,0.312,-0.243,-0.465
337,0.004,0.002,-0.011,0.126,-0.974,0.036,0.304,-0.235,-0.451
338,0.004,0.001,-0.011,0.127,-0.974,0.037,0.316,-0.25,-0.469
339,0.002,0.0,-0.01,0.127,-0.976,0.038,0.315,-0.253,-0.469
340,0.004,0.001,-0.008,0.127,-0.976,0.039,0.342,-0.241,-0.465
341,0.004,0.001,-0.007,0.126,-0.973,0.042,0.318,-0.222,-0.463
342,0.005,0.001,-0.007,0.127,-0.973,0.042,0.334,-0.234,-0.483
343,0.004,0.0,-0.009,0.126,-0.973,0.035,0.298,-0.235,-0.475
344,0.001,0.004,-0.009,0.126,-0.972,0.037,0.307,-0.231,-0.454
345,0.0,0.004,-0.01,0.126,-0.974,0.038,0.315,-0.249,-0.469
346,0.001,0.006,-0.01,0.125,-0.976,0.038,0.321,-0.259,-0.468
347,-0.002,0.008,-0.009,0.125,-0.976,0.038,0.327,-0.247,-0.474
348,-0.004,0.007,-0.009,0.128,-0.976,0.039,0.322,-0.24,-0.465
349,-0.004,0.007,-0.01,0.13,-0.974,0.039,0.322,-0.24,-0.465
350,-0.002,0.009,-0.012,0.132,-0.973,0.039,0.315,-0.225,-0.451
351,-0.002,0.009,-0.012,0.132,-0.973,0.038,0.315,-0.225,-0.451
352,-0.002,0.011,-0.012,0.129,-0.976,0.038,0.325,-0.243,-0.475
353,0.001,0.011,-0.013,0.127,-0.977,0.039,0.316,-0.234,-0.48
354,0.002,0.009,-0.012,0.125,-0.975,0.039,0.316,-0.253,-0.471
355,0.004,0.008,-0.011,0.125,-0.973,0.036,0.333,-0.243,-0.477
356,0.007,0.009,-0.01,0.128,-0.971,0.036,0.333,-0.243,-0.477
357,0.008,0.001,-0.009,0.132,-0.969,0.04,0.316,-0.25,-0.454
358,0.007,0.01,-0.01,0.135,-0.97,0.043,0.316,-0.25,-0.454
359,0.009,0.015,-0.011,0.138,-0.97,0.042,0.316,-0.252,-0.474
360,0.011,0.017,-0.012,0.139,-0.971,0.043,0.334,-0.265,-0.459
361,0.012,0.023,-0.013,0.139,-0.97,0.045,0.315,-0.249,-0.466
362,0.016,0.028,-0.012,0.14,-0.967,0.048,0.321,-0.237,-0.474
363,0.019,0.033,-0.012,0.141,-0.967,0.051,0.321,-0.237,-0.474
364,0.023,0.03,-0.011,0.141,-0.971,0.05,0.324,-0.255,-0.457
365,0.023,0.031,-0.012,0.137,-0.974,0.046,0.315,-0.231,-0.451
366,0.022,0.031,-0.012,0.137,-0.97,0.043,0.312,-0.255,-0.462
367,0.02,0.03,-0.014,0.132,-0.97,0.043,0.339,-0.241,-0.465
368,0.018,0.028,-0.015,0.13,-0.97,0.043,0.319,-0.246,-0.468
369,0.018,0.024,-0.015,0.126,-0.975,0.045,0.321,-0.234,-0.472
370,0.018,0.024,-0.015,0.121,-0.979,0.044,0.321,-0.234,-0.472
371,0.018,0.023,-0.016,0.116,-0.98,0.04,0.31,-0.253,-0.451
372,0.017,0.021,-0.016,0.112,-0.98,0.037,0.31,-0.253,-0.451
373,0.016,0.023,-0.016,0.111,-0.98,0.036,0.334,-0.241,-0.463
374,0.013,0.023,-0.019,0.11,-0.981,0.039,0.325,-0.252,-0.48
375,0.009,0.016,-0.021,0.109,-0.981,0.036,0.354,-0.255,-0.465
376,0.007,0.018,-0.021,0.109,-0.98,0.031,0.319,-0.256,-0.468
377,0.008,0.013,-0.021,0.111,-0.977,0.035,0.319,-0.256,-0.468
378,0.009,-0.012,-0.021,0.114,-0.974,0.036,0.318,-0.252,-0.462
379,0.011,-0.018,-0.017,0.117,-0.973,0.035,0.307,-0.249,-0.457
380,0.013,-0.027,-0.015,0.118,-0.972,0.035,0.304,-0.234,-0.45
381,0.014,-0.035,-0.012,0.116,-0.971,0.035,0.327,-0.226,-0.468
382,0.016,-0.036,-0.01,0.119,-0.972,0.037,0.322,-0.253,-0.465
383,0.018,-0.037,-0.009,0.125,-0.972,0.038,0.328,-0.241,-0.456
384,0.019,-0.035,-0.011,0.127,-0.973,0.037,0.328,-0.241,-0.456
385,0.02,-0.021,-0.014,0.13,-0.977,0.04,0.312,-0.25,-0.453
386,0.019,-0.016,-0.016,0.13,-0.977,0.04,0.312,-0.25,-0.453
387,0.017,-0.011,-0.018,0.134,-0.979,0.044,0.334,-0.262,-0.471
388,0.016,-0.004,-0.02,0.136,-0.978,0.047,0.316,-0.241,-0.468
389,0.013,-0.002,-0.021,0.137,-0.978,0.05,0.334,-0.252,-0.459
390,0.013,-0.002,-0.021,0.138,-0.975,0.048,0.334,-0.252,-0.459
391,0.011,0.001,-0.021,0.137,-0.974,0.043,0.325,-0.24,-0.466
392,0.011,0.004,-0.017,0.134,-0.971,0.041,0.319,-0.246,-0.487
393,0.014,0.007,-0.015,0.132,-0.97,0.044,0.31,-0.25,-0.46
394,0.016,0.01,-0.013,0.128,-0.971,0.046,0.324,-0.25,-0.48
395,0.018,0.012,-0.011,0.125,-0.973,0.046,0.309,-0.24,-0.465
396,0.018,0.013,-0.01,0.124,-0.975,0.047,0.324,-0.253,-0.465
397,0.018,0.016,-0.01,0.122,-0.976,0.047,0.324,-0.253,-0.465
398,0.018,0.015,-0.011,0.123,-0.977,0.042,0.315,-0.255,-0.463
399,0.018,0.014,-0.01,0.122,-0.979,0.031,0.319,-0.261,-0.462
400,0.018,0.016,-0.012,0.118,-0.979,0.029,0.319,-0.261,-0.462
401,0.016,0.018,-0.013,0.115,-0.977,0.032,0.319,-0.228,-0.465
402,0.014,0.017,-0.014,0.115,-0.974,0.031,0.331,-0.238,-0.454
403,0.01,0.012,-0.014,0.11,-0.974,0.033,0.327,-0.25,-0.46
404,0.006,0.007,-0.015,0.106,-0.978,0.032,0.327,-0.25,-0.46
405,0.005,0.0,-0.013,0.109,-0.979,0.034,0.324,-0.237,-0.456
406,0.007,-0.009,-0.012,0.109,-0.979,0.034,0.322,-0.252,-0.469
407,0.008,-0.011,-0.011,0.112,-0.98,0.033,0.325,-0.244,-0.469
408,0.007,-0.011,-0.012,0.113,-0.983,0.031,0.318,-0.247,-0.457
409,0.008,-0.016,-0.012,0.116,-0.983,0.032,0.33,-0.249,-0.46
410,0.008,-0.016,-0.012,0.117,-0.979,0.031,0.33,-0.25,-0.475
411,0.009,-0.018,-0.012,0.115,-0.976,0.03,0.33,-0.25,-0.475
412,0.011,-0.021,-0.011,0.116,-0.972,0.025,0.315,-0.234,-0.465
413,0.011,-0.025,-0.012,0.117,-0.973,0.023,0.304,-0.253,-0.459
414,0.012,-0.026,-0.013,0.118,-0.976,0.025,0.313,-0.25,-0.469
415,0.012,-0.026,-0.014,0.118,-0.978,0.027,0.321,-0.244,-0.457
416,0.012,-0.032,-0.014,0.118,-0.979,0.029,0.33,-0.244,-0.474
417,0.011,-0.037,-0.014,0.12,-0.978,0.029,0.309,-0.255,-0.474
418,0.011,-0.035,-0.014,0.12,-0.981,0.03,0.309,-0.255,-0.474
419,0.009,-0.035,-0.014,0.119,-0.98,0.036,0.322,-0.256,-0.483
420,0.007,-0.042,-0.015,0.119,-0.976,0.037,0.31,-0.252,-0.453
421,0.004,-0.043,-0.015,0.121,-0.977,0.036,0.31,-0.252,-0.453
422,0.004,-0.044,-0.013,0.123,-0.98,0.038,0.321,-0.243,-0.465
423,0.002,-0.044,-0.014,0.121,-0.982,0.036,0.333,-0.243,-0.451
424,0.002,-0.042,-0.014,0.121,-0.983,0.032,0.306,-0.241,-0.472
425,0.002,-0.036,-0.015,0.122,-0.981,0.033,0.306,-0.241,-0.472
426,0.002,-0.034,-0.015,0.122,-0.981,0.033,0.318,-0.24,-0.451
427,0.002,-0.035,-0.014,0.124,-0.977,0.035,0.309,-0.24,-0.441
428,0.002,-0.036,-0.015,0.123,-0.975,0.032,0.304,-0.256,-0.45
429,0.002,-0.033,-0.014,0.12,-0.972,0.027,0.325,-0.24,-0.462
430,0.002,-0.033,-0.014,0.121,-0.968,0.028,0.342,-0.253,-0.468
431,0.004,-0.034,-0.014,0.122,-0.97,0.031,0.336,-0.238,-0.444
432,0.003,-0.038,-0.012,0.123,-0.972,0.032,0.336,-0.238,-0.444
433,0.0,-0.044,-0.012,0.124,-0.975,0.031,0.322,-0.258,-0.465
434,0.0,-0.04,-0.01,0.128,-0.978,0.034,0.315,-0.264,-0.456
435,0.0,-0.046,-0.008,0.13,-0.981,0.038,0.315,-0.264,-0.456
436,-0.002,-0.051,-0.008,0.13,-0.982,0.039,0.321,-0.247,-0.471
437,-0.002,-0.053,-0.007,0.13,-0.981,0.033,0.318,-0.243,-0.457
438,-0.002,-0.045,-0.008,0.129,-0.978,0.023,0.319,-0.244,-0.436
439,0.0,-0.031,-0.009,0.129,-0.972,0.016,0.319,-0.244,-0.436
440,0.001,-0.018,-0.01,0.13,-0.969,0.021,0.309,-0.244,-0.456
441,0.0,-0.016,-0.009,0.133,-0.969,0.032,0.307,-0.24,-0.45
442,0.002,-0.025,-0.007,0.134,-0.972,0.03,0.312,-0.237,-0.453
443,0.003,-0.031,-0.006,0.132,-0.973,0.021,0.316,-0.267,-0.439
444,0.004,-0.032,-0.005,0.132,-0.973,0.021,0.312,-0.24,-0.448
445,0.004,-0.031,-0.004,0.129,-0.972,0.017,0.316,-0.261,-0.448
446,0.003,-0.032,-0.002,0.129,-0.976,0.019,0.316,-0.261,-0.448
447,0.0,-0.033,-0.004,0.132,-0.978,0.02,0.318,-0.25,-0.447
448,-0.001,-0.03,-0.007,0.13,-0.976,0.017,0.286,-0.235,-0.459
449,-0.003,-0.023,-0.009,0.124,-0.974,0.014,0.286,-0.235,-0.459
450,-0.003,-0.023,-0.009,0.125,-0.972,0.013,0.301,-0.241,-0.445
451,-0.004,-0.021,-0.011,0.129,-0.972,0.016,0.322,-0.253,-0.465
452,-0.004,-0.023,-0.013,0.132,-0.973,0.019,0.324,-0.249,-0.463
453,-0.004,-0.021,-0.015,0.132,-0.972,0.021,0.324,-0.249,-0.463
454,-0.002,-0.018,-0.015,0.134,-0.972,0.024,0.33,-0.24,-0.475
455,0.001,-0.021,-0.014,0.138,-0.974,0.027,0.325,-0.237,-0.462
456,0.001,-0.018,-0.013,0.14,-0.975,0.03,0.316,-0.246,-0.442
457,0.001,-0.021,-0.009,0.14,-0.974,0.027,0.301,-0.226,-0.433
458,0.003,-0.022,-0.007,0.138,-0.973,0.021,0.324,-0.244,-0.472
459,0.005,-0.016,-0.006,0.137,-0.973,0.018,0.304,-0.255,-0.456
460,0.007,-0.009,-0.007,0.132,-0.973,0.02,0.304,-0.255,-0.456
461,0.008,-0.002,-0.008,0.129,-0.972,0.025,0.321,-0.262,-0.453
462,0.008,-0.004,-0.009,0.127,-0.974,0.03,0.306,-0.252,-0.451
463,0.005,0.003,-0.01,0.127,-0.975,0.029,0.306,-0.252,-0.451
464,0.0,0.008,-0.013,0.127,-0.974,0.025,0.307,-0.252,-0.471
465,0.0,0.009,-0.015,0.127,-0.974,0.025,0.321,-0.24,-0.456
466,0.002,0.012,-0.014,0.124,-0.971,0.024,0.318,-0.241,-0.465
467,0.003,0.017,-0.014,0.122,-0.971,0.025,0.316,-0.249,-0.459
468,0.003,0.016,-0.013,0.122,-0.973,0.027,0.316,-0.249,-0.459
469,0.0,0.016,-0.014,0.122,-0.977,0.029,0.319,-0.243,-0.457
470,0.0,0.016,-0.014,0.122,-0.98,0.029,0.297,-0.246,-0.456
471,-0.001,0.016,-0.014,0.123,-0.979,0.032,0.315,-0.25,-0.447
472,-0.003,0.013,-0.016,0.122,-0.979,0.031,0.297,-0.24,-0.456
473,-0.002,0.009,-0.017,0.12,-0.98,0.023,0.304,-0.243,-0.462
474,0.001,0.011,-0.018,0.117,-0.978,0.017,0.315,-0.241,-0.477
475,0.005,0.021,-0.018,0.116,-0.975,0.018,0.315,-0.241,-0.477
476,0.01,0.025,-0.02,0.119,-0.973,0.024,0.309,-0.261,-0.439
477,0.007,0.016,-0.019,0.12,-0.974,0.029,0.309,-0.24,-0.456
478,0.007,0.009,-0.016,0.124,-0.975,0.03,0.337,-0.253,-0.459
479,0.007,0.003,-0.013,0.13,-0.975,0.024,0.312,-0.234,-0.471
480,0.011,0.0,-0.01,0.131,-0.974,0.017,0.313,-0.241,-0.436
481,0.015,-0.002,-0.009,0.129,-0.974,0.017,0.324,-0.249,-0.478
482,0.014,0.004,-0.011,0.125,-0.973,0.019,0.324,-0.249,-0.478
483,0.009,0.004,-0.012,0.125,-0.975,0.026,0.291,-0.247,-0.438
484,0.005,0.008,-0.014,0.125,-0.977,0.031,0.291,-0.247,-0.438
485,0.004,0.004,-0.015,0.125,-0.977,0.031,0.319,-0.249,-0.469
486,0.001,0.004,-0.015,0.127,-0.976,0.029,0.31,-0.253,-0.466
487,0.0,0.006,-0.016,0.129,-0.975,0.024,0.313,-0.253,-0.445
488,0.001,0.006,-0.015,0.128,-0.974,0.022,0.319,-0.265,-0.454
489,0.001,0.009,-0.015,0.128,-0.975,0.022,0.319,-0.265,-0.454
490,0.002,0.011,-0.014,0.129,-0.974,0.024,0.327,-0.246,-0.466
491,0.0,0.011,-0.014,0.129,-0.973,0.028,0.315,-0.256,-0.471
492,0.002,0.008,-0.012,0.129,-0.975,0.031,0.316,-0.252,-0.462
493,0.003,0.007,-0.012,0.131,-0.977,0.029,0.322,-0.252,-0.465
494,0.004,0.008,-0.011,0.131,-0.976,0.027,0.319,-0.232,-0.444
495,0.004,0.011,-0.011,0.129,-0.974,0.026,0.306,-0.243,-0.465
496,0.004,0.016,-0.013,0.128,-0.974,0.025,0.306,-0.243,-0.465
497,0.004,0.009,-0.014,0.127,-0.974,0.029,0.297,-0.244,-0.454
498,0.002,0.012,-0.013,0.128,-0.974,0.031,0.297,-0.244,-0.454
499,0.004,0.015,-0.013,0.128,-0.975,0.027,0.313,-0.256,-0.463
500,0.005,0.016,-0.013,0.128,-0.977,0.026,0.34,-0.22,-0.474
501,0.004,0.018,-0.013,0.126,-0.976,0.028,0.31,-0.244,-0.442
502,0.003,0.018,-0.014,0.123,-0.972,0.025,0.322,-0.256,-0.459
503,0.002,0.017,-0.012,0.118,-0.972,0.025,0.322,-0.256,-0.459
504,0.004,0.016,-0.013,0.114,-0.975,0.027,0.309,-0.249,-0.45
505,0.004,0.014,-0.012,0.114,-0.975,0.027,0.324,-0.237,-0.456
506,0.003,0.018,-0.012,0.114,-0.977,0.028,0.327,-0.27,-0.451
507,0.002,0.015,-0.012,0.116,-0.978,0.029,0.315,-0.234,-0.457
508,0.002,0.015,-0.012,0.116,-0.979,0.031,0.307,-0.228,-0.454
509,0.0,0.007,-0.011,0.117,-0.977,0.031,0.307,-0.228,-0.454
510,-0.001,0.001,-0.011,0.117,-0.974,0.03,0.318,-0.261,-0.45
511,-0.003,0.0,-0.011,0.115,-0.976,0.031,0.312,-0.244,-0.465
512,-0.007,-0.003,-0.011,0.117,-0.979,0.032,0.312,-0.244,-0.46
513,-0.007,-0.009,-0.01,0.119,-0.977,0.032,0.316,-0.253,-0.459
514,-0.009,-0.014,-0.007,0.119,-0.976,0.03,0.315,-0.237,-0.474
515,-0.009,-0.016,-0.008,0.119,-0.98,0.026,0.327,-0.246,-0.468
516,-0.007,-0.012,-0.01,0.119,-0.98,0.024,0.327,-0.246,-0.468
517,-0.009,-0.004,-0.011,0.119,-0.977,0.031,0.328,-0.259,-0.471
518,-0.011,-0.001,-0.013,0.121,-0.975,0.034,0.324,-0.234,-0.451
519,-0.009,-0.006,-0.013,0.125,-0.973,0.035,0.328,-0.235,-0.466
520,-0.009,-0.015,-0.011,0.127,-0.973,0.035,0.304,-0.249,-0.453
521,-0.007,-0.021,-0.01,0.127,-0.972,0.03,0.309,-0.25,-0.454
522,-0.005,-0.02,-0.011,0.126,-0.97,0.026,0.322,-0.24,-0.466
523,-0.002,-0.015,-0.011,0.124,-0.972,0.024,0.322,-0.24,-0.466
524,0.0,-0.011,-0.011,0.124,-0.972,0.024,0.286,-0.238,-0.46
525,0.003,-0.007,-0.01,0.125,-0.974,0.027,0.295,-0.249,-0.439
526,0.005,-0.011,-0.009,0.125,-0.975,0.033,0.304,-0.237,-0.441
527,0.007,-0.018,-0.006,0.128,-0.975,0.036,0.325,-0.249,-0.475
528,0.007,-0.018,-0.006,0.129,-0.975,0.033,0.327,-0.241,-0.454
529,0.008,-0.021,-0.005,0.126,-0.977,0.03,0.316,-0.243,-0.462
530,0.007,-0.023,-0.006,0.125,-0.977,0.032,0.316,-0.243,-0.462
531,0.007,-0.021,-0.007,0.124,-0.975,0.03,0.304,-0.252,-0.463
532,0.007,-0.016,-0.007,0.125,-0.975,0.027,0.313,-0.246,-0.445
533,0.004,-0.013,-0.009,0.127,-0.973,0.028,0.303,-0.25,-0.445
534,0.004,-0.008,-0.009,0.129,-0.972,0.03,0.321,-0.231,-0.454
535,0.004,-0.008,-0.009,0.131,-0.975,0.033,0.312,-0.238,-0.462
536,0.003,-0.011,-0.008,0.131,-0.974,0.031,0.319,-0.262,-0.456
537,0.003,-0.012,-0.007,0.129,-0.972,0.028,0.319,-0.262,-0.456
538,0.004,-0.012,-0.008,0.13,-0.972,0.03,0.322,-0.24,-0.469
539,0.004,-0.018,-0.007,0.132,-0.973,0.031,0.319,-0.259,-0.441
540,0.007,-0.011,-0.007,0.131,-0.975,0.032,0.315,-0.249,-0.441
541,0.007,-0.01,-0.007,0.133,-0.975,0.034,0.316,-0.243,-0.46
542,0.007,-0.008,-0.007,0.135,-0.976,0.034,0.304,-0.243,-0.465
543,0.005,-0.009,-0.007,0.134,-0.978,0.034,0.318,-0.246,-0.444
544,0.004,-0.011,-0.009,0.134,-0.978,0.034,0.318,-0.246,-0.444
545,0.004,-0.007,-0.009,0.132,-0.977,0.031,0.312,-0.237,-0.456
546,0.004,-0.009,-0.009,0.133,-0.974,0.027,0.315,-0.247,-0.438
547,0.003,-0.004,-0.009,0.132,-0.973,0.028,0.315,-0.247,-0.438
548,0.004,-0.001,-0.01,0.129,-0.971,0.029,0.34,-0.253,-0.463
549,0.004,-0.001,-0.01,0.13,-0.972,0.031,0.322,-0.255,-0.475
550,0.002,-0.001,-0.011,0.128,-0.974,0.03,0.312,-0.256,-0.459
551,0.003,0.0,-0.01,0.129,-0.974,0.027,0.312,-0.256,-0.459
552,0.005,0.001,-0.011,0.133,-0.973,0.028,0.307,-0.261,-0.447
553,0.004,-0.002,-0.01,0.133,-0.973,0.027,0.291,-0.258,-0.469
554,0.007,0.003,-0.011,0.133,-0.974,0.027,0.31,-0.258,-0.457
555,0.007,0.01,-0.011,0.131,-0.975,0.027,0.319,-0.247,-0.466
556,0.006,0.011,-0.011,0.13,-0.974,0.025,0.315,-0.241,-0.469
557,0.005,0.009,-0.01,0.129,-0.973,0.025,0.303,-0.234,-0.477
558,0.004,0.011,-0.011,0.127,-0.973,0.024,0.303,-0.234,-0.477
559,0.004,0.014,-0.011,0.127,-0.973,0.024,0.322,-0.24,-0.451
560,0.005,0.007,-0.011,0.129,-0.971,0.029,0.307,-0.247,-0.439
561,0.004,0.009,-0.011,0.131,-0.972,0.032,0.307,-0.247,-0.439
562,0.003,0.009,-0.01,0.129,-0.974,0.028,0.315,-0.246,-0.45
563,0.004,0.008,-0.009,0.129,-0.974,0.028,0.316,-0.24,-0.465
564,0.004,0.007,-0.01,0.127,-0.976,0.025,0.327,-0.249,-0.448
565,0.002,0.003,-0.011,0.128,-0.977,0.027,0.327,-0.249,-0.448
566,0.005,0.004,-0.01,0.129,-0.976,0.023,0.334,-0.241,-0.454
567,0.007,0.001,-0.01,0.127,-0.973,0.021,0.304,-0.258,-0.477
568,0.007,0.001,-0.01,0.124,-0.972,0.024,0.318,-0.25,-0.468
569,0.003,0.002,-0.011,0.123,-0.973,0.026,0.307,-0.252,-0.477
570,0.001,0.001,-0.013,0.127,-0.974,0.026,0.297,-0.243,-0.45
571,0.002,-0.002,-0.014,0.13,-0.977,0.025,0.321,-0.261,-0.45
572,0.002,-0.004,-0.014,0.128,-0.98,0.025,0.321,-0.261,-0.45
573,0.004,-0.005,-0.014,0.126,-0.978,0.025,0.331,-0.238,-0.474
574,0.004,0.004,-0.015,0.128,-0.976,0.025,0.322,-0.247,-0.438
575,0.008,-0.001,-0.015,0.13,-0.975,0.027,0.298,-0.235,-0.456
576,0.009,-0.004,-0.014,0.129,-0.973,0.029,0.315,-0.253,-0.454
577,0.01,-0.007,-0.012,0.129,-0.972,0.032,0.315,-0.241,-0.468
578,0.009,-0.008,-0.012,0.13,-0.972,0.03,0.306,-0.258,-0.459
579,0.009,-0.009,-0.011,0.132,-0.973,0.029,0.306,-0.258,-0.459
580,0.009,-0.011,-0.01,0.134,-0.974,0.03,0.316,-0.241,-0.463
581,0.011,-0.009,-0.01,0.134,-0.974,0.03,0.286,-0.234,-0.459
582,0.008,-0.011,-0.01,0.134,-0.974,0.031,0.286,-0.234,-0.459
583,0.004,-0.012,-0.011,0.134,-0.976,0.03,0.301,-0.252,-0.456
584,0.006,-0.008,-0.012,0.132,-0.976,0.03,0.3,-0.25,-0.456
585,0.006,-0.007,-0.014,0.13,-0.977,0.027,0.315,-0.238,-0.463
586,0.005,-0.007,-0.014,0.131,-0.977,0.028,0.333,-0.234,-0.469
587,0.005,-0.007,-0.014,0.131,-0.974,0.028,0.333,-0.234,-0.469
588,0.004,-0.004,-0.014,0.131,-0.971,0.026,0.309,-0.246,-0.448
589,0.005,-0.002,-0.013,0.132,-0.973,0.026,0.324,-0.253,-0.457
590,0.007,-0.002,-0.013,0.133,-0.975,0.025,0.324,-0.261,-0.454
591,0.009,-0.002,-0.012,0.135,-0.974,0.026,0.328,-0.246,-0.453
592,0.01,0.0,-0.011,0.134,-0.972,0.026,0.309,-0.258,-0.475
593,0.011,0.0,-0.011,0.134,-0.974,0.025,0.309,-0.258,-0.475
594,0.014,0.0,-0.011,0.131,-0.973,0.026,0.324,-0.25,-0.457
595,0.013,0.007,-0.011,0.128,-0.973,0.025,0.312,-0.255,-0.45
596,0.013,0.003,-0.01,0.126,-0.975,0.02,0.307,-0.241,-0.457
597,0.011,0.002,-0.011,0.126,-0.974,0.021,0.321,-0.24,-0.46
598,0.01,0.003,-0.013,0.128,-0.973,0.024,0.306,-0.241,-0.447
599,0.008,0.003,-0.013,0.132,-0.973,0.023,0.312,-0.24,-0.45
600,0.006,0.004,-0.013,0.133,-0.975,0.023,0.312,-0.24,-0.45
601,0.007,0.005,-0.012,0.131,-0.974,0.022,0.318,-0.235,-0.448
602,0.007,0.0,-0.011,0.128,-0.974,0.016,0.31,-0.25,-0.456
603,0.008,0.009,-0.011,0.128,-0.974,0.016,0.309,-0.247,-0.451
604,0.01,0.013,-0.009,0.129,-0.978,0.017,0.312,-0.268,-0.456
605,0.011,0.017,-0.008,0.13,-0.981,0.021,0.322,-0.256,-0.472
606,0.011,0.028,-0.009,0.128,-0.98,0.024,0.322,-0.256,-0.447
607,0.011,0.028,-0.009,0.123,-0.974,0.028,0.322,-0.256,-0.447
608,0.009,0.028,-0.011,0.122,-0.97,0.027,0.336,-0.27,-0.457
609,0.007,0.021,-0.014,0.122,-0.971,0.022,0.298,-0.261,-0.436
610,0.007,0.023,-0.014,0.119,-0.973,0.015,0.298,-0.261,-0.436
611,0.007,0.034,-0.014,0.118,-0.972,0.015,0.316,-0.267,-0.456
612,0.004,0.043,-0.015,0.121,-0.97,0.024,0.31,-0.255,-0.451
613,0.001,0.049,-0.014,0.122,-0.971,0.028,0.313,-0.249,-0.459
614,-0.002,0.059,-0.015,0.12,-0.973,0.03,0.313,-0.249,-0.459
615,-0.001,0.064,-0.015,0.119,-0.977,0.028,0.316,-0.24,-0.462
616,-0.003,0.071,-0.015,0.122,-0.982,0.027,0.316,-0.247,-0.469
617,0.005,0.069,-0.012,0.12,-0.981,0.03,0.319,-0.25,-0.456
618,0.013,0.072,-0.009,0.113,-0.978,0.032,0.309,-0.253,-0.453
619,0.017,0.07,-0.004,0.107,-0.974,0.034,0.313,-0.231,-0.46
620,0.02,0.069,-0.001,0.105,-0.969,0.037,0.328,-0.249,-0.454
621,0.021,0.071,0.002,0.103,-0.965,0.03,0.328,-0.249,-0.454
622,0.016,0.074,0.003,0.1,-0.957,0.021,0.315,-0.241,-0.462
623,0.003,0.085,0.0,0.1,-0.957,0.021,0.3,-0.25,-0.471
624,-0.004,0.086,-0.004,0.095,-0.946,0.012,0.3,-0.25,-0.471
625,-0.01,0.086,-0.003,0.089,-0.941,0.008,0.316,-0.246,-0.48
626,-0.011,0.077,0.004,0.089,-0.948,0.019,0.316,-0.264,-0.459
627,-0.011,0.077,0.004,0.094,-0.961,0.036,0.331,-0.246,-0.462
628,-0.017,0.061,0.014,0.096,-0.972,0.047,0.331,-0.246,-0.462
629,-0.023,0.056,0.024,0.09,-0.976,0.055,0.313,-0.234,-0.471
630,-0.025,0.056,0.034,0.09,-0.977,0.058,0.321,-0.238,-0.462
631,-0.021,0.051,0.043,0.099,-0.979,0.06,0.315,-0.246,-0.448
632,-0.009,0.046,0.051,0.104,-0.975,0.061,0.31,-0.259,-0.456
633,0.002,0.036,0.054,0.105,-0.964,0.063,0.313,-0.244,-0.435
634,0.01,0.023,0.053,0.102,-0.961,0.062,0.307,-0.246,-0.471
635,0.015,0.019,0.046,0.099,-0.963,0.06,0.307,-0.246,-0.471
636,0.022,0.021,0.039,0.098,-0.961,0.056,0.321,-0.24,-0.469
637,0.032,0.027,0.035,0.098,-0.964,0.052,0.31,-0.25,-0.445
638,0.042,0.017,0.036,0.106,-0.973,0.052,0.3,-0.247,-0.471
639,0.057,0.016,0.039,0.11,-0.981,0.054,0.324,-0.235,-0.469
640,0.072,0.016,0.046,0.114,-0.985,0.061,0.316,-0.235,-0.468
641,0.083,0.01,0.056,0.117,-0.986,0.068,0.315,-0.241,-0.462
642,0.093,-0.007,0.067,0.115,-0.986,0.066,0.315,-0.241,-0.462
643,0.1,-0.024,0.074,0.115,-0.986,0.066,0.325,-0.244,-0.475
644,0.102,-0.039,0.078,0.107,-0.983,0.064,0.303,-0.241,-0.465
645,0.106,-0.052,0.077,0.092,-0.981,0.068,0.31,-0.241,-0.465
646,0.106,-0.058,0.072,0.074,-0.976,0.069,0.31,-0.255,-0.466
647,0.106,-0.058,0.072,0.063,-0.966,0.07,0.294,-0.252,-0.454
648,0.103,-0.068,0.065,0.069,-0.958,0.068,0.304,-0.243,-0.459
649,0.11,-0.088,0.065,0.078,-0.95,0.066,0.304,-0.243,-0.459
650,0.109,-0.111,0.063,0.094,-0.944,0.064,0.3,-0.243,-0.462
651,0.111,-0.128,0.066,0.113,-0.941,0.052,0.289,-0.232,-0.453
652,0.11,-0.135,0.072,0.125,-0.942,0.051,0.301,-0.249,-0.46
653,0.112,-0.141,0.081,0.128,-0.945,0.061,0.304,-0.243,-0.463
654,0.108,-0.152,0.088,0.129,-0.952,0.057,0.285,-0.249,-0.456
655,0.103,-0.165,0.091,0.133,-0.964,0.05,0.301,-0.256,-0.456
656,0.102,-0.175,0.094,0.134,-0.972,0.057,0.301,-0.256,-0.456
657,0.106,-0.189,0.099,0.139,-0.972,0.057,0.277,-0.243,-0.46
658,0.106,-0.209,0.105,0.151,-0.961,0.054,0.282,-0.244,-0.429
659,0.106,-0.241,0.109,0.159,-0.949,0.043,0.282,-0.244,-0.429
660,0.107,-0.256,0.112,0.169,-0.94,0.022,0.294,-0.234,-0.438
661,0.107,-0.256,0.107,0.169,-0.94,0.022,0.279,-0.24,-0.453
662,0.116,-0.233,0.104,0.178,-0.928,0.028,0.3,-0.244,-0.435
663,0.114,-0.207,0.099,0.206,-0.921,0.007,0.3,-0.244,-0.435
664,0.108,-0.204,0.092,0.229,-0.921,-0.003,0.273,-0.226,-0.423
665,0.093,-0.21,0.079,0.237,-0.924,0.027,0.291,-0.252,-0.427
666,0.077,-0.214,0.075,0.258,-0.934,0.024,0.271,-0.249,-0.433
667,0.077,-0.214,0.075,0.275,-0.967,0.027,0.283,-0.249,-0.436
668,0.066,-0.247,0.095,0.301,-1.006,0.021,0.3,-0.252,-0.418
669,0.079,-0.284,0.148,0.305,-1.031,0.046,0.274,-0.235,-0.436
670,0.07,-0.368,0.178,0.294,-1.032,0.095,0.274,-0.235,-0.436
671,0.058,-0.468,0.2,0.304,-0.997,0.067,0.283,-0.229,-0.423
672,0.056,-0.419,0.175,0.312,-0.931,-0.034,0.261,-0.214,-0.415
673,0.047,-0.368,0.143,0.298,-0.923,-0.018,0.282,-0.235,-0.409
674,0.011,-0.368,0.114,0.292,-0.934,0.002,0.274,-0.232,-0.411
675,0.015,-0.39,0.096,0.271,-0.96,0.028,0.273,-0.219,-0.423
676,0.001,-0.413,0.07,0.245,-0.966,0.037,0.262,-0.229,-0.391
677,-0.033,-0.385,0.033,0.261,-0.945,-0.017,0.262,-0.229,-0.391
678,-0.031,-0.273,-0.004,0.327,-0.945,-0.095,0.256,-0.222,-0.406
679,0.016,-0.172,0.014,0.357,-0.969,-0.112,0.259,-0.22,-0.402
680,0.04,-0.132,0.036,0.319,-0.99,-0.064,0.252,-0.217,-0.391
681,0.067,-0.135,0.054,0.319,-0.99,-0.064,0.255,-0.238,-0.403
682,0.09,-0.14,0.07,0.301,-0.986,-0.037,0.259,-0.222,-0.408
683,0.112,-0.151,0.076,0.305,-0.979,-0.04,0.255,-0.234,-0.409
684,0.117,-0.147,0.064,0.296,-0.979,-0.034,0.255,-0.234,-0.409
685,0.112,-0.123,0.044,0.271,-0.963,-0.017,0.24,-0.223,-0.397
686,0.112,-0.123,0.044,0.261,-0.946,-0.018,0.24,-0.223,-0.397
687,0.119,-0.091,0.03,0.277,-0.947,-0.015,0.238,-0.228,-0.396
688,0.128,-0.062,0.018,0.29,-0.942,0.005,0.249,-0.223,-0.4
689,0.13,-0.049,0.003,0.301,-0.928,0.015,0.244,-0.231,-0.394
690,0.14,-0.06,-0.002,0.31,-0.92,0.006,0.247,-0.222,-0.396
691,0.145,-0.063,-0.007,0.297,-0.911,-0.006,0.247,-0.222,-0.396
692,0.152,-0.063,-0.008,0.269,-0.899,-0.022,0.271,-0.234,-0.399
693,0.152,-0.043,-0.014,0.246,-0.89,-0.029,0.234,-0.237,-0.385
694,0.154,-0.032,-0.026,0.25,-0.897,-0.025,0.252,-0.231,-0.4
695,0.157,-0.034,-0.036,0.258,-0.907,-0.011,0.249,-0.235,-0.375
696,0.173,-0.035,-0.037,0.271,-0.924,0.005,0.246,-0.228,-0.396
697,0.185,-0.039,-0.033,0.282,-0.945,0.018,0.253,-0.246,-0.381
698,0.193,-0.042,-0.023,0.278,-0.955,0.026,0.253,-0.246,-0.381
699,0.212,-0.067,-0.02,0.264,-0.959,0.033,0.244,-0.223,-0.375
700,0.217,-0.084,-0.027,0.261,-0.954,0.04,0.244,-0.223,-0.375
701,0.214,-0.093,-0.035,0.261,-0.954,0.04,0.247,-0.238,-0.388
702,0.217,-0.097,-0.053,0.267,-0.937,0.033,0.262,-0.216,-0.376
703,0.222,-0.091,-0.07,0.269,-0.932,0.025,0.237,-0.235,-0.379
704,0.232,-0.078,-0.082,0.272,-0.924,0.012,0.255,-0.228,-0.391
705,0.232,-0.078,-0.082,0.271,-0.911,0.0,0.255,-0.228,-0.391
706,0.244,-0.07,-0.102,0.276,-0.916,0.001,0.241,-0.223,-0.384
707,0.257,-0.055,-0.116,0.282,-0.918,0.008,0.253,-0.235,-0.372
708,0.26,-0.048,-0.13,0.284,-0.917,0.022,0.246,-0.235,-0.375
709,0.256,-0.051,-0.144,0.285,-0.923,0.032,0.252,-0.234,-0.385
710,0.254,-0.06,-0.152,0.296,-0.932,0.032,0.256,-0.25,-0.375
711,0.252,-0.07,-0.156,0.312,-0.932,0.019,0.256,-0.243,-0.376
712,0.247,-0.069,-0.162,0.321,-0.933,0.015,0.256,-0.243,-0.376
713,0.239,-0.068,-0.17,0.321,-0.937,0.023,0.237,-0.228,-0.346
714,0.219,-0.092,-0.173,0.312,-0.942,0.018,0.237,-0.228,-0.373
715,0.201,-0.094,-0.181,0.294,-0.948,0.012,0.267,-0.247,-0.358
716,0.184,-0.093,-0.194,0.283,-0.96,0.031,0.258,-0.241,-0.345
717,0.171,-0.116,-0.206,0.266,-0.977,0.062,0.256,-0.249,-0.354
718,0.149,-0.148,-0.217,0.257,-0.999,0.073,0.261,-0.235,-0.348
719,0.138,-0.177,-0.217,0.269,-1.033,0.081,0.261,-0.235,-0.348
720,0.126,-0.21,-0.209,0.269,-1.033,0.081,0.256,-0.24,-0.345
721,0.121,-0.241,-0.2,0.285,-1.051,0.077,0.256,-0.24,-0.345
722,0.116,-0.24,-0.189,0.302,-1.053,0.052,0.25,-0.24,-0.352
723,0.119,-0.221,-0.179,0.311,-1.046,0.038,0.265,-0.267,-0.352
724,0.113,-0.195,-0.175,0.321,-1.041,0.04,0.268,-0.252,-0.352
725,0.113,-0.195,-0.175,0.337,-1.05,0.047,0.261,-0.247,-0.349
726,0.1,-0.139,-0.182,0.354,-1.07,0.064,0.261,-0.247,-0.349
727,0.064,-0.093,-0.195,0.37,-1.11,0.105,0.28,-0.271,-0.345
728,-0.009,-0.067,-0.202,0.392,-1.164,0.152,0.274,-0.241,-0.343
729,-0.101,-0.064,-0.2,0.418,-1.215,0.177,0.267,-0.259,-0.346
730,-0.219,-0.038,-0.197,0.442,-1.237,0.163,0.282,-0.282,-0.348
731,-0.329,0.0,-0.196,0.464,-1.223,0.115,0.274,-0.25,-0.367
732,-0.44,0.068,-0.195,0.452,-1.19,0.046,0.28,-0.244,-0.361
733,-0.544,0.182,-0.194,0.402,-1.146,-0.011,0.28,-0.244,-0.361
734,-0.628,0.339,-0.189,0.345,-1.098,-0.032,0.28,-0.252,-0.366
735,-0.703,0.485,-0.176,0.289,-1.059,-0.033,0.28,-0.252,-0.366
736,-0.791,0.598,-0.154,0.233,-1.033,-0.047,0.301,-0.252,-0.387
737,-0.863,0.642,-0.115,0.193,-1.02,-0.061,0.291,-0.265,-0.385
738,-0.93,0.674,-0.089,0.128,-0.984,-0.05,0.294,-0.246,-0.406
739,-1.004,0.759,-0.06,0.045,-0.942,-0.047,0.294,-0.246,-0.406
740,-1.022,0.83,-0.006,0.045,-0.942,-0.047,0.277,-0.247,-0.414
741,-1.02,0.932,0.044,0.046,-0.942,-0.074,0.294,-0.256,-0.421
742,-1.218,0.909,0.027,0.039,-0.983,-0.035,0.307,-0.241,-0.456
743,-1.453,0.725,0.011,-0.032,-1.098,0.159,0.312,-0.228,-0.45
744,-1.497,0.441,0.039,0.028,-1.21,0.274,0.289,-0.225,-0.462
745,-1.497,0.441,0.039,0.117,-1.242,0.258,0.292,-0.225,-0.477
746,-1.467,0.17,0.071,0.138,-1.222,0.199,0.292,-0.225,-0.477
747,-1.402,-0.022,0.105,0.165,-1.25,0.104,0.303,-0.22,-0.492
748,-1.429,-0.098,0.09,0.147,-1.282,-0.007,0.306,-0.22,-0.517
749,-1.356,-0.002,0.093,0.157,-1.169,-0.204,0.295,-0.189,-0.51
750,-1.187,0.165,0.139,0.187,-1.058,-0.292,0.315,-0.196,-0.513
751,-0.971,0.314,0.201,0.202,-1.044,-0.285,0.315,-0.174,-0.52
752,-0.75,0.381,0.33,0.3,-1.06,-0.221,0.321,-0.18,-0.553
753,-0.807,0.853,0.468,0.371,-1.132,-0.124,0.301,-0.174,-0.562
754,-0.882,1.366,0.533,0.323,-1.198,-0.054,0.301,-0.174,-0.562
755,-0.826,1.579,0.623,0.332,-1.191,-0.011,0.318,-0.169,-0.556
756,-0.839,1.738,0.753,0.331,-1.176,0.062,0.303,-0.18,-0.58
757,-0.878,1.914,0.781,0.242,-1.103,0.152,0.301,-0.151,-0.571
758,-0.918,1.933,0.716,0.14,-0.952,0.189,0.325,-0.147,-0.6
759,-0.774,1.896,0.647,0.14,-0.952,0.189,0.319,-0.121,-0.607
760,-0.681,1.91,0.622,0.088,-0.846,0.142,0.357,-0.126,-0.63
761,-0.657,2.024,0.49,0.06,-0.781,0.031,0.357,-0.126,-0.63
762,-0.658,1.878,0.367,0.047,-0.729,0.0,0.349,-0.114,-0.619
763,-0.658,1.715,0.231,0.026,-0.726,0.169,0.361,-0.097,-0.625
764,-0.581,1.589,0.135,-0.011,-0.753,0.285,0.361,-0.097,-0.625
765,-0.581,1.589,0.135,-0.007,-0.771,0.21,0.405,-0.087,-0.651
766,-0.534,1.522,-0.007,0.008,-0.854,0.205,0.406,-0.099,-0.688
767,-0.597,1.44,-0.017,-0.054,-0.754,0.174,0.403,-0.102,-0.669
768,-0.529,1.38,-0.114,-0.182,-0.491,0.162,0.403,-0.102,-0.669
769,-0.375,1.258,-0.207,-0.19,-0.464,0.225,0.426,-0.082,-0.687
770,-0.21,1.045,-0.228,-0.145,-0.529,0.281,0.43,-0.082,-0.684
771,-0.07,0.78,-0.231,-0.12,-0.543,0.321,0.43,-0.082,-0.684
772,0.052,0.543,-0.219,-0.12,-0.552,0.31,0.435,-0.075,-0.675
773,0.168,0.385,-0.187,-0.124,-0.59,0.287,0.459,-0.084,-0.685
774,0.27,0.282,-0.152,-0.098,-0.616,0.286,0.442,-0.091,-0.684
775,0.369,0.189,-0.095,-0.106,-0.61,0.303,0.442,-0.091,-0.684
776,0.461,0.105,-0.051,-0.112,-0.591,0.325,0.462,-0.081,-0.678
777,0.527,0.037,-0.014,-0.078,-0.568,0.327,0.438,-0.087,-0.663
778,0.553,-0.028,0.015,-0.039,-0.556,0.347,0.459,-0.058,-0.673
779,0.604,-0.101,0.06,-0.002,-0.563,0.391,0.469,-0.084,-0.667
780,0.644,-0.167,0.105,-0.002,-0.563,0.391,0.466,-0.088,-0.669
781,0.674,-0.221,0.145,0.038,-0.604,0.456,0.448,-0.078,-0.693
782,0.692,-0.264,0.177,0.063,-0.641,0.529,0.471,-0.088,-0.658
783,0.692,-0.264,0.177,0.068,-0.663,0.592,0.471,-0.088,-0.658
784,0.696,-0.297,0.223,0.045,-0.681,0.629,0.444,-0.093,-0.64
785,0.683,-0.317,0.256,0.027,-0.715,0.642,0.444,-0.093,-0.64
786,0.676,-0.326,0.3,0.03,-0.783,0.656,0.457,-0.096,-0.655
787,0.653,-0.301,0.351,0.039,-0.872,0.678,0.435,-0.112,-0.655
788,0.597,-0.226,0.386,0.068,-0.958,0.712,0.445,-0.115,-0.642
789,0.501,-0.109,0.386,0.09,-1.044,0.751,0.445,-0.115,-0.642
790,0.336,-0.004,0.338,0.12,-1.17,0.783,0.45,-0.139,-0.64
791,0.124,0.003,0.236,0.153,-1.329,0.766,0.447,-0.111,-0.625
792,-0.022,-0.192,0.149,0.165,-1.45,0.654,0.456,-0.121,-0.651
793,0.044,-0.449,0.107,0.157,-1.469,0.513,0.442,-0.121,-0.66
794,0.16,-0.459,0.089,0.063,-1.401,0.569,0.453,-0.129,-0.637
795,0.126,-0.06,0.041,-0.073,-1.162,0.679,0.43,-0.111,-0.651
796,0.001,0.499,-0.015,-0.205,-0.729,0.692,0.43,-0.111,-0.651
797,0.021,0.886,-0.089,-0.335,-0.4,0.702,0.45,-0.106,-0.639
798,0.104,0.876,-0.105,-0.376,-0.397,0.621,0.451,-0.103,-0.628
799,0.137,0.532,-0.046,-0.376,-0.69,0.455,0.451,-0.103,-0.628
800,0.035,0.054,0.028,-0.242,-0.69,0.455,0.45,-0.096,-0.637
801,-0.069,-0.353,0.026,-0.058,-1.189,0.24,0.462,-0.109,-0.646
802,-0.092,-0.625,-0.047,0.048,-1.703,0.033,0.45,-0.12,-0.645
803,-0.092,-0.625,-0.047,0.119,-1.962,-0.043,0.45,-0.12,-0.645
804,-0.056,-0.655,-0.06,0.187,-1.955,-0.01,0.447,-0.111,-0.655
805,-0.109,-0.401,-0.016,0.224,-1.649,0.15,0.46,-0.096,-0.627
806,-0.226,-0.301,0.052,0.12,-1.08,0.217,0.451,-0.1,-0.613
807,-0.14,-0.564,0.098,-0.035,-0.628,0.036,0.456,-0.097,-0.628
808,-0.075,-0.798,0.075,-0.138,-0.476,-0.037,0.45,-0.106,-0.622
809,-0.155,-0.764,0.002,-0.123,-0.489,0.042,0.45,-0.106,-0.622
810,-0.193,-0.733,-0.065,-0.016,-0.558,0.122,0.445,-0.075,-0.619
811,-0.095,-1.04,-0.088,0.142,-0.684,0.091,0.442,-0.094,-0.61
812,0.171,-1.62,-0.065,0.379,-0.851,-0.153,0.42,-0.088,-0.618
813,0.455,-1.988,0.018,0.585,-1.118,-0.354,0.408,-0.078,-0.6
814,0.599,-1.848,0.181,0.742,-1.349,-0.384,0.394,-0.088,-0.595
815,0.557,-1.443,0.377,0.736,-1.354,-0.212,0.39,-0.075,-0.601
816,0.382,-1.138,0.441,0.43,-1.117,0.105,0.396,-0.093,-0.588
817,0.315,-1.057,0.362,0.061,-0.717,0.211,0.396,-0.093,-0.588
818,0.352,-0.968,0.147,-0.138,-0.476,0.152,0.372,-0.082,-0.579
819,0.411,-0.845,-0.06,-0.138,-0.476,0.152,0.385,-0.085,-0.562
820,0.365,-1.049,-0.194,-0.185,-0.464,0.114,0.367,-0.09,-0.573
821,0.445,-1.595,-0.273,-0.245,-0.592,0.301,0.378,-0.084,-0.559
822,0.652,-2.212,-0.224,-0.192,-0.727,0.451,0.354,-0.09,-0.555
823,0.652,-2.212,-0.224,0.145,-0.842,0.214,0.34,-0.105,-0.541
824,0.586,-2.124,-0.098,0.46,-1.008,-0.224,0.34,-0.105,-0.541
825,0.591,-1.696,0.046,0.599,-1.067,-0.433,0.34,-0.085,-0.526
826,0.611,-1.382,0.147,0.63,-1.01,-0.352,0.324,-0.09,-0.496
827,0.745,-1.179,0.233,0.572,-0.948,-0.215,0.324,-0.09,-0.496
828,0.738,-1.12,0.27,0.504,-0.884,-0.094,0.321,-0.112,-0.484
829,0.63,-0.996,0.182,0.372,-0.802,0.07,0.321,-0.106,-0.499
830,0.522,-0.802,0.053,0.273,-0.738,0.021,0.327,-0.097,-0.462
831,0.585,-0.597,0.018,0.279,-0.762,-0.072,0.327,-0.097,-0.462
832,0.539,-0.452,-0.007,0.294,-0.829,0.05,0.318,-0.105,-0.475
833,0.45,-0.442,-0.089,0.299,-0.843,0.129,0.283,-0.117,-0.451
834,0.537,-0.382,-0.02,0.362,-0.882,0.089,0.283,-0.117,-0.451
835,0.517,-0.403,-0.008,0.381,-0.896,0.049,0.33,-0.117,-0.469
836,0.438,-0.406,-0.064,0.322,-0.84,0.064,0.316,-0.121,-0.457
837,0.387,-0.341,-0.124,0.314,-0.809,0.001,0.313,-0.126,-0.444
838,0.361,-0.26,-0.175,0.303,-0.824,0.008,0.313,-0.126,-0.444
839,0.382,-0.267,-0.175,0.303,-0.824,0.008,0.307,-0.109,-0.448
840,0.396,-0.299,-0.177,0.292,-0.849,0.039,0.309,-0.133,-0.408
841,0.404,-0.301,-0.191,0.285,-0.854,0.027,0.301,-0.111,-0.415
842,0.403,-0.302,-0.211,0.274,-0.864,0.019,0.316,-0.111,-0.447
843,0.443,-0.309,-0.225,0.274,-0.864,0.005,0.304,-0.12,-0.423
844,0.443,-0.309,-0.225,0.281,-0.855,-0.026,0.297,-0.118,-0.408
845,0.491,-0.292,-0.247,0.264,-0.861,-0.036,0.297,-0.118,-0.408
846,0.532,-0.285,-0.271,0.256,-0.867,-0.034,0.295,-0.123,-0.414
847,0.588,-0.282,-0.295,0.265,-0.892,-0.001,0.304,-0.121,-0.4
848,0.619,-0.278,-0.309,0.285,-0.935,0.05,0.304,-0.121,-0.4
849,0.616,-0.316,-0.316,0.289,-0.968,0.103,0.31,-0.109,-0.403
850,0.585,-0.345,-0.319,0.277,-0.986,0.148,0.313,-0.127,-0.403
851,0.511,-0.356,-0.324,0.274,-0.995,0.138,0.312,-0.126,-0.375
852,0.43,-0.357,-0.343,0.284,-1.012,0.105,0.312,-0.126,-0.375
853,0.347,-0.361,-0.356,0.303,-1.024,0.096,0.301,-0.135,-0.366
854,0.261,-0.375,-0.349,0.302,-1.037,0.111,0.307,-0.126,-0.376
855,0.175,-0.405,-0.333,0.297,-1.053,0.142,0.286,-0.129,-0.381
856,0.084,-0.437,-0.319,0.325,-1.071,0.148,0.303,-0.133,-0.363
857,0.002,-0.424,-0.308,0.375,-1.087,0.102,0.312,-0.138,-0.364
858,-0.034,-0.39,-0.29,0.375,-1.087,0.102,0.306,-0.138,-0.373
859,-0.035,-0.308,-0.287,0.387,-1.069,0.073,0.306,-0.138,-0.373
860,-0.008,-0.226,-0.273,0.355,-1.047,0.101,0.316,-0.138,-0.372
861,0.039,-0.221,-0.232,0.344,-1.078,0.177,0.31,-0.126,-0.352
862,-0.002,-0.302,-0.173,0.369,-1.148,0.268,0.31,-0.126,-0.352
863,-0.002,-0.302,-0.173,0.398,-1.18,0.341,0.307,-0.138,-0.354
864,-0.108,-0.391,-0.185,0.406,-1.133,0.288,0.307,-0.136,-0.34
865,-0.266,-0.375,-0.252,0.48,-1.115,0.084,0.312,-0.129,-0.352
866,-0.398,-0.239,-0.284,0.614,-1.176,-0.093,0.312,-0.129,-0.352
867,-0.52,0.018,-0.239,0.739,-1.234,-0.161,0.321,-0.141,-0.349
868,-0.66,0.351,-0.126,0.797,-1.242,-0.21,0.333,-0.135,-0.354
869,-0.78,0.676,-0.013,0.738,-1.227,-0.272,0.292,-0.127,-0.358
870,-0.891,0.906,0.095,0.512,-1.257,-0.216,0.3,-0.117,-0.36
871,-1.08,1.015,0.127,0.189,-1.281,-0.094,0.304,-0.115,-0.387
872,-1.201,1.025,0.137,0.057,-1.286,-0.068,0.307,-0.12,-0.4
873,-1.176,1.041,0.216,0.097,-1.336,-0.124,0.307,-0.12,-0.4
874,-1.159,1.147,0.26,0.112,-1.419,-0.134,0.31,-0.118,-0.399
875,-1.169,1.134,0.269,0.022,-1.486,-0.043,0.301,-0.097,-0.405
876,-1.127,0.992,0.261,-0.096,-1.504,0.04,0.301,-0.097,-0.405
877,-1.045,0.76,0.335,-0.138,-1.472,0.106,0.303,-0.094,-0.43
878,-1.12,0.3,0.316,-0.138,-1.472,0.106,0.31,-0.079,-0.423
879,-1.345,-0.027,0.196,-0.141,-1.43,0.164,0.31,-0.079,-0.423
880,-1.501,-0.128,0.162,-0.09,-1.403,0.071,0.307,-0.093,-0.435
881,-1.775,-0.055,0.221,-0.013,-1.33,-0.073,0.313,-0.075,-0.457
882,-1.775,-0.055,0.221,0.017,-1.223,-0.109,0.318,-0.073,-0.436
883,-1.889,0.119,0.155,0.003,-1.13,-0.162,0.307,-0.073,-0.436
884,-1.759,0.225,0.041,-0.005,-1.055,-0.251,0.316,-0.063,-0.454
885,-1.426,0.436,0.039,0.053,-1.008,-0.302,0.31,-0.046,-0.459
886,-1.248,0.767,0.025,0.151,-0.996,-0.177,0.315,-0.045,-0.49
887,-1.274,0.984,0.063,0.264,-0.96,-0.028,0.315,-0.045,-0.49
888,-1.306,0.896,0.189,0.337,-0.969,0.152,0.306,-0.036,-0.49
889,-1.477,0.891,0.266,0.228,-0.903,0.127,0.322,-0.028,-0.474
890,-1.028,1.211,0.324,0.217,-0.851,-0.248,0.319,-0.013,-0.489
891,-0.83,1.679,0.455,0.289,-0.903,-0.291,0.345,-0.013,-0.523
892,-0.833,2.092,0.483,0.221,-0.796,-0.086,0.337,-0.007,-0.52
893,-0.698,2.312,0.443,0.181,-0.67,0.013,0.334,-0.018,-0.54
894,-0.541,2.4,0.38,0.155,-0.618,0.075,0.334,-0.018,-0.54
895,-0.569,2.199,0.242,0.039,-0.675,0.23,0.354,-0.003,-0.54
896,-0.62,1.957,0.266,-0.07,-0.708,0.271,0.375,0.01,-0.541
897,-0.55,1.915,0.224,-0.012,-0.736,0.148,0.375,0.01,-0.541
898,-0.429,1.876,0.243,-0.012,-0.736,0.148,0.381,0.015,-0.558
899,-0.298,1.708,0.256,0.006,-0.75,0.101,0.391,0.009,-0.558
900,-0.151,1.442,0.196,-0.117,-0.563,0.144,0.414,0.022,-0.58
901,-0.012,1.157,0.13,-0.228,-0.414,0.187,0.414,0.022,-0.58
902,0.123,0.867,0.065,-0.259,-0.387,0.204,0.406,0.022,-0.577
903,0.123,0.867,0.065,-0.245,-0.39,0.229,0.402,0.036,-0.579
904,0.28,0.603,0.035,-0.204,-0.422,0.248,0.406,0.028,-0.588
905,0.405,0.386,0.03,-0.155,-0.474,0.282,0.409,0.019,-0.571
906,0.503,0.214,0.042,-0.111,-0.521,0.311,0.424,0.015,-0.589
907,0.568,0.091,0.057,-0.069,-0.562,0.341,0.427,0.036,-0.583
908,0.602,0.005,0.09,-0.045,-0.569,0.364,0.427,0.036,-0.583
909,0.623,-0.046,0.127,-0.039,-0.556,0.386,0.415,0.037,-0.57
910,0.653,-0.095,0.141,-0.022,-0.545,0.425,0.424,0.009,-0.574
911,0.693,-0.133,0.156,0.003,-0.554,0.487,0.424,0.009,-0.574
912,0.744,-0.171,0.181,0.048,-0.596,0.555,0.424,0.006,-0.585
913,0.775,-0.212,0.214,0.096,-0.655,0.597,0.424,0.012,-0.556
914,0.787,-0.222,0.254,0.122,-0.724,0.642,0.435,-0.003,-0.556
915,0.77,-0.232,0.298,0.126,-0.79,0.726,0.435,-0.003,-0.556
916,0.725,-0.23,0.342,0.109,-0.862,0.793,0.415,-0.007,-0.556
917,0.632,-0.156,0.38,0.108,-0.952,0.832,0.405,-0.013,-0.562
918,0.499,-0.035,0.386,0.108,-0.952,0.832,0.403,-0.001,-0.55
919,0.324,0.036,0.353,0.138,-1.069,0.875,0.406,-0.021,-0.543
920,0.149,-0.053,0.304,0.16,-1.219,0.914,0.399,-0.015,-0.543
921,0.051,-0.336,0.264,0.158,-1.373,0.886,0.415,-0.019,-0.535
922,0.051,-0.336,0.264,0.177,-1.458,0.744,0.415,-0.019,-0.535
923,0.035,-0.472,0.224,0.2,-1.419,0.601,0.399,-0.01,-0.522
924,0.083,-0.198,0.16,0.101,-1.196,0.595,0.387,-0.01,-0.513
925,0.086,0.341,0.057,-0.118,-0.758,0.675,0.387,-0.01,-0.513
926,0.051,0.805,-0.051,-0.275,-0.268,0.702,0.391,0.001,-0.552
927,0.108,0.956,-0.144,-0.242,-0.002,0.605,0.397,-0.012,-0.55
928,0.173,0.89,-0.165,-0.226,0.011,0.463,0.408,-0.003,-0.552
929,0.247,0.443,-0.115,-0.302,-0.191,0.268,0.408,-0.003,-0.552
930,0.283,-0.129,-0.073,-0.208,-0.845,0.043,0.399,0.013,-0.547
931,-0.178,0.313,-0.178,0.131,-1.995,0.054,0.388,-0.021,-0.547
932,-0.053,0.373,-0.286,0.12,-1.998,0.302,0.408,-0.007,-0.544
933,0.018,0.461,-0.138,0.345,-1.998,0.474,0.409,-0.006,-0.535
934,-0.046,0.085,0.154,0.494,-1.403,0.338,0.426,-0.006,-0.532
935,0.121,-0.697,0.277,-0.022,-0.553,-0.057,0.412,0.013,-0.556
936,0.172,-0.835,0.077,-0.42,-0.32,-0.18,0.412,0.013,-0.556
937,-0.075,-0.595,-0.147,-0.42,-0.32,-0.18,0.402,0.022,-0.529
938,-0.315,-0.512,-0.239,-0.312,-0.375,-0.006,0.402,0.022,-0.529
939,-0.42,-0.623,-0.23,-0.103,-0.464,-0.021,0.393,0.003,-0.529
940,-0.196,-1.06,-0.12,0.046,-0.525,-0.102,0.39,-0.018,-0.544
941,-0.196,-1.06,-0.12,0.147,-0.593,-0.141,0.396,0.012,-0.531
942,0.27,-1.579,0.02,0.272,-0.782,-0.242,0.396,0.012,-0.531
943,0.683,-1.651,0.163,0.492,-1.074,-0.326,0.372,-0.009,-0.543
944,0.893,-1.446,0.28,0.684,-1.283,-0.208,0.381,-0.01,-0.529
945,0.882,-1.27,0.331,0.724,-1.334,0.059,0.358,-0.006,-0.531
946,0.657,-1.217,0.331,0.588,-1.238,0.232,0.351,-0.022,-0.531
947,0.477,-1.13,0.282,0.305,-1.02,0.249,0.363,-0.004,-0.511
948,0.24,-0.986,0.155,-0.026,-0.8,0.3,0.363,-0.004,-0.511
949,0.151,-0.877,-0.042,-0.242,-0.665,0.363,0.349,-0.018,-0.513
950,0.232,-1.134,-0.161,-0.218,-0.608,0.358,0.34,-0.025,-0.483
951,0.476,-1.761,-0.144,-0.063,-0.64,0.228,0.318,-0.01,-0.45
952,0.596,-2.075,-0.109,0.18,-0.781,-0.112,0.349,-0.007,-0.474
953,0.718,-1.869,0.017,0.457,-0.935,-0.447,0.322,-0.027,-0.462
954,0.816,-1.505,0.177,0.575,-1.011,-0.443,0.316,-0.025,-0.454
955,0.827,-1.334,0.281,0.541,-0.958,-0.206,0.285,-0.025,-0.447
956,0.915,-1.327,0.378,0.541,-0.958,-0.206,0.285,-0.025,-0.447
957,0.849,-1.375,0.343,0.439,-0.873,0.008,0.294,-0.025,-0.436
958,0.79,-1.277,0.271,0.314,-0.811,0.129,0.292,-0.027,-0.421
959,0.741,-1.038,0.191,0.173,-0.742,0.122,0.292,-0.027,-0.421
960,0.553,-0.849,0.036,0.17,-0.767,-0.008,0.286,-0.036,-0.414
961,0.553,-0.849,0.036,0.211,-0.793,-0.052,0.276,-0.021,-0.411
962,0.459,-0.704,-0.06,0.209,-0.809,-0.068,0.283,-0.024,-0.388
963,0.404,-0.671,-0.088,0.239,-0.873,-0.086,0.283,-0.024,-0.388
964,0.412,-0.642,-0.105,0.289,-0.858,-0.096,0.258,-0.039,-0.408
965,0.44,-0.548,-0.128,0.327,-0.851,-0.092,0.279,-0.039,-0.384
966,0.452,-0.56,-0.121,0.298,-0.861,-0.006,0.28,-0.052,-0.366
967,0.465,-0.543,-0.123,0.248,-0.825,0.02,0.282,-0.043,-0.384
968,0.478,-0.499,-0.138,0.225,-0.794,0.043,0.28,-0.043,-0.381
969,0.469,-0.48,-0.149,0.241,-0.786,0.064,0.277,-0.052,-0.366
970,0.464,-0.469,-0.156,0.249,-0.787,0.054,0.277,-0.052,-0.366
971,0.463,-0.448,-0.169,0.238,-0.791,0.039,0.274,-0.052,-0.361
972,0.481,-0.414,-0.187,0.232,-0.807,0.043,0.249,-0.055,-0.367
973,0.492,-0.416,-0.213,0.231,-0.836,0.061,0.249,-0.055,-0.367
974,0.497,-0.417,-0.243,0.246,-0.878,0.078,0.282,-0.049,-0.367
975,0.495,-0.403,-0.274,0.246,-0.878,0.078,0.274,-0.051,-0.352
976,0.506,-0.403,-0.295,0.273,-0.91,0.085,0.27,-0.058,-0.336
977,0.506,-0.401,-0.305,0.29,-0.924,0.094,0.27,-0.058,-0.336
978,0.501,-0.396,-0.317,0.3,-0.914,0.097,0.279,-0.064,-0.334
979,0.501,-0.396,-0.317,0.317,-0.915,0.098,0.27,-0.076,-0.319
980,0.435,-0.365,-0.339,0.33,-0.959,0.131,0.276,-0.07,-0.339
981,0.435,-0.365,-0.339,0.375,-0.978,0.134,0.295,-0.06,-0.325
982,0.383,-0.366,-0.322,0.414,-0.995,0.118,0.279,-0.066,-0.321
983,0.331,-0.402,-0.289,0.4,-1.044,0.13,0.288,-0.072,-0.33
984,0.27,-0.435,-0.263,0.397,-1.098,0.14,0.288,-0.072,-0.33
985,0.172,-0.455,-0.258,0.414,-1.134,0.142,0.288,-0.069,-0.307
986,0.054,-0.435,-0.27,0.388,-1.107,0.127,0.276,-0.076,-0.301
987,-0.044,-0.351,-0.319,0.319,-1.073,0.106,0.276,-0.076,-0.301
988,-0.114,-0.177,-0.38,0.288,-1.103,0.144,0.286,-0.087,-0.309
989,-0.11,-0.093,-0.376,0.316,-1.158,0.252,0.313,-0.082,-0.31
990,-0.086,-0.165,-0.305,0.345,-1.143,0.327,0.298,-0.1,-0.309
991,-0.07,-0.289,-0.23,0.337,-1.032,0.296,0.298,-0.1,-0.309
992,-0.09,-0.305,-0.217,0.279,-0.876,0.177,0.283,-0.099,-0.297
993,-0.224,-0.195,-0.286,0.335,-0.88,0.028,0.279,-0.093,-0.309
994,-0.428,-0.074,-0.226,0.527,-1.026,-0.133,0.294,-0.087,-0.291
995,-0.579,0.17,-0.129,0.649,-1.139,-0.245,0.285,-0.09,-0.289
996,-0.707,0.458,-0.087,0.649,-1.139,-0.245,0.303,-0.087,-0.307
997,-0.783,0.775,0.009,0.659,-1.145,-0.281,0.288,-0.09,-0.292
998,-0.95,0.951,0.147,0.708,-1.217,-0.255,0.288,-0.09,-0.292
999,-1.213,1.019,0.247,0.697,-1.365,-0.214,0.31,-0.093,-0.307
1000,-1.213,1.019,0.247,0.462,-1.42,-0.156,0.283,-0.091,-0.315
1001,-1.405,0.929,0.263,0.221,-1.465,-0.13,0.283,-0.091,-0.315
1002,-1.378,0.935,0.327,0.157,-1.475,-0.213,0.303,-0.085,-0.36
1003,-1.189,0.973,0.447,0.114,-1.484,-0.253,0.324,-0.093,-0.369
1004,-0.999,0.785,0.501,-0.085,-1.517,-0.146,0.298,-0.088,-0.373
1005,-0.98,0.614,0.487,-0.203,-1.582,0.027,0.298,-0.088,-0.373
1006,-1.038,0.409,0.484,-0.18,-1.624,0.104,0.321,-0.073,-0.373
1007,-1.115,0.165,0.518,-0.165,-1.554,0.131,0.283,-0.072,-0.357
1008,-1.197,-0.223,0.535,-0.095,-1.417,0.128,0.283,-0.072,-0.357
1009,-1.291,-0.498,0.484,-0.027,-1.286,0.102,0.307,-0.055,-0.391
1010,-1.511,-0.532,0.452,0.008,-1.186,0.095,0.297,-0.052,-0.393
1011,-1.692,-0.43,0.387,0.038,-1.11,0.021,0.295,-0.055,-0.387
1012,-1.626,-0.215,0.272,0.035,-1.032,-0.152,0.295,-0.055,-0.387
1013,-1.355,0.132,0.13,0.062,-0.977,-0.364,0.288,-0.061,-0.409
1014,-0.988,0.62,0.158,0.236,-1.014,-0.437,0.267,-0.064,-0.402
1015,-0.98,1.088,0.167,0.236,-1.053,-0.244,0.312,-0.046,-0.405
1016,-1.232,1.262,0.077,0.353,-1.053,-0.244,0.307,-0.054,-0.429
1017,-1.337,1.39,0.039,0.348,-1.069,0.0,0.315,-0.04,-0.436
1018,-1.199,1.437,0.178,0.367,-1.075,-0.02,0.315,-0.04,-0.436
1019,-1.024,1.578,0.294,0.342,-1.003,-0.032,0.307,-0.058,-0.447
1020,-1.024,1.578,0.294,0.407,-0.875,-0.418,0.313,-0.043,-0.466
1021,-0.639,2.132,0.374,0.33,-0.768,-0.577,0.309,-0.033,-0.462
1022,-0.606,2.623,0.234,0.115,-0.613,-0.217,0.309,-0.033,-0.462
1023,-0.732,2.888,0.008,0.028,-0.511,0.025,0.336,-0.036,-0.487
1024,-0.513,2.639,-0.069,-0.067,-0.555,0.288,0.342,-0.046,-0.496
1025,-0.337,2.02,-0.037,-0.118,-0.605,0.416,0.363,-0.021,-0.51
1026,-0.262,1.68,-0.016,-0.093,-0.631,0.324,0.363,-0.021,-0.51
1027,-0.161,1.599,-0.008,-0.073,-0.592,0.121,0.381,-0.049,-0.529
1028,-0.045,1.548,0.021,-0.069,-0.572,0.067,0.388,-0.039,-0.513
1029,0.017,1.419,0.055,-0.088,-0.594,0.103,0.388,-0.037,-0.538
1030,0.056,1.187,0.084,-0.124,-0.574,0.185,0.381,-0.048,-0.549
1031,0.15,0.917,0.089,-0.152,-0.528,0.239,0.423,-0.043,-0.553
1032,0.281,0.66,0.094,-0.15,-0.493,0.242,0.403,-0.031,-0.532
1033,0.389,0.48,0.093,-0.107,-0.506,0.251,0.403,-0.031,-0.532
1034,0.459,0.381,0.101,-0.059,-0.532,0.265,0.42,-0.028,-0.556
1035,0.528,0.288,0.127,-0.042,-0.527,0.297,0.388,-0.045,-0.528
1036,0.588,0.19,0.148,-0.042,-0.527,0.297,0.388,-0.045,-0.528
1037,0.635,0.096,0.173,-0.031,-0.537,0.349,0.414,-0.042,-0.556
1038,0.683,0.015,0.177,-0.018,-0.533,0.385,0.394,-0.067,-0.555
1039,0.683,0.015,0.177,0.007,-0.521,0.412,0.414,-0.073,-0.54
1040,0.713,-0.044,0.171,0.05,-0.553,0.431,0.414,-0.073,-0.54
1041,0.729,-0.08,0.184,0.092,-0.607,0.462,0.405,-0.067,-0.537
1042,0.737,-0.101,0.21,0.074,-0.692,0.531,0.423,-0.076,-0.528
1043,0.732,-0.12,0.252,0.064,-0.796,0.576,0.411,-0.078,-0.541
1044,0.721,-0.149,0.314,0.08,-0.889,0.614,0.408,-0.085,-0.526
1045,0.732,-0.181,0.382,0.046,-0.967,0.661,0.4,-0.094,-0.505
1046,0.741,-0.177,0.438,0.039,-1.016,0.691,0.409,-0.088,-0.54
1047,0.709,-0.112,0.439,0.082,-1.086,0.74,0.409,-0.088,-0.54
1048,0.594,-0.039,0.401,0.13,-1.169,0.789,0.414,-0.087,-0.526
1049,0.401,-0.017,0.331,0.189,-1.23,0.78,0.403,-0.097,-0.504
1050,0.217,-0.069,0.247,0.248,-1.289,0.712,0.403,-0.097,-0.504
1051,0.112,-0.19,0.192,0.251,-1.316,0.611,0.393,-0.105,-0.507
1052,0.1,-0.17,0.183,0.247,-1.233,0.564,0.39,-0.109,-0.514
1053,0.111,0.059,0.127,0.125,-0.987,0.589,0.409,-0.099,-0.51
1054,0.102,0.41,0.023,0.125,-0.987,0.589,0.409,-0.099,-0.51
1055,0.11,0.695,-0.063,-0.1,-0.669,0.662,0.399,-0.093,-0.493
1056,0.172,0.781,-0.08,-0.225,-0.438,0.732,0.421,-0.103,-0.523
1057,0.241,0.66,-0.001,-0.232,-0.432,0.684,0.394,-0.096,-0.517
1058,0.212,0.328,0.072,-0.185,-0.721,0.569,0.433,-0.105,-0.514
1059,0.212,0.328,0.072,-0.083,-1.285,0.379,0.408,-0.105,-0.52
1060,0.123,-0.023,0.079,0.104,-1.815,0.135,0.408,-0.105,-0.52
1061,0.12,-0.235,0.038,0.24,-1.996,-0.08,0.43,-0.117,-0.51
1062,0.065,-0.175,0.028,0.177,-1.998,0.015,0.406,-0.115,-0.531
1063,-0.144,0.194,0.039,0.116,-1.647,0.293,0.403,-0.117,-0.517
1064,-0.32,0.445,0.078,0.023,-0.887,0.381,0.418,-0.12,-0.529
1065,-0.163,0.0,0.066,-0.192,-0.294,0.096,0.421,-0.108,-0.531
1066,0.014,-0.451,-0.056,-0.275,-0.175,-0.24,0.406,-0.126,-0.513
1067,-0.14,-0.296,-0.233,-0.2,-0.368,-0.185,0.406,-0.126,-0.513
1068,-0.449,0.069,-0.37,-0.071,-0.592,0.025,0.427,-0.097,-0.526
1069,-0.506,0.009,-0.346,0.068,-0.739,0.117,0.405,-0.111,-0.531
1070,-0.125,-0.788,-0.182,0.263,-0.851,-0.037,0.406,-0.109,-0.532
1071,0.416,-1.714,0.018,0.5,-1.084,-0.325,0.406,-0.109,-0.532
1072,0.674,-1.89,0.195,0.705,-1.422,-0.492,0.4,-0.121,-0.522
1073,0.641,-1.437,0.387,0.787,-1.578,-0.387,0.387,-0.114,-0.513
1074,0.497,-0.998,0.501,0.787,-1.578,-0.387,0.405,-0.138,-0.508
1075,0.286,-0.858,0.472,0.61,-1.41,-0.08,0.405,-0.138,-0.508
1076,0.202,-0.863,0.354,0.271,-1.062,0.199,0.373,-0.118,-0.493
1077,0.289,-0.867,0.206,-0.002,-0.714,0.245,0.372,-0.144,-0.493
1078,0.27,-0.931,0.021,-0.142,-0.541,0.16,0.363,-0.117,-0.496
1079,0.27,-0.931,0.021,-0.17,-0.609,0.152,0.37,-0.135,-0.48
1080,0.103,-1.113,-0.185,-0.178,-0.764,0.231,0.39,-0.139,-0.496
1081,0.07,-1.395,-0.198,-0.063,-0.848,0.163,0.39,-0.135,-0.501
1082,0.331,-1.711,-0.077,0.126,-0.883,-0.05,0.39,-0.135,-0.501
1083,0.499,-1.824,0.026,0.217,-0.934,-0.202,0.373,-0.139,-0.49
1084,0.49,-1.614,0.038,0.319,-0.941,-0.246,0.318,-0.132,-0.444
1085,0.483,-1.416,0.053,0.418,-0.941,-0.124,0.318,-0.132,-0.444
1086,0.541,-1.401,0.123,0.49,-0.934,-0.04,0.342,-0.136,-0.462
1087,0.686,-1.477,0.238,0.465,-0.897,-0.034,0.31,-0.156,-0.421
1088,0.786,-1.478,0.313,0.35,-0.816,0.009,0.31,-0.156,-0.421
1089,0.803,-1.383,0.236,0.294,-0.728,-0.017,0.316,-0.145,-0.426
1090,0.753,-1.164,0.158,0.34,-0.766,-0.119,0.307,-0.159,-0.424
1091,0.683,-0.984,0.102,0.366,-0.808,-0.095,0.304,-0.151,-0.415
1092,0.569,-0.776,-0.025,0.323,-0.785,-0.053,0.307,-0.151,-0.396
1093,0.471,-0.602,-0.117,0.322,-0.819,-0.05,0.304,-0.147,-0.409
1094,0.419,-0.555,-0.149,0.322,-0.819,-0.05,0.285,-0.145,-0.42
1095,0.434,-0.511,-0.158,0.338,-0.874,0.01,0.312,-0.162,-0.393
1096,0.462,-0.451,-0.165,0.337,-0.868,0.01,0.312,-0.162,-0.393
1097,0.49,-0.423,-0.175,0.306,-0.86,0.01,0.319,-0.139,-0.385
1098,0.49,-0.423,-0.175,0.292,-0.875,0.02,0.303,-0.169,-0.36
1099,0.51,-0.408,-0.184,0.307,-0.868,0.004,0.303,-0.169,-0.36
1100,0.537,-0.357,-0.187,0.305,-0.855,0.019,0.306,-0.165,-0.37
1101,0.548,-0.315,-0.204,0.279,-0.861,0.046,0.31,-0.171,-0.373
1102,0.56,-0.267,-0.219,0.248,-0.872,0.052,0.292,-0.174,-0.372
1103,0.571,-0.231,-0.239,0.228,-0.88,0.068,0.292,-0.174,-0.372
1104,0.565,-0.214,-0.262,0.213,-0.892,0.103,0.327,-0.174,-0.348
1105,0.547,-0.222,-0.289,0.208,-0.899,0.114,0.294,-0.183,-0.352
1106,0.53,-0.244,-0.316,0.221,-0.899,0.101,0.3,-0.198,-0.352
1107,0.515,-0.267,-0.333,0.247,-0.911,0.103,0.312,-0.189,-0.352
1108,0.487,-0.292,-0.345,0.275,-0.916,0.103,0.304,-0.189,-0.355
1109,0.459,-0.327,-0.348,0.308,-0.937,0.12,0.309,-0.18,-0.352
1110,0.417,-0.346,-0.35,0.354,-0.961,0.127,0.309,-0.18,-0.352
1111,0.355,-0.364,-0.337,0.387,-0.957,0.099,0.312,-0.18,-0.342
1112,0.307,-0.364,-0.315,0.38,-0.976,0.096,0.315,-0.178,-0.331
1113,0.27,-0.368,-0.29,0.365,-0.996,0.102,0.315,-0.178,-0.331
1114,0.197,-0.367,-0.277,0.365,-0.996,0.102,0.313,-0.19,-0.327
1115,0.142,-0.329,-0.26,0.381,-1.009,0.081,0.325,-0.184,-0.342
1116,0.099,-0.274,-0.248,0.419,-1.012,0.056,0.321,-0.199,-0.324
1117,0.051,-0.247,-0.273,0.404,-1.0,0.072,0.321,-0.199,-0.324
1118,-0.011,-0.165,-0.318,0.314,-1.001,0.087,0.339,-0.204,-0.33
1119,-0.011,-0.165,-0.318,0.253,-1.051,0.122,0.328,-0.205,-0.33
1120,-0.086,-0.091,-0.31,0.275,-1.134,0.219,0.328,-0.205,-0.33
1121,-0.141,-0.149,-0.299,0.271,-1.153,0.329,0.318,-0.204,-0.337
1122,-0.169,-0.363,-0.248,0.288,-1.096,0.343,0.342,-0.211,-0.343
1123,-0.228,-0.423,-0.194,0.426,-1.013,0.212,0.343,-0.214,-0.33
1124,-0.321,-0.355,-0.154,0.575,-0.982,-0.107,0.343,-0.214,-0.33
1125,-0.434,-0.156,-0.119,0.582,-1.06,-0.159,0.339,-0.213,-0.337
1126,-0.586,0.102,-0.133,0.601,-1.174,-0.056,0.322,-0.187,-0.321
1127,-0.673,0.427,-0.083,0.72,-1.219,-0.229,0.337,-0.223,-0.36
1128,-0.698,0.737,0.026,0.703,-1.233,-0.325,0.342,-0.217,-0.354
1129,-0.861,0.846,0.123,0.382,-1.294,-0.198,0.355,-0.199,-0.388
1130,-1.183,0.853,0.087,0.022,-1.349,-0.099,0.346,-0.208,-0.379
1131,-1.249,0.843,0.119,-0.058,-1.341,-0.155,0.346,-0.208,-0.379
1132,-1.166,0.854,0.16,-0.027,-1.359,-0.166,0.337,-0.193,-0.399
1133,-1.218,0.867,0.219,-0.027,-1.359,-0.166,0.342,-0.192,-0.4
1134,-1.178,0.763,0.312,-0.077,-1.516,-0.05,0.342,-0.192,-0.4
1135,-1.166,0.521,0.285,-0.264,-1.579,0.075,0.34,-0.208,-0.429
1136,-1.338,0.141,0.276,-0.391,-1.601,0.227,0.384,-0.202,-0.427
1137,-1.421,-0.406,0.316,-0.278,-1.672,0.359,0.349,-0.175,-0.442
1138,-1.421,-0.406,0.316,-0.098,-1.579,0.253,0.349,-0.175,-0.442
1139,-1.458,-0.758,0.295,-0.004,-1.435,0.029,0.334,-0.172,-0.445
1140,-1.573,-0.613,0.278,0.077,-1.3,-0.17,0.348,-0.162,-0.463
1141,-1.741,-0.253,0.327,0.165,-1.159,-0.214,0.333,-0.154,-0.471
1142,-1.846,0.036,0.242,0.169,-1.027,-0.152,0.343,-0.156,-0.459
1143,-1.716,0.256,0.04,0.157,-0.901,-0.206,0.358,-0.142,-0.486
1144,-1.43,0.492,-0.095,0.28,-0.898,-0.269,0.339,-0.138,-0.498
1145,-1.333,0.757,-0.009,0.406,-1.018,-0.112,0.339,-0.138,-0.498
1146,-1.51,0.836,0.095,0.343,-1.073,0.057,0.351,-0.141,-0.501
1147,-1.161,0.725,0.095,0.37,-1.044,0.004,0.346,-0.124,-0.523
1148,-1.112,1.285,0.153,0.312,-1.041,-0.166,0.346,-0.124,-0.523
1149,-0.849,1.669,0.254,0.228,-0.996,-0.218,0.372,-0.121,-0.541
1150,-0.796,1.864,0.321,0.21,-0.949,-0.103,0.351,-0.115,-0.553
1151,-0.773,2.152,0.364,0.047,-0.881,0.007,0.354,-0.112,-0.567
1152,-0.595,2.282,0.368,0.009,-0.763,0.002,0.354,-0.112,-0.567
1153,-0.403,2.322,0.385,0.025,-0.708,0.029,0.387,-0.076,-0.558
1154,-0.472,2.13,0.307,-0.08,-0.682,0.235,0.39,-0.093,-0.583
1155,-0.534,1.701,0.214,-0.08,-0.682,0.235,0.409,-0.099,-0.579
1156,-0.481,1.381,0.162,-0.162,-0.645,0.381,0.409,-0.082,-0.603
1157,-0.268,1.306,0.163,-0.166,-0.597,0.317,0.436,-0.079,-0.609
1158,-0.268,1.306,0.163,-0.131,-0.548,0.111,0.436,-0.079,-0.609
1159,-0.152,1.302,0.126,-0.065,-0.551,0.015,0.432,-0.091,-0.6
1160,-0.224,1.337,0.072,-0.053,-0.632,0.056,0.442,-0.076,-0.615
1161,-0.172,1.213,0.063,-0.082,-0.598,0.16,0.441,-0.081,-0.595
1162,0.03,0.9,0.022,-0.171,-0.387,0.284,0.468,-0.069,-0.612
1163,0.205,0.633,-0.066,-0.228,-0.267,0.293,0.459,-0.084,-0.621
1164,0.364,0.45,-0.106,-0.167,-0.332,0.271,0.46,-0.072,-0.63
1165,0.486,0.327,-0.103,-0.084,-0.422,0.285,0.46,-0.072,-0.63
1166,0.577,0.214,-0.059,-0.033,-0.486,0.331,0.459,-0.078,-0.619
1167,0.672,0.147,-0.005,-0.015,-0.501,0.374,0.496,-0.103,-0.615
1168,0.778,0.03,0.091,-0.027,-0.52,0.478,0.451,-0.094,-0.613
1169,0.812,-0.034,0.125,-0.04,-0.506,0.491,0.477,-0.1,-0.609
1170,0.843,-0.081,0.159,-0.035,-0.551,0.492,0.472,-0.084,-0.594
1171,0.872,-0.098,0.213,-0.013,-0.647,0.501,0.471,-0.112,-0.588
1172,0.89,-0.093,0.291,-0.013,-0.647,0.501,0.471,-0.112,-0.588
1173,0.877,-0.095,0.38,0.002,-0.779,0.565,0.475,-0.118,-0.597
1174,0.822,-0.104,0.455,0.009,-0.9,0.668,0.445,-0.132,-0.592
1175,0.705,-0.076,0.471,0.02,-1.011,0.767,0.445,-0.132,-0.592
1176,0.483,-0.028,0.422,0.07,-1.134,0.834,0.45,-0.118,-0.577
1177,0.483,-0.028,0.422,0.127,-1.323,0.909,0.46,-0.124,-0.594
1178,0.161,-0.087,0.339,0.145,-1.567,0.976,0.454,-0.132,-0.579
1179,-0.12,-0.382,0.311,0.165,-1.707,0.9,0.454,-0.132,-0.579
1180,-0.12,-0.664,0.31,0.163,-1.633,0.672,0.465,-0.118,-0.571
1181,0.016,-0.471,0.27,0.1,-1.362,0.565,0.453,-0.109,-0.573
1182,0.053,0.185,0.183,-0.103,-0.878,0.648,0.441,-0.133,-0.561
1183,-0.012,0.812,0.064,-0.366,-0.311,0.757,0.436,-0.124,-0.568
1184,0.018,1.002,-0.045,-0.415,0.037,0.746,0.441,-0.103,-0.57
1185,0.086,0.908,-0.096,-0.314,0.087,0.569,0.469,-0.124,-0.579
1186,0.17,0.663,-0.084,-0.267,-0.1,0.384,0.469,-0.124,-0.579
1187,0.27,0.147,-0.013,-0.183,-0.574,0.212,0.469,-0.114,-0.583
1188,0.177,-0.268,-0.009,0.035,-1.443,-0.038,0.472,-0.112,-0.568
1189,-0.025,-0.304,-0.154,0.266,-1.993,-0.102,0.466,-0.108,-0.577
1190,-0.087,-0.147,-0.326,0.307,-1.998,0.079,0.46,-0.108,-0.582
1191,-0.248,0.28,-0.263,0.307,-1.998,0.079,0.475,-0.121,-0.574
1192,-0.353,0.566,0.007,0.392,-1.998,0.338,0.474,-0.112,-0.577
1193,-0.037,-0.235,0.291,0.499,-1.504,0.557,0.474,-0.112,-0.577
1194,0.331,-0.844,0.246,0.062,-0.587,0.203,0.477,-0.111,-0.595
1195,0.184,-0.569,-0.012,-0.426,-0.166,-0.236,0.454,-0.117,-0.576
1196,-0.196,-0.137,-0.244,-0.412,-0.257,-0.1,0.454,-0.117,-0.576
1197,-0.196,-0.137,-0.244,-0.194,-0.403,0.041,0.48,-0.103,-0.585
1198,-0.382,0.0,-0.37,0.05,-0.555,0.012,0.453,-0.126,-0.583
1199,-0.202,-0.458,-0.327,0.233,-0.707,-0.017,0.448,-0.106,-0.586
1200,0.228,-1.234,-0.233,0.404,-0.876,-0.199,0.448,-0.106,-0.586
1201,0.621,-1.565,-0.092,0.615,-1.183,-0.431,0.451,-0.114,-0.583
1202,0.83,-1.33,0.116,0.782,-1.463,-0.42,0.466,-0.1,-0.574
1203,0.811,-1.019,0.345,0.779,-1.48,-0.135,0.456,-0.102,-0.582
1204,0.651,-0.987,0.486,0.563,-1.237,0.117,0.433,-0.117,-0.558
1205,0.592,-0.98,0.52,0.259,-0.893,0.138,0.423,-0.106,-0.556
1206,0.634,-0.739,0.441,-0.082,-0.683,0.197,0.424,-0.096,-0.565
1207,0.482,-0.562,0.172,-0.354,-0.602,0.348,0.424,-0.096,-0.565
1208,0.387,-0.687,-0.091,-0.467,-0.594,0.42,0.408,-0.108,-0.547
1209,0.416,-1.121,-0.276,-0.352,-0.67,0.413,0.417,-0.115,-0.526
1210,0.472,-1.712,-0.311,-0.095,-0.816,0.245,0.417,-0.115,-0.526
1211,0.499,-1.833,-0.294,0.181,-0.96,-0.144,0.399,-0.126,-0.531
1212,0.595,-1.463,-0.151,0.181,-0.96,-0.144,0.382,-0.142,-0.523
1213,0.639,-1.14,0.042,0.46,-1.057,-0.402,0.403,-0.138,-0.525
1214,0.816,-1.115,0.298,0.602,-1.099,-0.304,0.403,-0.138,-0.525
1215,0.786,-1.344,0.338,0.603,-1.041,-0.053,0.375,-0.132,-0.489
1216,0.786,-1.344,0.338,0.448,-0.912,0.234,0.367,-0.12,-0.498
1217,0.791,-1.491,0.338,0.284,-0.775,0.254,0.378,-0.126,-0.477
1218,0.733,-1.422,0.276,0.227,-0.709,0.077,0.373,-0.148,-0.487
1219,0.658,-1.134,0.188,0.254,-0.742,-0.069,0.355,-0.139,-0.469
1220,0.653,-0.805,0.177,0.32,-0.803,-0.121,0.355,-0.147,-0.48
1221,0.658,-0.635,0.105,0.293,-0.747,-0.022,0.355,-0.147,-0.48
1222,0.613,-0.56,0.005,0.327,-0.746,-0.021,0.334,-0.138,-0.474
1223,0.569,-0.467,-0.058,0.383,-0.81,-0.086,0.337,-0.147,-0.433
1224,0.536,-0.398,-0.093,0.358,-0.825,-0.066,0.337,-0.147,-0.433
1225,0.541,-0.357,-0.107,0.348,-0.837,-0.029,0.333,-0.133,-0.453
1226,0.572,-0.354,-0.103,0.333,-0.841,0.018,0.343,-0.148,-0.442
1227,0.59,-0.37,-0.087,0.324,-0.869,0.061,0.343,-0.148,-0.442
1228,0.596,-0.366,-0.07,0.308,-0.883,0.063,0.334,-0.141,-0.453
1229,0.591,-0.35,-0.077,0.261,-0.875,0.071,0.343,-0.153,-0.447
1230,0.55,-0.31,-0.123,0.21,-0.86,0.12,0.337,-0.162,-0.43
1231,0.504,-0.325,-0.175,0.174,-0.869,0.175,0.339,-0.156,-0.423
1232,0.443,-0.371,-0.222,0.174,-0.869,0.175,0.345,-0.165,-0.421
1233,0.406,-0.402,-0.259,0.171,-0.891,0.157,0.345,-0.154,-0.426
1234,0.414,-0.401,-0.292,0.187,-0.906,0.087,0.357,-0.156,-0.433
1235,0.414,-0.401,-0.292,0.216,-0.906,0.02,0.357,-0.156,-0.433
1236,0.465,-0.36,-0.31,0.257,-0.901,0.001,0.337,-0.138,-0.418
1237,0.523,-0.329,-0.315,0.278,-0.921,0.06,0.337,-0.151,-0.403
1238,0.537,-0.324,-0.32,0.285,-0.937,0.134,0.339,-0.169,-0.412
1239,0.515,-0.333,-0.324,0.306,-0.945,0.154,0.345,-0.172,-0.403
1240,0.479,-0.33,-0.324,0.321,-0.961,0.151,0.346,-0.148,-0.387
1241,0.428,-0.329,-0.322,0.325,-0.978,0.149,0.352,-0.172,-0.42
1242,0.372,-0.354,-0.313,0.318,-1.002,0.154,0.352,-0.172,-0.42
1243,0.313,-0.413,-0.289,0.302,-1.032,0.175,0.364,-0.165,-0.39
1244,0.232,-0.48,-0.275,0.303,-1.069,0.197,0.342,-0.172,-0.381
1245,0.123,-0.491,-0.276,0.332,-1.094,0.19,0.342,-0.172,-0.381
1246,0.002,-0.452,-0.284,0.354,-1.079,0.139,0.345,-0.154,-0.385
1247,-0.087,-0.363,-0.312,0.298,-1.048,0.134,0.367,-0.181,-0.378
1248,-0.149,-0.215,-0.359,0.223,-1.06,0.196,0.358,-0.172,-0.387
1249,-0.16,-0.14,-0.396,0.212,-1.09,0.289,0.358,-0.172,-0.387
1250,-0.118,-0.223,-0.406,0.235,-1.08,0.363,0.358,-0.169,-0.381
1251,-0.139,-0.359,-0.328,0.288,-1.026,0.327,0.375,-0.18,-0.375
1252,-0.266,-0.329,-0.278,0.288,-1.026,0.327,0.387,-0.166,-0.385
1253,-0.491,-0.166,-0.228,0.378,-0.98,0.151,0.364,-0.172,-0.384
1254,-0.67,0.061,-0.16,0.429,-1.031,-0.083,0.373,-0.165,-0.387
1255,-0.67,0.061,-0.16,0.457,-1.1,-0.22,0.384,-0.171,-0.403
1256,-0.814,0.354,-0.193,0.536,-1.134,-0.253,0.384,-0.171,-0.403
1257,-0.921,0.773,-0.149,0.713,-1.183,-0.362,0.366,-0.168,-0.406
1258,-0.987,1.079,0.015,0.79,-1.288,-0.385,0.369,-0.156,-0.415
1259,-1.092,1.155,0.254,0.603,-1.427,-0.241,0.369,-0.156,-0.415
1260,-1.283,1.11,0.366,0.305,-1.519,-0.117,0.391,-0.142,-0.415
1261,-1.35,1.099,0.452,0.113,-1.547,-0.101,0.379,-0.15,-0.447
1262,-1.262,1.006,0.534,0.028,-1.575,-0.112,0.394,-0.123,-0.465
1263,-1.068,0.903,0.534,-0.146,-1.648,-0.01,0.394,-0.123,-0.465
1264,-1.126,0.695,0.494,-0.209,-1.737,0.131,0.385,-0.135,-0.469
1265,-1.248,0.349,0.447,-0.158,-1.732,0.184,0.396,-0.126,-0.462
1266,-1.285,-0.065,0.471,-0.131,-1.611,0.065,0.381,-0.124,-0.493
1267,-1.317,-0.427,0.462,-0.094,-1.49,-0.074,0.396,-0.118,-0.481
1268,-1.492,-0.377,0.435,-0.056,-1.382,-0.121,0.387,-0.094,-0.475
1269,-1.794,-0.029,0.417,0.02,-1.241,-0.12,0.379,-0.091,-0.493
1270,-1.915,0.176,0.297,0.093,-1.117,-0.088,0.379,-0.091,-0.493
1271,-1.853,0.277,0.237,0.093,-1.117,-0.088,0.373,-0.102,-0.493
1272,-1.431,0.519,0.042,0.11,-1.023,-0.129,0.364,-0.057,-0.505
1273,-1.288,0.951,0.039,0.139,-0.958,-0.275,0.364,-0.057,-0.505
1274,-1.362,1.234,0.109,0.284,-0.988,-0.229,0.381,-0.07,-0.514
1275,-1.362,1.174,0.184,0.353,-1.016,0.014,0.379,-0.06,-0.529
1276,-1.362,1.174,0.184,0.274,-0.97,0.137,0.376,-0.04,-0.556
1277,-1.071,1.334,0.315,0.27,-0.971,-0.068,0.376,-0.04,-0.556
1278,-0.701,1.555,0.363,0.296,-0.887,-0.299,0.369,-0.039,-0.538
1279,-0.545,2.438,0.301,0.17,-0.708,-0.214,0.399,-0.045,-0.55
1280,-0.452,2.727,0.295,0.155,-0.641,-0.112,0.405,-0.042,-0.561
1281,-0.368,2.757,0.257,0.011,-0.586,0.249,0.433,-0.031,-0.573
1282,-0.503,2.179,0.194,-0.244,-0.516,0.519,0.423,-0.022,-0.559
1283,-0.485,1.778,0.087,-0.292,-0.473,0.37,0.439,-0.037,-0.594
1284,-0.156,1.691,0.146,-0.11,-0.536,0.135,0.439,-0.037,-0.594
1285,0.0,1.59,0.194,0.0,-0.635,0.087,0.471,-0.03,-0.573
1286,0.021,1.449,0.228,-0.018,-0.669,0.126,0.471,-0.03,-0.573
1287,0.028,1.298,0.223,-0.068,-0.637,0.139,0.475,-0.022,-0.592
1288,0.071,1.092,0.195,-0.144,-0.549,0.172,0.499,-0.037,-0.598
1289,0.159,0.837,0.167,-0.144,-0.549,0.172,0.487,-0.022,-0.6
1290,0.278,0.585,0.17,-0.173,-0.474,0.188,0.483,-0.034,-0.61
1291,0.402,0.357,0.217,-0.169,-0.478,0.203,0.483,-0.034,-0.61
1292,0.572,0.075,0.324,-0.108,-0.501,0.245,0.496,-0.033,-0.588
1293,0.572,0.075,0.324,-0.099,-0.466,0.273,0.498,-0.031,-0.585
1294,0.622,0.009,0.345,-0.101,-0.405,0.317,0.493,-0.028,-0.595
1295,0.672,-0.042,0.345,-0.072,-0.358,0.375,0.486,-0.036,-0.588
1296,0.725,-0.081,0.323,-0.045,-0.359,0.408,0.498,-0.042,-0.586
1297,0.773,-0.14,0.284,-0.017,-0.392,0.424,0.498,-0.042,-0.586
1298,0.819,-0.189,0.252,0.02,-0.481,0.481,0.501,-0.061,-0.585
1299,-0.03,-0.167,0.268,0.212,-1.566,0.739,0.478,-0.078,-0.574
1300,0.004,0.221,0.204,0.148,-1.233,0.621,0.478,-0.078,-0.574
1301,-0.039,0.779,0.065,0.0,-0.759,0.615,0.46,-0.066,-0.583
1302,0.086,1.117,-0.086,-0.221,-0.205,0.639,0.492,-0.058,-0.583
1303,0.276,1.207,-0.151,-0.297,0.187,0.623,0.492,-0.063,-0.583
1304,0.276,1.207,-0.151,-0.213,0.22,0.555,0.486,-0.067,-0.586
1305,0.367,1.099,-0.111,-0.246,-0.047,0.477,0.492,-0.078,-0.586
1306,0.313,0.519,-0.016,-0.238,-0.604,0.393,0.496,-0.063,-0.577
1307,0.03,-0.177,0.115,0.006,-1.479,0.112,0.496,-0.063,-0.577
1308,-0.16,-0.495,0.126,0.296,-1.994,-0.222,0.501,-0.072,-0.579
1309,-0.115,-0.42,-0.067,0.401,-1.998,-0.289,0.516,-0.075,-0.577
1310,-0.303,0.408,-0.13,0.407,-1.998,0.206,0.496,-0.055,-0.592
1311,-0.508,0.931,0.164,0.344,-1.27,0.578,0.498,-0.049,-0.576
1312,-0.048,-0.18,0.45,-0.344,-0.104,0.022,0.504,-0.054,-0.579
1313,0.342,-0.858,0.189,-0.985,0.221,-0.29,0.495,-0.052,-0.576
1314,0.029,-0.525,-0.275,-0.782,-0.069,0.069,0.495,-0.052,-0.576
1315,-0.528,-0.158,-0.52,-0.346,-0.399,0.181,0.495,-0.06,-0.576
1316,-0.799,-0.051,-0.574,-0.04,-0.627,-0.047,0.495,-0.061,-0.585
1317,-0.522,-0.59,-0.373,0.127,-0.724,-0.158,0.505,-0.051,-0.592
1318,0.206,-1.667,-0.143,0.228,-0.809,-0.222,0.484,-0.06,-0.588
1319,0.811,-2.296,0.025,0.228,-0.809,-0.222,0.495,-0.037,-0.588
1320,1.087,-2.271,0.132,0.375,-1.083,-0.381,0.471,-0.069,-0.573
1321,1.033,-1.862,0.197,0.604,-1.423,-0.348,0.471,-0.069,-0.573
1322,0.658,-1.281,0.405,0.917,-1.621,-0.093,0.463,-0.058,-0.588
1323,0.371,-0.92,0.498,0.949,-1.552,0.151,0.453,-0.072,-0.574
1324,0.371,-0.92,0.498,0.593,-1.173,0.24,0.43,-0.054,-0.558
1325,0.448,-0.735,0.536,0.22,-0.793,0.299,0.444,-0.072,-0.57
1326,0.409,-0.854,0.403,-0.087,-0.625,0.431,0.442,-0.057,-0.546
1327,0.269,-1.099,0.167,-0.266,-0.594,0.468,0.412,-0.073,-0.534
1328,0.12,-1.381,-0.06,-0.219,-0.601,0.34,0.412,-0.073,-0.534
1329,0.158,-1.74,-0.175,-0.059,-0.636,0.04,0.415,-0.067,-0.556
1330,0.653,-1.972,0.014,0.2,-0.698,-0.371,0.423,-0.094,-0.546
1331,0.965,-1.791,0.192,0.449,-0.83,-0.535,0.391,-0.075,-0.553
1332,0.952,-1.462,0.257,0.513,-0.911,-0.395,0.382,-0.076,-0.531
1333,0.942,-1.334,0.328,0.489,-0.907,-0.174,0.39,-0.076,-0.531
1334,0.932,-1.439,0.403,0.404,-0.924,0.106,0.376,-0.085,-0.516
1335,0.973,-1.649,0.502,0.19,-0.867,0.297,0.376,-0.085,-0.516
1336,0.909,-1.406,0.296,-0.013,-0.764,0.192,0.355,-0.073,-0.519
1337,0.686,-1.045,0.1,0.059,-0.805,0.001,0.367,-0.09,-0.501
1338,0.54,-0.785,-0.012,0.172,-0.891,-0.01,0.339,-0.093,-0.481
1339,0.425,-0.739,-0.081,0.172,-0.891,-0.01,0.348,-0.094,-0.498
1340,0.346,-0.781,-0.185,0.159,-0.864,0.08,0.352,-0.111,-0.471
1341,0.359,-0.831,-0.196,0.206,-0.793,0.038,0.33,-0.087,-0.474
1342,0.359,-0.831,-0.196,0.304,-0.8,-0.107,0.33,-0.087,-0.474
1343,0.448,-0.809,-0.158,0.348,-0.836,-0.169,0.337,-0.111,-0.472
1344,0.457,-0.676,-0.186,0.345,-0.822,-0.152,0.34,-0.1,-0.48
1345,0.486,-0.598,-0.193,0.326,-0.83,-0.061,0.342,-0.1,-0.454
1346,0.49,-0.568,-0.207,0.303,-0.848,0.039,0.331,-0.117,-0.468
1347,0.476,-0.522,-0.229,0.306,-0.857,0.085,0.315,-0.093,-0.442
1348,0.48,-0.483,-0.24,0.304,-0.871,0.105,0.334,-0.123,-0.439
1349,0.479,-0.475,-0.258,0.289,-0.873,0.104,0.334,-0.123,-0.439
1350,0.494,-0.445,-0.28,0.304,-0.876,0.116,0.309,-0.109,-0.448
1351,0.518,-0.445,-0.291,0.335,-0.885,0.137,0.327,-0.115,-0.442
1352,0.537,-0.446,-0.307,0.348,-0.893,0.127,0.348,-0.126,-0.43
1353,0.546,-0.41,-0.327,0.353,-0.907,0.103,0.327,-0.126,-0.43
1354,0.562,-0.357,-0.342,0.355,-0.918,0.109,0.339,-0.139,-0.435
1355,0.541,-0.329,-0.354,0.337,-0.929,0.154,0.339,-0.139,-0.435
1356,0.49,-0.329,-0.352,0.324,-0.939,0.175,0.342,-0.121,-0.418
1357,0.421,-0.332,-0.345,0.326,-0.955,0.162,0.333,-0.147,-0.423
1358,0.351,-0.342,-0.324,0.325,-0.982,0.165,0.342,-0.138,-0.415
1359,0.286,-0.38,-0.293,0.325,-0.982,0.165,0.358,-0.15,-0.415
1360,0.206,-0.443,-0.277,0.332,-1.0,0.189,0.328,-0.133,-0.415
1361,0.111,-0.501,-0.261,0.379,-1.015,0.186,0.352,-0.144,-0.412
1362,0.015,-0.526,-0.26,0.442,-1.049,0.153,0.352,-0.144,-0.412
1363,0.015,-0.526,-0.26,0.452,-1.057,0.103,0.346,-0.136,-0.397
1364,-0.049,-0.479,-0.293,0.404,-1.059,0.073,0.349,-0.141,-0.414
1365,-0.12,-0.347,-0.332,0.372,-1.123,0.116,0.34,-0.15,-0.399
1366,-0.16,-0.21,-0.317,0.411,-1.195,0.174,0.364,-0.141,-0.399
1367,-0.191,-0.181,-0.288,0.463,-1.228,0.192,0.366,-0.13,-0.406
1368,-0.211,-0.307,-0.168,0.519,-1.231,0.107,0.367,-0.142,-0.399
1369,-0.191,-0.289,-0.028,0.591,-1.214,-0.085,0.367,-0.142,-0.399
1370,-0.238,0.019,0.089,0.653,-1.287,-0.158,0.346,-0.153,-0.381
1371,-0.372,0.252,0.182,0.583,-1.349,-0.107,0.382,-0.145,-0.409
1372,-0.527,0.474,0.179,0.447,-1.311,-0.12,0.357,-0.13,-0.399
1373,-0.749,0.622,0.093,0.282,-1.293,-0.137,0.352,-0.151,-0.417
1374,-1.052,0.791,0.002,0.035,-1.25,-0.137,0.366,-0.141,-0.424
1375,-1.242,0.795,-0.098,-0.095,-1.174,-0.147,0.366,-0.141,-0.424
1376,-1.276,0.757,-0.091,-0.032,-1.2,-0.18,0.354,-0.136,-0.426
1377,-1.237,0.882,-0.004,0.023,-1.296,-0.215,0.372,-0.124,-0.442
1378,-1.274,0.994,0.051,0.023,-1.296,-0.215,0.376,-0.114,-0.45
1379,-1.381,0.874,0.105,-0.045,-1.388,-0.063,0.361,-0.123,-0.447
1380,-1.429,0.494,0.135,-0.122,-1.489,0.205,0.375,-0.121,-0.453
1381,-1.421,0.081,0.162,-0.106,-1.505,0.325,0.375,-0.121,-0.453
1382,-1.41,-0.197,0.205,0.03,-1.452,0.228,0.366,-0.106,-0.472
1383,-1.41,-0.197,0.205,0.099,-1.389,0.059,0.378,-0.112,-0.46
1384,-1.535,-0.269,0.169,0.048,-1.328,-0.029,0.373,-0.082,-0.477
1385,-1.662,-0.15,0.231,0.0,-1.241,-0.04,0.378,-0.079,-0.498
1386,-1.762,-0.092,0.196,-0.061,-1.171,-0.013,0.379,-0.082,-0.489
1387,-1.808,-0.044,0.01,-0.055,-1.146,-0.051,0.385,-0.076,-0.487
1388,-1.74,0.174,-0.113,0.066,-1.097,-0.153,0.385,-0.076,-0.487
1389,-1.445,0.282,-0.13,0.193,-1.067,-0.155,0.378,-0.066,-0.489
1390,-1.234,0.344,-0.086,0.253,-1.097,-0.126,0.382,-0.051,-0.487
1391,-1.129,0.672,-0.084,0.299,-1.062,-0.178,0.382,-0.051,-0.487
1392,-1.075,1.145,-0.065,0.364,-0.985,-0.186,0.385,-0.048,-0.505
1393,-1.065,1.558,-0.008,0.378,-0.974,-0.091,0.391,-0.04,-0.523
1394,-0.875,1.469,0.097,0.324,-0.862,-0.097,0.397,-0.028,-0.531
1395,-1.259,1.992,0.07,0.142,-0.765,0.061,0.397,-0.028,-0.531
1396,-1.421,2.061,-0.109,0.032,-0.739,0.255,0.402,-0.027,-0.532
1397,-0.975,1.808,-0.014,0.057,-0.683,0.201,0.42,-0.021,-0.534
1398,-0.502,1.465,0.187,0.057,-0.683,0.201,0.427,-0.022,-0.535
1399,-0.382,1.397,0.277,0.05,-0.696,0.162,0.441,-0.018,-0.568
1400,-0.327,1.586,0.322,0.007,-0.758,0.09,0.435,-0.006,-0.571
1401,-0.277,1.614,0.32,0.022,-0.76,0.012,0.444,-0.001,-0.558
1402,-0.277,1.614,0.32,0.039,-0.687,0.068,0.444,-0.001,-0.558
1403,-0.219,1.535,0.328,-0.033,-0.616,0.131,0.444,-0.013,-0.571
1404,-0.162,1.485,0.319,-0.084,-0.558,0.098,0.465,-0.007,-0.583
1405,-0.14,1.455,0.271,-0.127,-0.518,0.086,0.465,-0.007,-0.583
1406,-0.115,1.357,0.226,-0.178,-0.5,0.121,0.466,-0.027,-0.592
1407,0.007,1.127,0.191,-0.233,-0.411,0.211,0.475,-0.016,-0.589
1408,0.209,0.804,0.133,-0.27,-0.303,0.269,0.496,0.001,-0.603
1409,0.357,0.522,0.07,-0.236,-0.31,0.291,0.496,0.001,-0.603
1410,0.454,0.295,0.044,-0.139,-0.386,0.31,0.487,-0.016,-0.571
1411,0.519,0.126,0.07,-0.053,-0.465,0.336,0.487,-0.016,-0.571
1412,0.567,0.006,0.123,-0.026,-0.498,0.354,0.472,-0.015,-0.574
1413,0.639,-0.084,0.198,-0.041,-0.48,0.358,0.492,-0.019,-0.582
1414,0.744,-0.159,0.274,-0.048,-0.461,0.381,0.478,-0.039,-0.57
1415,0.839,-0.22,0.34,-0.037,-0.464,0.426,0.474,-0.033,-0.571
1416,0.896,-0.242,0.379,-0.014,-0.493,0.511,0.475,-0.04,-0.579
1417,0.897,-0.217,0.381,0.006,-0.561,0.607,0.475,-0.04,-0.579
1418,0.868,-0.157,0.367,0.006,-0.561,0.607,0.465,-0.037,-0.576
1419,0.833,-0.072,0.367,0.023,-0.65,0.687,0.465,-0.037,-0.576
1420,0.793,0.039,0.387,0.07,-0.754,0.768,0.46,-0.04,-0.568
1421,0.72,0.162,0.401,0.11,-0.878,0.839,0.454,-0.037,-0.562
1422,0.72,0.162,0.401,0.153,-1.025,0.894,0.457,-0.054,-0.559
1423,0.574,0.254,0.387,0.243,-1.238,0.965,0.459,-0.046,-0.568
1424,0.343,0.256,0.362,0.322,-1.489,1.049,0.459,-0.046,-0.568
1425,0.095,0.01,0.372,0.317,-1.659,1.033,0.477,-0.052,-0.558
1426,0.033,-0.422,0.397,0.213,-1.637,0.833,0.465,-0.055,-0.55
1427,0.099,-0.534,0.402,0.085,-1.418,0.635,0.456,-0.054,-0.547
1428,0.044,-0.04,0.338,-0.082,-1.049,0.637,0.463,-0.049,-0.559
1429,-0.146,0.691,0.217,-0.299,-0.519,0.716,0.438,-0.046,-0.531
1430,-0.178,1.201,0.045,-0.457,-0.084,0.723,0.438,-0.046,-0.531
1431,-0.131,1.215,-0.105,-0.441,-0.189,0.705,0.439,-0.042,-0.552
1432,-0.074,0.739,-0.178,-0.188,-0.756,0.538,0.45,-0.055,-0.553
1433,-0.17,0.176,-0.26,0.121,-1.539,0.102,0.468,-0.046,-0.546
1434,-0.203,-0.193,-0.312,0.176,-1.99,-0.338,0.466,-0.045,-0.567
1435,-0.351,-0.091,-0.436,0.009,-1.998,-0.231,0.463,-0.046,-0.553
1436,-0.77,0.716,-0.47,0.139,-1.992,0.375,0.474,-0.048,-0.568
1437,-0.823,1.079,-0.278,0.237,-1.326,0.589,0.474,-0.048,-0.568
1438,-0.322,0.24,-0.108,0.237,-1.326,0.589,0.48,-0.028,-0.57
1439,0.035,-0.452,-0.084,-0.111,-0.363,0.118,0.471,-0.024,-0.559
1440,-0.056,-0.47,-0.15,-0.301,-0.117,-0.183,0.471,-0.024,-0.559
1441,-0.383,-0.298,-0.209,-0.222,-0.299,-0.017,0.454,-0.036,-0.583
1442,-0.383,-0.298,-0.209,-0.068,-0.539,0.073,0.477,-0.037,-0.562
1443,-0.462,-0.34,-0.153,0.042,-0.725,0.037,0.469,-0.034,-0.568
1444,-0.195,-0.73,-0.028,0.065,-0.827,-0.016,0.469,-0.034,-0.568
1445,0.333,-1.468,0.059,0.146,-0.94,-0.157,0.457,-0.03,-0.57
1446,0.772,-1.899,0.14,0.369,-1.251,-0.342,0.448,-0.031,-0.556
1447,0.984,-1.712,0.235,0.671,-1.604,-0.341,0.427,-0.042,-0.558
1448,0.921,-1.186,0.428,0.84,-1.709,-0.047,0.433,-0.049,-0.55
1449,0.585,-0.905,0.57,0.695,-1.514,0.287,0.435,-0.039,-0.547
1450,0.282,-0.807,0.558,0.335,-1.094,0.37,0.423,-0.058,-0.556
1451,0.233,-0.704,0.464,-0.021,-0.689,0.333,0.423,-0.058,-0.556
1452,0.102,-0.779,0.243,-0.31,-0.486,0.362,0.411,-0.025,-0.55
1453,0.128,-1.031,-0.022,-0.434,-0.475,0.326,0.4,-0.031,-0.511
1454,0.292,-1.418,-0.201,-0.374,-0.56,0.245,0.4,-0.031,-0.511
1455,0.45,-1.807,-0.296,-0.187,-0.717,0.155,0.406,-0.046,-0.537
1456,0.44,-1.952,-0.393,-0.187,-0.717,0.155,0.393,-0.057,-0.528
1457,0.534,-1.819,-0.294,0.071,-0.929,-0.011,0.358,-0.051,-0.511
1458,0.996,-1.589,0.143,0.484,-1.101,-0.393,0.358,-0.051,-0.511
1459,1.241,-1.339,0.513,0.797,-1.143,-0.613,0.379,-0.051,-0.51
1460,1.099,-1.306,0.529,0.793,-1.1,-0.332,0.361,-0.051,-0.507
1461,1.033,-1.411,0.511,0.616,-0.974,0.061,0.357,-0.051,-0.471
1462,1.033,-1.411,0.511,0.397,-0.844,0.235,0.343,-0.052,-0.469
1463,0.969,-1.446,0.397,0.262,-0.724,0.177,0.319,-0.073,-0.469
1464,0.981,-1.219,0.285,0.137,-0.664,0.068,0.348,-0.084,-0.462
1465,0.934,-0.976,0.182,0.12,-0.72,0.046,0.348,-0.084,-0.462
1466,0.744,-0.835,0.041,0.208,-0.73,0.045,0.343,-0.075,-0.463
1467,0.643,-0.783,-0.039,0.238,-0.743,0.027,0.33,-0.078,-0.438
1468,0.63,-0.778,-0.104,0.238,-0.774,-0.015,0.33,-0.078,-0.438
1469,0.602,-0.652,-0.168,0.284,-0.806,-0.095,0.325,-0.069,-0.414
1470,0.59,-0.512,-0.205,0.335,-0.842,-0.09,0.334,-0.073,-0.427
1471,0.598,-0.462,-0.216,0.295,-0.844,0.002,0.316,-0.087,-0.424
1472,0.63,-0.442,-0.221,0.231,-0.821,0.073,0.316,-0.087,-0.424
1473,0.616,-0.45,-0.256,0.207,-0.813,0.108,0.33,-0.087,-0.418
1474,0.568,-0.465,-0.292,0.209,-0.812,0.084,0.321,-0.102,-0.42
1475,0.556,-0.459,-0.323,0.207,-0.8,0.051,0.322,-0.099,-0.408
1476,0.554,-0.464,-0.352,0.196,-0.81,0.073,0.328,-0.088,-0.408
1477,0.577,-0.5,-0.365,0.196,-0.81,0.073,0.321,-0.1,-0.384
1478,0.602,-0.485,-0.371,0.21,-0.827,0.076,0.316,-0.091,-0.381
1479,0.625,-0.466,-0.368,0.238,-0.853,0.087,0.316,-0.091,-0.381
1480,0.643,-0.457,-0.363,0.273,-0.887,0.124,0.318,-0.082,-0.381
1481,0.627,-0.472,-0.352,0.297,-0.911,0.173,0.3,-0.118,-0.361
1482,0.627,-0.472,-0.352,0.321,-0.921,0.192,0.3,-0.118,-0.361
1483,0.562,-0.476,-0.34,0.344,-0.925,0.163,0.336,-0.103,-0.384
1484,0.471,-0.471,-0.326,0.348,-0.943,0.136,0.327,-0.096,-0.39
1485,0.383,-0.453,-0.298,0.356,-0.965,0.119,0.322,-0.126,-0.367
1486,0.3,-0.463,-0.262,0.383,-0.977,0.151,0.322,-0.126,-0.367
1487,0.213,-0.501,-0.235,0.449,-1.006,0.182,0.318,-0.099,-0.361
1488,0.14,-0.489,-0.205,0.525,-1.046,0.163,0.348,-0.117,-0.34
1489,0.075,-0.485,-0.184,0.487,-1.034,0.182,0.348,-0.117,-0.34
1490,-0.007,-0.442,-0.247,0.379,-1.03,0.173,0.325,-0.117,-0.355
1491,-0.088,-0.284,-0.317,0.364,-1.114,0.171,0.319,-0.13,-0.363
1492,-0.109,-0.142,-0.324,0.402,-1.198,0.249,0.31,-0.12,-0.355
1493,-0.145,-0.181,-0.319,0.459,-1.231,0.317,0.31,-0.12,-0.355
1494,-0.205,-0.27,-0.234,0.555,-1.174,0.242,0.303,-0.117,-0.348
1495,-0.271,-0.3,-0.097,0.586,-1.136,0.02,0.334,-0.121,-0.343
1496,-0.375,-0.069,0.03,0.581,-1.211,-0.188,0.322,-0.117,-0.343
1497,-0.464,0.289,0.074,0.581,-1.211,-0.188,0.325,-0.114,-0.354
1498,-0.62,0.586,0.111,0.59,-1.272,-0.197,0.327,-0.141,-0.358
1499,-0.752,0.826,0.102,0.626,-1.273,-0.163,0.327,-0.123,-0.358
1500,-0.752,0.826,0.102,0.606,-1.26,-0.266,0.327,-0.123,-0.358
1501,-1.004,0.99,0.097,0.274,-1.275,-0.208,0.316,-0.106,-0.358
1502,-1.283,1.073,-0.009,-0.053,-1.241,-0.118,0.319,-0.133,-0.379
1503,-1.318,1.008,-0.037,-0.04,-1.24,-0.157,0.319,-0.133,-0.379
1504,-1.187,1.054,0.028,0.002,-1.351,-0.167,0.343,-0.127,-0.406
1505,-1.131,1.071,0.056,-0.067,-1.5,-0.037,0.357,-0.111,-0.393
1506,-1.216,0.863,0.104,-0.112,-1.65,0.166,0.33,-0.103,-0.433
1507,-1.323,0.492,0.184,-0.12,-1.661,0.208,0.33,-0.103,-0.433
1508,-1.353,0.13,0.181,-0.07,-1.565,0.123,0.325,-0.096,-0.429
1509,-1.408,-0.046,0.13,0.035,-1.481,0.02,0.34,-0.09,-0.456
1510,-1.448,0.003,0.144,0.104,-1.393,-0.063,0.318,-0.093,-0.453
1511,-1.563,0.145,0.181,0.095,-1.274,-0.055,0.336,-0.102,-0.465
1512,-1.791,0.264,0.181,0.032,-1.166,0.018,0.33,-0.067,-0.456
1513,-1.92,0.326,0.083,-0.011,-1.039,0.047,0.339,-0.085,-0.457
1514,-1.791,0.287,-0.109,0.028,-0.922,0.048,0.339,-0.085,-0.457
1515,-1.516,0.275,-0.205,0.145,-0.924,-0.027,0.331,-0.06,-0.475
1516,-1.198,0.564,-0.213,0.34,-0.942,-0.279,0.321,-0.066,-0.48
1517,-0.991,1.029,-0.084,0.34,-0.942,-0.279,0.321,-0.066,-0.48
1518,-1.102,1.306,-0.015,0.477,-0.999,-0.229,0.336,-0.045,-0.48
1519,-1.174,1.488,0.045,0.441,-1.086,0.025,0.352,-0.064,-0.513
1520,-1.174,1.488,0.045,0.311,-1.057,0.07,0.351,-0.045,-0.514
1521,-1.185,1.671,0.074,0.164,-0.925,0.105,0.351,-0.045,-0.514
1522,-1.139,1.751,0.016,0.072,-0.806,0.117,0.361,-0.037,-0.538
1523,-0.965,1.81,0.062,0.027,-0.755,0.096,0.379,-0.03,-0.546
1524,-0.685,1.742,0.2,0.01,-0.725,0.082,0.385,-0.036,-0.544
1525,-0.493,1.731,0.284,0.002,-0.715,0.079,0.382,-0.028,-0.565
1526,-0.4,1.601,0.389,0.009,-0.694,0.096,0.4,-0.037,-0.576
1527,-0.354,1.553,0.361,-0.044,-0.637,0.138,0.408,-0.024,-0.574
1528,-0.375,1.505,0.306,-0.052,-0.635,0.138,0.415,0.003,-0.568
1529,-0.319,1.464,0.347,-0.002,-0.672,0.114,0.415,0.003,-0.568
1530,-0.219,1.318,0.384,-0.073,-0.598,0.161,0.405,0.0,-0.579
1531,-0.077,1.084,0.347,-0.201,-0.414,0.234,0.405,0.0,-0.579
1532,0.084,0.829,0.275,-0.283,-0.28,0.248,0.405,-0.003,-0.612
1533,0.235,0.596,0.191,-0.288,-0.287,0.247,0.424,-0.025,-0.597
1534,0.328,0.399,0.119,-0.243,-0.355,0.278,0.432,-0.007,-0.598
1535,0.413,0.224,0.093,-0.169,-0.402,0.304,0.435,-0.019,-0.615
1536,0.491,0.089,0.102,-0.169,-0.402,0.304,0.435,-0.019,-0.615
1537,0.546,-0.002,0.133,-0.111,-0.436,0.33,0.433,-0.025,-0.585
1538,0.596,-0.06,0.167,-0.064,-0.467,0.353,0.417,-0.039,-0.597
1539,0.661,-0.107,0.209,-0.025,-0.485,0.376,0.445,-0.03,-0.585
1540,0.661,-0.107,0.209,-0.008,-0.485,0.409,0.432,-0.03,-0.562
1541,0.746,-0.155,0.257,-0.028,-0.477,0.451,0.424,-0.042,-0.576
1542,0.817,-0.189,0.288,-0.037,-0.503,0.509,0.424,-0.042,-0.576
1543,0.857,-0.182,0.296,0.001,-0.562,0.573,0.412,-0.043,-0.577
1544,0.879,-0.144,0.298,0.063,-0.644,0.652,0.418,-0.045,-0.55
1545,0.865,-0.102,0.311,0.125,-0.753,0.747,0.418,-0.045,-0.55
1546,0.822,-0.046,0.34,0.164,-0.858,0.842,0.402,-0.057,-0.549
1547,0.748,0.034,0.366,0.211,-0.963,0.922,0.42,-0.066,-0.565
1548,0.64,0.137,0.375,0.276,-1.106,0.983,0.421,-0.066,-0.561
1549,0.454,0.202,0.355,0.332,-1.298,1.045,0.421,-0.066,-0.561
1550,0.198,0.092,0.323,0.32,-1.504,1.049,0.415,-0.063,-0.561
1551,0.023,-0.288,0.331,0.235,-1.644,0.894,0.402,-0.069,-0.537
1552,-0.011,-0.567,0.364,0.176,-1.622,0.668,0.402,-0.069,-0.537
1553,-0.005,-0.32,0.357,0.101,-1.407,0.6,0.391,-0.078,-0.55
1554,-0.055,0.369,0.268,-0.156,-0.982,0.65,0.411,-0.07,-0.543
1555,-0.124,1.064,0.1,-0.455,-0.584,0.677,0.406,-0.063,-0.561
1556,-0.117,1.151,-0.077,-0.455,-0.584,0.677,0.406,-0.063,-0.561
1557,-0.088,0.665,-0.226,-0.477,-0.644,0.619,0.391,-0.067,-0.553
1558,-0.119,0.024,-0.309,-0.141,-1.115,0.361,0.411,-0.066,-0.543
1559,-0.233,-0.3,-0.308,0.183,-1.512,-0.085,0.409,-0.088,-0.559
1560,-0.233,-0.3,-0.308,0.035,-1.684,-0.239,0.411,-0.061,-0.561
1561,-0.417,0.025,-0.384,-0.279,-1.737,0.182,0.427,-0.066,-0.544
1562,-0.514,0.515,-0.471,-0.194,-1.383,0.487,0.406,-0.072,-0.553
1563,-0.443,0.336,-0.443,-0.033,-0.865,0.27,0.406,-0.072,-0.553
1564,-0.275,-0.126,-0.405,-0.051,-0.666,0.019,0.432,-0.076,-0.559
1565,-0.283,-0.264,-0.34,-0.002,-0.702,0.021,0.402,-0.057,-0.556
1566,-0.427,-0.171,-0.249,0.082,-0.803,0.106,0.402,-0.057,-0.556
1567,-0.37,-0.263,-0.099,0.113,-0.822,0.122,0.433,-0.061,-0.565
1568,-0.013,-0.703,0.064,0.105,-0.772,0.019,0.417,-0.067,-0.564
1569,0.475,-1.259,0.132,0.14,-0.826,-0.115,0.402,-0.064,-0.57
1570,0.833,-1.611,0.186,0.316,-1.054,-0.244,0.405,-0.073,-0.546
1571,1.001,-1.563,0.259,0.54,-1.308,-0.294,0.405,-0.073,-0.546
1572,0.919,-1.21,0.369,0.683,-1.434,-0.111,0.384,-0.084,-0.546
1573,0.606,-0.939,0.417,0.608,-1.354,0.183,0.373,-0.076,-0.52
1574,0.31,-0.821,0.37,0.345,-1.077,0.279,0.39,-0.084,-0.549
1575,0.242,-0.709,0.269,0.1,-0.747,0.168,0.397,-0.079,-0.522
1576,0.344,-0.62,0.144,0.1,-0.747,0.168,0.367,-0.087,-0.523
1577,0.259,-0.697,-0.069,-0.09,-0.576,0.173,0.363,-0.091,-0.513
1578,0.347,-0.959,-0.212,-0.236,-0.566,0.252,0.363,-0.091,-0.513
1579,0.445,-1.295,-0.258,-0.26,-0.633,0.287,0.351,-0.087,-0.504
1580,0.445,-1.295,-0.258,-0.119,-0.778,0.293,0.351,-0.087,-0.504
1581,0.528,-1.524,-0.227,0.107,-0.919,0.1,0.364,-0.109,-0.504
1582,0.538,-1.447,-0.184,0.342,-1.021,-0.167,0.349,-0.124,-0.496
1583,0.735,-1.226,0.051,0.588,-1.076,-0.358,0.342,-0.112,-0.49
1584,1.159,-1.125,0.443,0.686,-1.078,-0.327,0.324,-0.129,-0.478
1585,1.2,-1.069,0.583,0.548,-1.004,-0.066,0.324,-0.129,-0.478
1586,1.063,-1.076,0.562,0.359,-0.847,0.147,0.322,-0.126,-0.46
1587,0.967,-1.143,0.471,0.217,-0.734,0.198,0.315,-0.112,-0.444
1588,0.884,-1.113,0.323,0.136,-0.674,0.129,0.319,-0.121,-0.435
1589,0.828,-0.872,0.198,0.103,-0.682,0.082,0.304,-0.117,-0.408
1590,0.729,-0.657,0.046,0.145,-0.732,0.035,0.295,-0.133,-0.432
1591,0.65,-0.498,-0.032,0.21,-0.809,0.033,0.295,-0.133,-0.432
1592,0.638,-0.529,-0.057,0.225,-0.859,0.073,0.289,-0.132,-0.415
1593,0.611,-0.577,-0.102,0.26,-0.822,-0.005,0.289,-0.138,-0.388
1594,0.62,-0.557,-0.14,0.312,-0.811,-0.107,0.289,-0.138,-0.388
1595,0.631,-0.46,-0.169,0.312,-0.812,-0.112,0.303,-0.138,-0.405
1596,0.653,-0.387,-0.191,0.323,-0.812,-0.112,0.298,-0.121,-0.39
1597,0.667,-0.389,-0.214,0.286,-0.795,-0.027,0.295,-0.144,-0.382
1598,0.679,-0.402,-0.231,0.25,-0.785,0.061,0.295,-0.144,-0.382
1599,0.672,-0.415,-0.254,0.24,-0.796,0.087,0.28,-0.142,-0.379
1600,0.672,-0.415,-0.254,0.223,-0.817,0.123,0.294,-0.141,-0.384
1601,0.659,-0.458,-0.287,0.215,-0.838,0.152,0.28,-0.147,-0.345
1602,0.644,-0.499,-0.318,0.227,-0.855,0.145,0.283,-0.15,-0.357
1603,0.644,-0.534,-0.338,0.246,-0.86,0.129,0.312,-0.159,-0.351
1604,0.654,-0.51,-0.357,0.277,-0.874,0.129,0.297,-0.162,-0.348
1605,0.646,-0.501,-0.37,0.316,-0.899,0.136,0.297,-0.162,-0.348
1606,0.602,-0.489,-0.364,0.347,-0.922,0.138,0.298,-0.165,-0.343
1607,0.535,-0.452,-0.347,0.354,-0.941,0.154,0.286,-0.178,-0.33
1608,0.452,-0.422,-0.324,0.35,-0.954,0.166,0.31,-0.16,-0.328
1609,0.38,-0.423,-0.29,0.348,-0.974,0.166,0.304,-0.163,-0.325
1610,0.293,-0.458,-0.26,0.353,-0.998,0.173,0.301,-0.168,-0.33
1611,0.194,-0.497,-0.241,0.41,-1.023,0.168,0.312,-0.171,-0.321
1612,0.116,-0.492,-0.219,0.463,-1.026,0.149,0.312,-0.171,-0.321
1613,0.039,-0.469,-0.229,0.406,-0.998,0.171,0.3,-0.177,-0.324
1614,-0.051,-0.427,-0.287,0.406,-0.998,0.171,0.292,-0.187,-0.301
1615,-0.119,-0.267,-0.336,0.335,-1.03,0.183,0.292,-0.187,-0.301
1616,-0.118,-0.156,-0.335,0.354,-1.114,0.194,0.312,-0.195,-0.315
1617,-0.182,-0.222,-0.326,0.431,-1.165,0.267,0.304,-0.186,-0.295
1618,-0.256,-0.298,-0.233,0.545,-1.172,0.256,0.318,-0.186,-0.292
1619,-0.256,-0.298,-0.233,0.626,-1.2,0.06,0.318,-0.186,-0.292
1620,-0.301,-0.142,-0.032,0.669,-1.282,-0.168,0.309,-0.186,-0.307
1621,-0.348,0.188,0.156,0.614,-1.322,-0.214,0.291,-0.183,-0.307
1622,-0.458,0.502,0.215,0.517,-1.325,-0.149,0.307,-0.201,-0.298
1623,-0.63,0.757,0.195,0.44,-1.308,-0.173,0.304,-0.181,-0.336
1624,-0.847,0.947,0.149,0.238,-1.302,-0.169,0.312,-0.186,-0.334
1625,-1.106,1.031,0.057,0.042,-1.282,-0.108,0.31,-0.181,-0.339
1626,-1.263,0.963,-0.018,0.064,-1.255,-0.097,0.31,-0.181,-0.339
1627,-1.256,0.925,0.053,0.158,-1.324,-0.175,0.319,-0.184,-0.351
1628,-1.221,1.022,0.137,0.128,-1.432,-0.179,0.288,-0.181,-0.381
1629,-1.302,0.976,0.17,0.045,-1.547,0.01,0.288,-0.181,-0.381
1630,-1.39,0.73,0.184,0.012,-1.563,0.154,0.306,-0.187,-0.399
1631,-1.353,0.372,0.214,0.036,-1.467,0.123,0.297,-0.165,-0.411
1632,-1.286,0.08,0.23,0.058,-1.408,0.008,0.315,-0.163,-0.432
1633,-1.352,-0.005,0.21,0.026,-1.382,-0.055,0.315,-0.163,-0.432
1634,-1.517,0.073,0.261,-0.003,-1.343,-0.061,0.298,-0.166,-0.432
1635,-1.625,0.17,0.337,-0.055,-1.287,0.039,0.3,-0.154,-0.439
1636,-1.759,0.161,0.269,-0.055,-1.287,0.039,0.301,-0.16,-0.442
1637,-1.773,0.121,0.058,-0.141,-1.173,0.112,0.295,-0.139,-0.46
1638,-1.67,0.19,-0.133,-0.144,-1.084,0.062,0.312,-0.141,-0.49
1639,-1.67,0.19,-0.133,-0.046,-1.046,-0.015,0.306,-0.136,-0.495
1640,-1.487,0.326,-0.289,0.087,-1.031,-0.097,0.306,-0.136,-0.495
1641,-1.396,0.624,-0.378,0.265,-1.034,-0.184,0.3,-0.121,-0.502
1642,-1.245,1.061,-0.247,0.491,-1.035,-0.206,0.316,-0.123,-0.51
1643,-1.193,1.285,-0.042,0.56,-1.043,-0.048,0.316,-0.123,-0.51
1644,-1.12,1.415,0.084,0.413,-1.015,0.078,0.328,-0.105,-0.528
1645,-1.175,1.647,0.107,0.234,-0.906,0.086,0.339,-0.081,-0.531
1646,-1.162,1.809,0.061,0.145,-0.757,0.107,0.339,-0.081,-0.531
1647,-0.948,1.708,0.09,0.093,-0.712,0.157,0.349,-0.099,-0.573
1648,-0.753,1.549,0.176,0.055,-0.747,0.208,0.363,-0.09,-0.57
1649,-0.53,1.43,0.271,0.026,-0.719,0.159,0.363,-0.09,-0.57
1650,-0.321,1.415,0.375,0.004,-0.672,0.068,0.352,-0.064,-0.565
1651,-0.252,1.458,0.396,0.0,-0.647,0.045,0.387,-0.082,-0.595
1652,-0.184,1.46,0.42,-0.009,-0.605,0.088,0.379,-0.091,-0.597
1653,-0.151,1.361,0.401,-0.071,-0.586,0.121,0.402,-0.076,-0.601
1654,-0.172,1.358,0.361,-0.127,-0.569,0.135,0.402,-0.076,-0.601
1655,-0.103,1.22,0.334,-0.127,-0.569,0.135,0.394,-0.072,-0.598
1656,0.062,0.993,0.298,-0.158,-0.476,0.181,0.391,-0.061,-0.6
1657,0.223,0.758,0.256,-0.227,-0.347,0.23,0.391,-0.061,-0.6
1658,0.366,0.54,0.221,-0.257,-0.27,0.269,0.405,-0.067,-0.61
1659,0.366,0.54,0.221,-0.228,-0.268,0.29,0.405,-0.055,-0.607
1660,0.485,0.333,0.214,-0.171,-0.309,0.316,0.408,-0.07,-0.621
1661,0.604,0.164,0.247,-0.122,-0.344,0.331,0.408,-0.07,-0.621
1662,0.712,0.025,0.283,-0.087,-0.377,0.344,0.414,-0.072,-0.616
1663,0.786,-0.079,0.312,-0.061,-0.406,0.38,0.43,-0.067,-0.594
1664,0.83,-0.154,0.316,-0.04,-0.426,0.426,0.43,-0.067,-0.594
1665,0.851,-0.196,0.303,-0.03,-0.478,0.499,0.412,-0.082,-0.613
1666,0.836,-0.193,0.277,-0.021,-0.549,0.585,0.412,-0.081,-0.616
1667,0.809,-0.142,0.245,0.02,-0.652,0.653,0.408,-0.091,-0.588
1668,0.792,-0.044,0.231,0.099,-0.803,0.703,0.409,-0.076,-0.601
1669,0.774,0.1,0.249,0.179,-0.946,0.769,0.409,-0.076,-0.601
1670,0.719,0.266,0.279,0.244,-1.057,0.862,0.385,-0.087,-0.58
1671,0.595,0.391,0.294,0.31,-1.167,0.971,0.409,-0.109,-0.592
1672,0.413,0.42,0.296,0.37,-1.275,1.047,0.415,-0.096,-0.585
1673,0.212,0.263,0.313,0.37,-1.275,1.047,0.409,-0.082,-0.592
1674,0.121,-0.133,0.371,0.386,-1.359,1.011,0.412,-0.118,-0.595
1675,0.151,-0.469,0.425,0.322,-1.37,0.828,0.412,-0.118,-0.595
1676,0.11,-0.32,0.41,0.231,-1.298,0.617,0.387,-0.103,-0.591
1677,-0.025,0.262,0.303,0.16,-1.133,0.573,0.388,-0.096,-0.561
1678,-0.107,0.868,0.138,-0.023,-0.783,0.668,0.388,-0.096,-0.561
1679,-0.107,0.868,0.138,-0.255,-0.268,0.69,0.381,-0.091,-0.579
1680,0.009,1.145,-0.007,-0.334,-0.01,0.619,0.402,-0.099,-0.6
1681,0.124,1.068,-0.094,-0.329,-0.201,0.564,0.418,-0.09,-0.591
1682,0.179,0.541,-0.102,-0.232,-0.715,0.385,0.418,-0.09,-0.591
1683,0.128,-0.052,-0.058,-0.024,-1.525,-0.045,0.421,-0.091,-0.592
1684,0.056,-0.316,-0.087,0.017,-1.994,-0.384,0.421,-0.099,-0.576
1685,-0.119,-0.07,-0.212,-0.133,-1.998,-0.308,0.411,-0.108,-0.583
1686,-0.501,0.62,-0.301,0.021,-1.998,0.308,0.421,-0.096,-0.582
1687,-0.669,0.89,-0.13,0.35,-1.467,0.668,0.412,-0.096,-0.603
1688,-0.192,-0.073,0.104,0.058,-0.567,0.133,0.424,-0.099,-0.586
1689,0.224,-0.849,0.021,-0.427,-0.204,-0.278,0.424,-0.099,-0.586
1690,0.104,-0.803,-0.242,-0.416,-0.312,-0.122,0.435,-0.105,-0.589
1691,-0.303,-0.448,-0.436,-0.227,-0.504,-0.001,0.405,-0.082,-0.589
1692,-0.459,-0.289,-0.47,-0.057,-0.648,-0.092,0.405,-0.082,-0.589
1693,-0.242,-0.535,-0.335,0.081,-0.748,-0.124,0.427,-0.081,-0.607
1694,0.303,-1.234,-0.142,0.081,-0.748,-0.124,0.399,-0.094,-0.6
1695,0.808,-1.766,0.039,0.209,-0.887,-0.134,0.39,-0.096,-0.586
1696,1.106,-1.848,0.207,0.409,-1.146,-0.236,0.39,-0.096,-0.586
1697,1.061,-1.765,0.35,0.68,-1.413,-0.277,0.399,-0.084,-0.577
1698,0.72,-1.524,0.427,0.831,-1.506,-0.074,0.381,-0.106,-0.573
1699,0.72,-1.524,0.427,0.773,-1.386,0.138,0.378,-0.115,-0.562
1700,0.497,-1.173,0.497,0.543,-1.141,0.194,0.382,-0.12,-0.547
1701,0.298,-0.935,0.466,0.174,-0.872,0.304,0.324,-0.111,-0.562
1702,0.104,-0.788,0.272,-0.185,-0.633,0.443,0.366,-0.12,-0.535
1703,0.07,-0.94,-0.035,-0.381,-0.518,0.518,0.366,-0.12,-0.535
1704,0.172,-1.389,-0.257,-0.323,-0.523,0.411,0.351,-0.124,-0.547
1705,0.361,-1.799,-0.318,-0.066,-0.645,0.108,0.354,-0.118,-0.504
1706,0.738,-1.905,-0.172,0.348,-0.803,-0.344,0.354,-0.118,-0.504
1707,0.994,-1.549,0.025,0.601,-0.924,-0.631,0.331,-0.115,-0.514
1708,1.136,-1.131,0.247,0.683,-1.04,-0.419,0.306,-0.127,-0.477
1709,1.003,-1.075,0.366,0.643,-1.015,-0.008,0.306,-0.123,-0.492
1710,0.945,-1.299,0.401,0.458,-0.877,0.195,0.306,-0.123,-0.492
1711,0.861,-1.433,0.366,0.221,-0.737,0.198,0.316,-0.114,-0.487
1712,0.722,-1.213,0.214,0.067,-0.688,0.072,0.295,-0.142,-0.466
1713,0.665,-0.864,0.109,0.112,-0.794,-0.052,0.27,-0.129,-0.448
1714,0.576,-0.648,0.06,0.112,-0.794,-0.052,0.291,-0.127,-0.459
1715,0.454,-0.532,-0.006,0.096,-0.867,0.033,0.282,-0.133,-0.45
1716,0.494,-0.628,-0.022,0.114,-0.866,0.083,0.286,-0.126,-0.436
1717,0.494,-0.628,-0.022,0.202,-0.867,0.04,0.286,-0.126,-0.436
1718,0.482,-0.707,-0.049,0.248,-0.85,0.019,0.294,-0.151,-0.447
1719,0.481,-0.695,-0.094,0.31,-0.835,-0.026,0.279,-0.138,-0.43
1720,0.508,-0.656,-0.105,0.369,-0.821,-0.012,0.279,-0.138,-0.43
1721,0.558,-0.663,-0.11,0.383,-0.797,0.056,0.271,-0.139,-0.403
1722,0.569,-0.665,-0.13,0.369,-0.791,0.092,0.297,-0.162,-0.417
1723,0.545,-0.628,-0.163,0.364,-0.803,0.082,0.277,-0.154,-0.397
1724,0.522,-0.578,-0.196,0.349,-0.811,0.081,0.277,-0.154,-0.397
1725,0.503,-0.553,-0.23,0.322,-0.816,0.081,0.283,-0.15,-0.385
1726,0.493,-0.486,-0.271,0.308,-0.829,0.062,0.282,-0.16,-0.387
1727,0.493,-0.407,-0.317,0.295,-0.847,0.075,0.276,-0.154,-0.369
1728,0.494,-0.337,-0.35,0.289,-0.865,0.115,0.28,-0.162,-0.375
1729,0.515,-0.287,-0.364,0.302,-0.89,0.168,0.271,-0.147,-0.375
1730,0.529,-0.282,-0.369,0.322,-0.907,0.207,0.292,-0.162,-0.384
1731,0.522,-0.317,-0.368,0.344,-0.903,0.193,0.292,-0.162,-0.384
1732,0.49,-0.322,-0.359,0.367,-0.905,0.141,0.294,-0.171,-0.361
1733,0.442,-0.308,-0.352,0.379,-0.922,0.104,0.274,-0.157,-0.34
1734,0.383,-0.296,-0.33,0.379,-0.922,0.104,0.303,-0.172,-0.336
1735,0.308,-0.287,-0.304,0.371,-0.947,0.096,0.295,-0.184,-0.351
1736,0.226,-0.308,-0.288,0.351,-0.98,0.123,0.316,-0.177,-0.349
1737,0.226,-0.308,-0.288,0.351,-1.014,0.155,0.292,-0.178,-0.348
1738,0.147,-0.32,-0.27,0.369,-1.039,0.141,0.292,-0.178,-0.348
1739,0.086,-0.338,-0.245,0.312,-1.059,0.149,0.301,-0.196,-0.333
1740,0.004,-0.371,-0.274,0.177,-1.089,0.186,0.283,-0.184,-0.322
1741,-0.095,-0.238,-0.326,0.153,-1.152,0.161,0.283,-0.184,-0.322
1742,-0.17,-0.069,-0.333,0.239,-1.2,0.161,0.312,-0.187,-0.345
1743,-0.156,-0.094,-0.31,0.306,-1.171,0.246,0.304,-0.196,-0.334
1744,-0.195,-0.242,-0.27,0.419,-1.117,0.238,0.322,-0.181,-0.339
1745,-0.262,-0.378,-0.152,0.541,-1.147,0.08,0.322,-0.181,-0.339
1746,-0.328,-0.26,-0.016,0.599,-1.229,-0.096,0.324,-0.195,-0.337
1747,-0.42,0.077,0.049,0.652,-1.251,-0.152,0.295,-0.18,-0.333
1748,-0.471,0.4,0.102,0.717,-1.215,-0.203,0.303,-0.201,-0.345
1749,-0.539,0.681,0.133,0.653,-1.195,-0.258,0.315,-0.183,-0.343
1750,-0.753,0.877,0.113,0.344,-1.234,-0.153,0.298,-0.195,-0.351
1751,-1.023,0.975,0.027,0.078,-1.235,-0.103,0.315,-0.183,-0.364
1752,-1.148,1.013,-0.043,0.062,-1.226,-0.149,0.315,-0.183,-0.364
1753,-1.173,1.013,-0.023,0.062,-1.226,-0.149,0.318,-0.16,-0.382
1754,-1.2,1.043,0.084,0.139,-1.321,-0.155,0.312,-0.169,-0.393
1755,-1.227,0.974,0.207,0.175,-1.462,-0.118,0.312,-0.169,-0.393
1756,-1.206,0.752,0.277,0.125,-1.496,-0.003,0.324,-0.169,-0.405
1757,-1.2,0.428,0.293,0.039,-1.439,0.12,0.322,-0.168,-0.415
1758,-1.2,0.428,0.293,0.031,-1.415,0.181,0.312,-0.153,-0.418
1759,-1.239,0.103,0.283,0.041,-1.389,0.17,0.312,-0.153,-0.418
1760,-1.418,-0.037,0.187,0.036,-1.326,0.071,0.306,-0.159,-0.424
1761,-1.575,-0.013,0.14,0.071,-1.268,-0.029,0.325,-0.133,-0.451
1762,-1.66,0.03,0.178,0.054,-1.234,-0.08,0.31,-0.138,-0.453
1763,-1.708,0.042,0.179,0.01,-1.196,-0.058,0.306,-0.136,-0.46
1764,-1.74,0.116,0.122,0.031,-1.125,-0.02,0.333,-0.135,-0.471
1765,-1.592,0.115,0.071,0.106,-1.078,-0.045,0.31,-0.114,-0.49
1766,-1.383,0.201,0.052,0.17,-1.071,-0.1,0.31,-0.114,-0.49
1767,-1.269,0.543,-0.032,0.256,-1.014,-0.271,0.312,-0.124,-0.484
1768,-1.044,1.335,0.075,0.477,-1.049,-0.071,0.313,-0.111,-0.498
1769,-0.991,1.472,0.197,0.385,-1.071,0.0,0.312,-0.106,-0.519
1770,-0.986,1.684,0.267,0.219,-0.985,0.006,0.321,-0.097,-0.547
1771,-1.06,1.948,0.25,0.219,-0.985,0.006,0.349,-0.07,-0.54
1772,-1.052,2.113,0.121,0.053,-0.837,0.061,0.357,-0.081,-0.555
1773,-0.912,2.062,0.041,-0.027,-0.676,0.053,0.357,-0.081,-0.555
1774,-0.713,1.923,0.135,0.002,-0.646,0.092,0.364,-0.09,-0.568
1775,-0.532,1.694,0.253,0.009,-0.736,0.223,0.375,-0.073,-0.57
1776,-0.416,1.511,0.319,0.001,-0.787,0.273,0.387,-0.058,-0.585
1777,-0.416,1.511,0.319,0.036,-0.789,0.235,0.417,-0.066,-0.585
1778,-0.354,1.406,0.362,0.018,-0.77,0.188,0.405,-0.081,-0.594
1779,-0.279,1.411,0.385,-0.015,-0.741,0.119,0.405,-0.081,-0.594
1780,-0.251,1.456,0.38,-0.021,-0.701,0.094,0.414,-0.043,-0.603
1781,-0.209,1.472,0.325,-0.107,-0.645,0.129,0.409,-0.061,-0.589
1782,-0.174,1.342,0.295,-0.196,-0.541,0.198,0.415,-0.052,-0.615
1783,-0.056,1.116,0.22,-0.214,-0.411,0.236,0.442,-0.028,-0.6
1784,0.1,0.858,0.149,-0.222,-0.319,0.247,0.432,-0.034,-0.607
1785,0.224,0.595,0.093,-0.193,-0.309,0.304,0.442,-0.049,-0.595
1786,0.294,0.386,0.056,-0.137,-0.356,0.332,0.442,-0.049,-0.595
1787,0.365,0.228,0.053,-0.088,-0.407,0.323,0.456,-0.064,-0.588
1788,0.442,0.122,0.072,-0.076,-0.451,0.336,0.435,-0.063,-0.621
1789,0.507,0.072,0.091,-0.063,-0.48,0.365,0.435,-0.063,-0.621
1790,0.583,0.018,0.106,-0.038,-0.488,0.396,0.445,-0.052,-0.601
1791,0.669,-0.031,0.119,-0.038,-0.488,0.396,0.448,-0.058,-0.612
1792,0.737,-0.081,0.134,-0.008,-0.505,0.429,0.436,-0.069,-0.606
1793,0.779,-0.095,0.148,0.042,-0.56,0.467,0.436,-0.069,-0.606
1794,0.78,-0.063,0.168,0.117,-0.668,0.512,0.439,-0.078,-0.586
1795,0.737,-0.006,0.192,0.174,-0.795,0.565,0.429,-0.067,-0.576
1796,0.737,-0.006,0.192,0.18,-0.885,0.632,0.423,-0.088,-0.595
1797,0.686,0.035,0.241,0.159,-0.942,0.708,0.42,-0.079,-0.594
1798,0.648,0.062,0.303,0.137,-0.963,0.776,0.429,-0.087,-0.588
1799,0.602,0.08,0.353,0.112,-0.975,0.814,0.442,-0.109,-0.579
1800,0.519,0.12,0.376,0.109,-1.015,0.837,0.442,-0.109,-0.579
1801,0.377,0.141,0.366,0.123,-1.079,0.858,0.435,-0.085,-0.58
1802,0.217,0.073,0.345,0.141,-1.17,0.852,0.447,-0.102,-0.558
1803,0.088,-0.091,0.324,0.183,-1.253,0.79,0.447,-0.102,-0.558
1804,0.057,-0.266,0.321,0.217,-1.263,0.679,0.424,-0.106,-0.588
1805,0.106,-0.21,0.286,0.188,-1.18,0.593,0.438,-0.085,-0.583
1806,0.12,0.184,0.199,0.062,-0.957,0.595,0.423,-0.075,-0.571
1807,0.092,0.682,0.088,-0.112,-0.588,0.634,0.423,-0.075,-0.571
1808,0.165,0.982,0.019,-0.218,-0.305,0.634,0.435,-0.081,-0.574
1809,0.284,1.01,-0.012,-0.248,-0.305,0.587,0.432,-0.099,-0.589
1810,0.358,0.739,-0.018,-0.25,-0.575,0.517,0.427,-0.106,-0.579
1811,0.325,0.319,0.003,-0.25,-1.145,0.517,0.427,-0.094,-0.577
1812,0.186,-0.02,-0.001,-0.176,-1.145,0.375,0.442,-0.096,-0.583
1813,0.149,-0.234,-0.025,-0.001,-1.754,0.155,0.448,-0.09,-0.586
1814,0.104,-0.214,-0.08,0.081,-1.996,0.016,0.448,-0.09,-0.586
1815,-0.135,0.148,-0.026,0.038,-1.998,0.067,0.444,-0.094,-0.573
1816,-0.135,0.148,-0.026,0.123,-1.998,0.331,0.42,-0.085,-0.573
1817,-0.391,0.455,0.081,0.185,-1.491,0.553,0.42,-0.085,-0.573
1818,-0.429,0.182,0.166,-0.054,-0.63,0.367,0.439,-0.094,-0.573
1819,-0.114,-0.538,0.144,-0.337,-0.167,-0.094,0.441,-0.103,-0.565
1820,0.014,-0.86,-0.01,-0.387,-0.161,-0.269,0.429,-0.094,-0.564
1821,-0.194,-0.55,-0.154,-0.222,-0.413,-0.066,0.442,-0.096,-0.57
1822,-0.455,-0.199,-0.211,0.027,-0.64,0.103,0.442,-0.096,-0.57
1823,-0.429,-0.379,-0.186,0.195,-0.752,0.099,0.435,-0.093,-0.565
1824,-0.046,-1.096,-0.097,0.31,-0.861,-0.045,0.432,-0.1,-0.559
1825,0.375,-1.722,-0.048,0.437,-1.094,-0.301,0.435,-0.093,-0.585
1826,0.611,-1.707,0.052,0.579,-1.373,-0.465,0.423,-0.091,-0.558
1827,0.646,-1.26,0.207,0.675,-1.507,-0.31,0.406,-0.102,-0.555
1828,0.499,-0.844,0.325,0.569,-1.408,0.041,0.406,-0.102,-0.555
1829,0.231,-0.615,0.331,0.275,-1.126,0.312,0.412,-0.112,-0.549
1830,0.114,-0.475,0.253,0.275,-1.126,0.312,0.388,-0.094,-0.522
1831,0.126,-0.462,0.132,0.006,-0.787,0.331,0.388,-0.094,-0.522
1832,0.07,-0.607,-0.02,-0.169,-0.596,0.332,0.402,-0.108,-0.529
1833,0.021,-0.865,-0.154,-0.266,-0.61,0.426,0.385,-0.087,-0.538
1834,0.088,-1.253,-0.189,-0.256,-0.688,0.455,0.381,-0.108,-0.529
1835,0.088,-1.253,-0.189,-0.136,-0.776,0.4,0.381,-0.108,-0.529
1836,0.217,-1.611,-0.147,0.084,-0.877,0.246,0.382,-0.102,-0.531
1837,0.232,-1.698,-0.151,0.313,-0.983,0.038,0.361,-0.099,-0.514
1838,0.156,-1.472,-0.17,0.506,-1.046,-0.149,0.361,-0.099,-0.514
1839,0.296,-1.283,-0.033,0.677,-1.056,-0.234,0.348,-0.093,-0.498
1840,0.585,-1.148,0.202,0.691,-1.0,-0.146,0.346,-0.126,-0.508
1841,0.551,-1.103,0.233,0.546,-0.871,-0.064,0.348,-0.111,-0.49
1842,0.683,-0.926,0.256,0.424,-0.842,0.025,0.348,-0.111,-0.49
1843,0.63,-0.784,0.215,0.35,-0.862,0.154,0.351,-0.109,-0.499
1844,0.588,-0.683,0.189,0.271,-0.823,0.185,0.331,-0.105,-0.462
1845,0.577,-0.652,0.165,0.205,-0.802,0.202,0.352,-0.123,-0.471
1846,0.539,-0.677,0.128,0.184,-0.803,0.191,0.336,-0.118,-0.477
1847,0.513,-0.735,0.107,0.187,-0.827,0.142,0.321,-0.126,-0.465
1848,0.461,-0.739,0.046,0.214,-0.835,0.051,0.325,-0.117,-0.457
1849,0.427,-0.669,0.012,0.255,-0.855,-0.016,0.325,-0.117,-0.457
1850,0.4,-0.571,-0.032,0.278,-0.875,-0.021,0.33,-0.126,-0.45
1851,0.368,-0.46,-0.081,0.295,-0.891,0.013,0.306,-0.142,-0.421
1852,0.4,-0.427,-0.089,0.295,-0.891,0.013,0.306,-0.142,-0.421
1853,0.406,-0.458,-0.103,0.299,-0.918,0.068,0.304,-0.13,-0.435
1854,0.387,-0.482,-0.128,0.276,-0.926,0.11,0.312,-0.138,-0.441
1855,0.387,-0.482,-0.128,0.255,-0.922,0.122,0.306,-0.121,-0.423
1856,0.389,-0.464,-0.147,0.254,-0.906,0.094,0.306,-0.121,-0.423
1857,0.394,-0.418,-0.163,0.253,-0.901,0.089,0.315,-0.135,-0.432
1858,0.364,-0.446,-0.19,0.241,-0.891,0.069,0.319,-0.132,-0.421
1859,0.368,-0.418,-0.21,0.237,-0.896,0.032,0.312,-0.142,-0.406
1860,0.373,-0.35,-0.23,0.244,-0.922,0.041,0.303,-0.145,-0.406
1861,0.358,-0.338,-0.238,0.26,-0.91,0.063,0.313,-0.159,-0.405
1862,0.378,-0.352,-0.231,0.272,-0.889,0.083,0.325,-0.154,-0.402
1863,0.375,-0.352,-0.237,0.267,-0.875,0.115,0.325,-0.154,-0.402
1864,0.351,-0.399,-0.248,0.254,-0.859,0.109,0.31,-0.153,-0.39
1865,0.336,-0.394,-0.266,0.255,-0.873,0.076,0.325,-0.153,-0.405
1866,0.326,-0.364,-0.279,0.266,-0.903,0.083,0.325,-0.153,-0.405
1867,0.317,-0.375,-0.277,0.285,-0.923,0.09,0.327,-0.147,-0.379
1868,0.315,-0.391,-0.256,0.292,-0.934,0.113,0.316,-0.154,-0.366
1869,0.288,-0.416,-0.231,0.297,-0.947,0.154,0.325,-0.165,-0.399
1870,0.261,-0.431,-0.202,0.324,-0.961,0.121,0.325,-0.165,-0.399
1871,0.236,-0.405,-0.168,0.324,-0.961,0.121,0.315,-0.171,-0.384
1872,0.207,-0.364,-0.134,0.357,-0.971,0.066,0.324,-0.181,-0.37
1873,0.182,-0.313,-0.106,0.391,-0.978,0.05,0.313,-0.177,-0.372
1874,0.158,-0.238,-0.089,0.412,-0.978,0.044,0.307,-0.156,-0.363
1875,0.158,-0.238,-0.089,0.416,-0.972,0.04,0.315,-0.166,-0.369
1876,0.121,-0.135,-0.08,0.395,-0.959,0.049,0.303,-0.174,-0.363
1877,0.079,-0.028,-0.076,0.361,-0.947,0.067,0.303,-0.174,-0.363
1878,0.037,0.051,-0.074,0.319,-0.948,0.11,0.321,-0.175,-0.366
1879,-0.108,0.101,-0.116,0.255,-1.0,0.105,0.313,-0.166,-0.336
1880,-0.177,0.133,-0.153,0.24,-1.064,0.068,0.319,-0.168,-0.348
1881,-0.221,0.168,-0.17,0.263,-1.136,0.056,0.295,-0.163,-0.381
1882,-0.249,0.208,-0.158,0.326,-1.2,0.05,0.321,-0.175,-0.369
1883,-0.287,0.28,-0.12,0.412,-1.235,0.005,0.324,-0.178,-0.376
1884,-0.354,0.368,-0.093,0.444,-1.251,-0.04,0.324,-0.178,-0.376
1885,-0.926,0.264,-0.14,-0.012,-1.117,-0.055,0.322,-0.175,-0.415
1886,-0.926,0.264,-0.14,-0.034,-1.103,-0.054,0.322,-0.154,-0.448
1887,-0.92,0.222,-0.149,-0.04,-1.092,-0.046,0.354,-0.142,-0.45
1888,-0.933,0.198,-0.163,-0.035,-1.07,-0.022,0.354,-0.142,-0.45
1889,-0.935,0.198,-0.182,-0.01,-1.046,0.006,0.325,-0.166,-0.456
1890,-0.947,0.219,-0.207,0.021,-1.025,0.017,0.339,-0.16,-0.441
1891,-0.931,0.254,-0.222,0.047,-0.992,0.004,0.328,-0.156,-0.453
1892,-0.867,0.311,-0.214,0.079,-0.959,-0.04,0.342,-0.124,-0.46
1893,-0.757,0.406,-0.179,0.095,-0.901,-0.07,0.343,-0.147,-0.462
1894,-0.714,0.48,-0.221,0.07,-0.928,-0.033,0.351,-0.15,-0.462
1895,-0.731,0.569,-0.251,0.051,-1.005,0.019,0.351,-0.15,-0.462
1896,-0.742,0.63,-0.266,0.051,-0.997,0.044,0.337,-0.145,-0.492
1897,-0.612,0.598,-0.226,0.044,-0.972,0.067,0.372,-0.135,-0.505
1898,-0.537,0.537,-0.207,0.036,-0.952,0.061,0.355,-0.141,-0.498
1899,-0.496,0.511,-0.192,0.017,-0.939,0.06,0.381,-0.133,-0.513
1900,-0.462,0.478,-0.177,0.015,-0.936,0.092,0.373,-0.135,-0.501
1901,-0.457,0.471,-0.157,0.015,-0.936,0.092,0.369,-0.136,-0.528
1902,-0.435,0.457,-0.116,0.023,-0.943,0.118,0.369,-0.136,-0.528
1903,-0.333,0.338,-0.06,0.016,-0.944,0.14,0.361,-0.139,-0.523
1904,-0.259,0.221,-0.05,-0.022,-0.919,0.201,0.379,-0.115,-0.552
1905,-0.203,0.156,-0.046,-0.046,-0.891,0.239,0.382,-0.12,-0.529
1906,-0.203,0.156,-0.046,-0.022,-0.901,0.224,0.375,-0.109,-0.54
1907,-0.147,0.141,-0.027,0.0,-0.916,0.217,0.372,-0.118,-0.519
1908,-0.089,0.168,0.0,0.018,-0.906,0.21,0.366,-0.109,-0.543
1909,-0.016,0.185,0.025,0.026,-0.886,0.207,0.366,-0.109,-0.543
1910,0.046,0.199,0.046,0.028,-0.888,0.211,0.381,-0.124,-0.535
1911,0.086,0.195,0.065,0.026,-0.891,0.22,0.394,-0.106,-0.534
1912,0.126,0.175,0.085,0.026,-0.88,0.218,0.381,-0.13,-0.517
1913,0.17,0.14,0.1,0.024,-0.864,0.209,0.375,-0.129,-0.529
1914,0.221,0.101,0.112,0.007,-0.84,0.202,0.375,-0.118,-0.532
1915,0.268,0.073,0.113,-0.004,-0.827,0.205,0.379,-0.132,-0.541
1916,0.308,0.053,0.111,0.004,-0.835,0.217,0.379,-0.132,-0.541
1917,0.344,0.035,0.112,0.018,-0.849,0.233,0.366,-0.109,-0.54
1918,0.377,0.006,0.115,0.032,-0.863,0.252,0.366,-0.12,-0.54
