,Gyroscope X (deg/s),Gyroscope Y (deg/s),Gyroscope Z (deg/s),Accelerometer X (g),Accelerometer Y (g),Accelerometer Z (g),Magnetometer X (G),Magnetometer Y (G),Magnetometer Z (G)
0,-0.013,-0.008,-0.007,0.223,-0.952,0.044,0.301,-0.171,-0.508
1,-0.013,-0.008,-0.007,0.223,-0.952,0.044,0.301,-0.171,-0.508
2,-0.013,-0.008,-0.007,0.223,-0.952,0.044,0.301,-0.171,-0.508
3,-0.013,-0.008,-0.007,0.223,-0.952,0.044,0.301,-0.171,-0.508
4,-0.013,-0.008,-0.007,0.223,-0.952,0.044,0.301,-0.171,-0.508
5,-0.013,-0.008,-0.007,0.223,-0.952,0.044,0.301,-0.171,-0.508
6,-0.013,-0.008,-0.007,0.223,-0.952,0.044,0.301,-0.171,-0.508
7,-0.013,-0.008,-0.007,0.223,-0.952,0.044,0.301,-0.171,-0.508
8,-0.013,-0.008,-0.007,0.223,-0.952,0.044,0.301,-0.171,-0.508
9,-0.013,-0.008,-0.007,0.223,-0.952,0.044,0.301,-0.171,-0.508
10,-0.013,-0.008,-0.007,0.223,-0.952,0.044,0.301,-0.171,-0.508
11,-0.013,-0.008,-0.007,0.223,-0.952,0.044,0.301,-0.171,-0.508
12,-0.013,-0.008,-0.007,0.223,-0.952,0.044,0.301,-0.171,-0.508
13,-0.013,-0.008,-0.007,0.223,-0.952,0.044,0.301,-0.171,-0.508
14,-0.013,-0.008,-0.007,0.223,-0.952,0.044,0.301,-0.171,-0.508
15,-0.013,-0.008,-0.007,0.223,-0.952,0.044,0.301,-0.171,-0.508
16,-0.013,-0.008,-0.007,0.223,-0.952,0.044,0.301,-0.171,-0.508
17,-0.013,-0.008,-0.007,0.223,-0.952,0.044,0.301,-0.171,-0.508
18,-0.013,-0.008,-0.007,0.223,-0.952,0.044,0.301,-0.171,-0.508
19,-0.013,-0.008,-0.007,0.223,-0.952,0.044,0.301,-0.171,-0.508
20,-0.013,-0.008,-0.007,0.223,-0.952,0.044,0.301,-0.171,-0.508
21,-0.013,-0.008,-0.007,0.223,-0.952,0.044,0.301,-0.171,-0.508
22,-0.013,-0.008,-0.007,0.223,-0.952,0.044,0.301,-0.171,-0.508
23,-0.013,-0.008,-0.007,0.223,-0.952,0.044,0.301,-0.171,-0.508
24,-0.013,-0.008,-0.007,0.223,-0.952,0.044,0.301,-0.171,-0.508
25,-0.013,-0.008,-0.007,0.223,-0.952,0.044,0.301,-0.171,-0.508
26,-0.013,-0.008,-0.007,0.223,-0.952,0.044,0.301,-0.171,-0.508
27,-0.013,-0.008,-0.007,0.223,-0.952,0.044,0.301,-0.171,-0.508
28,-0.013,-0.008,-0.007,0.223,-0.952,0.044,0.301,-0.171,-0.508
29,-0.013,-0.008,-0.007,0.223,-0.952,0.044,0.301,-0.171,-0.508
30,-0.013,-0.008,-0.007,0.223,-0.952,0.044,0.301,-0.171,-0.508
31,-0.013,-0.008,-0.007,0.223,-0.952,0.044,0.301,-0.171,-0.508
32,-0.013,-0.008,-0.007,0.223,-0.952,0.044,0.301,-0.171,-0.508
33,-0.013,-0.008,-0.007,0.223,-0.952,0.044,0.301,-0.171,-0.508
34,-0.013,-0.008,-0.007,0.223,-0.952,0.044,0.301,-0.171,-0.508
35,-0.013,-0.008,-0.007,0.223,-0.952,0.044,0.301,-0.171,-0.508
36,-0.013,-0.008,-0.007,0.223,-0.952,0.044,0.301,-0.171,-0.508
37,-0.013,-0.008,-0.007,0.223,-0.952,0.044,0.301,-0.171,-0.508
38,-0.013,-0.008,-0.007,0.223,-0.952,0.044,0.301,-0.171,-0.508
39,-0.013,-0.008,-0.007,0.223,-0.952,0.044,0.301,-0.171,-0.508
40,-0.013,-0.008,-0.007,0.223,-0.952,0.044,0.301,-0.171,-0.508
41,-0.013,-0.008,-0.007,0.223,-0.952,0.044,0.301,-0.171,-0.508
42,-0.013,-0.008,-0.007,0.223,-0.952,0.044,0.301,-0.171,-0.508
43,-0.013,-0.008,-0.007,0.223,-0.952,0.044,0.301,-0.171,-0.508
44,-0.013,-0.008,-0.007,0.223,-0.952,0.044,0.301,-0.171,-0.508
45,-0.013,-0.008,-0.007,0.223,-0.952,0.044,0.301,-0.171,-0.508
46,-0.013,-0.008,-0.007,0.223,-0.952,0.044,0.301,-0.171,-0.508
47,-0.013,-0.008,-0.007,0.223,-0.952,0.044,0.301,-0.171,-0.508
48,-0.013,-0.008,-0.007,0.223,-0.952,0.044,0.301,-0.171,-0.508
49,-0.013,-0.008,-0.007,0.223,-0.952,0.044,0.301,-0.171,-0.508
50,-0.013,-0.008,-0.007,0.223,-0.952,0.044,0.301,-0.171,-0.508
51,-0.013,-0.008,-0.007,0.223,-0.952,0.044,0.301,-0.171,-0.508
52,-0.013,-0.008,-0.007,0.223,-0.952,0.044,0.301,-0.171,-0.508
53,-0.013,-0.008,-0.007,0.223,-0.952,0.044,0.301,-0.171,-0.508
54,-0.013,-0.008,-0.007,0.223,-0.952,0.044,0.301,-0.171,-0.508
55,-0.013,-0.008,-0.007,0.223,-0.952,0.044,0.301,-0.171,-0.508
56,-0.013,-0.008,-0.007,0.223,-0.952,0.044,0.301,-0.171,-0.508
57,-0.013,-0.008,-0.007,0.223,-0.952,0.044,0.301,-0.171,-0.508
58,-0.013,-0.008,-0.007,0.223,-0.952,0.044,0.301,-0.171,-0.508
59,-0.013,-0.008,-0.007,0.223,-0.952,0.044,0.301,-0.171,-0.508
60,-0.013,-0.008,-0.007,0.223,-0.952,0.044,0.301,-0.171,-0.508
61,-0.013,-0.008,-0.007,0.223,-0.952,0.044,0.301,-0.171,-0.508
62,-0.013,-0.008,-0.007,0.223,-0.952,0.044,0.301,-0.171,-0.508
63,-0.013,-0.008,-0.007,0.223,-0.952,0.044,0.301,-0.171,-0.508
64,-0.013,-0.008,-0.007,0.223,-0.952,0.044,0.301,-0.171,-0.508
65,-0.013,-0.008,-0.007,0.223,-0.952,0.044,0.301,-0.171,-0.508
66,-0.013,-0.008,-0.007,0.223,-0.952,0.044,0.301,-0.171,-0.508
67,-0.013,-0.008,-0.007,0.223,-0.952,0.044,0.301,-0.171,-0.508
68,-0.013,-0.008,-0.007,0.223,-0.952,0.044,0.301,-0.171,-0.508
69,-0.013,-0.008,-0.007,0.223,-0.952,0.044,0.301,-0.171,-0.508
70,-0.013,-0.008,-0.007,0.223,-0.952,0.044,0.301,-0.171,-0.508
71,-0.013,-0.008,-0.007,0.223,-0.952,0.044,0.301,-0.171,-0.508
72,-0.013,-0.008,-0.007,0.223,-0.952,0.044,0.301,-0.171,-0.508
73,-0.013,-0.008,-0.007,0.223,-0.952,0.044,0.301,-0.171,-0.508
74,-0.013,-0.008,-0.007,0.223,-0.952,0.044,0.301,-0.171,-0.508
75,-0.013,-0.008,-0.007,0.223,-0.952,0.044,0.301,-0.171,-0.508
76,-0.013,-0.008,-0.007,0.223,-0.952,0.044,0.301,-0.171,-0.508
77,-0.013,-0.008,-0.007,0.223,-0.952,0.044,0.301,-0.171,-0.508
78,-0.013,-0.008,-0.007,0.223,-0.952,0.044,0.301,-0.171,-0.508
79,-0.013,-0.008,-0.007,0.223,-0.952,0.044,0.301,-0.171,-0.508
80,-0.013,-0.008,-0.007,0.223,-0.952,0.044,0.301,-0.171,-0.508
81,-0.013,-0.008,-0.007,0.223,-0.952,0.044,0.301,-0.171,-0.508
82,-0.013,-0.008,-0.007,0.223,-0.952,0.044,0.301,-0.171,-0.508
83,-0.013,-0.008,-0.007,0.223,-0.952,0.044,0.301,-0.171,-0.508
84,-0.013,-0.008,-0.007,0.223,-0.952,0.044,0.301,-0.171,-0.508
85,-0.013,-0.008,-0.007,0.223,-0.952,0.044,0.301,-0.171,-0.508
86,-0.013,-0.008,-0.007,0.223,-0.952,0.044,0.301,-0.171,-0.508
87,-0.013,-0.008,-0.007,0.223,-0.952,0.044,0.301,-0.171,-0.508
88,-0.013,-0.008,-0.007,0.223,-0.952,0.044,0.301,-0.171,-0.508
89,-0.004,-0.002,-0.014,0.26,-0.95,-0.051,0.24,-0.207,-0.39
90,-0.005,-0.002,-0.014,0.258,-0.949,-0.051,0.252,-0.204,-0.393
91,-0.007,-0.002,-0.016,0.259,-0.949,-0.05,0.249,-0.223,-0.408
92,-0.007,-0.002,-0.016,0.26,-0.95,-0.049,0.252,-0.243,-0.424
93,-0.007,-0.002,-0.016,0.26,-0.95,-0.049,0.247,-0.204,-0.405
94,-0.009,-0.001,-0.017,0.259,-0.953,-0.048,0.247,-0.204,-0.405
95,-0.008,-0.006,-0.016,0.26,-0.955,-0.046,0.247,-0.22,-0.381
96,-0.008,-0.007,-0.015,0.259,-0.95,-0.046,0.24,-0.232,-0.403
97,-0.008,-0.007,-0.016,0.257,-0.948,-0.047,0.247,-0.207,-0.402
98,-0.007,-0.006,-0.015,0.258,-0.947,-0.048,0.262,-0.235,-0.397
99,-0.007,-0.003,-0.014,0.261,-0.947,-0.048,0.24,-0.208,-0.399
100,-0.003,-0.006,-0.014,0.262,-0.947,-0.047,0.24,-0.208,-0.399
101,-0.003,-0.006,-0.012,0.262,-0.946,-0.047,0.262,-0.22,-0.409
102,-0.005,-0.007,-0.013,0.266,-0.938,-0.043,0.241,-0.213,-0.382
103,-0.008,-0.011,-0.012,0.267,-0.939,-0.043,0.24,-0.228,-0.412
104,-0.009,-0.009,-0.013,0.264,-0.942,-0.048,0.232,-0.199,-0.409
105,-0.009,-0.004,-0.015,0.261,-0.945,-0.049,0.243,-0.226,-0.409
106,-0.011,0.0,-0.017,0.263,-0.949,-0.043,0.243,-0.226,-0.409
107,-0.013,-0.001,-0.017,0.263,-0.949,-0.043,0.229,-0.208,-0.399
108,-0.012,-0.004,-0.016,0.268,-0.948,-0.039,0.247,-0.223,-0.402
109,-0.013,-0.003,-0.015,0.27,-0.947,-0.042,0.241,-0.22,-0.393
110,-0.011,-0.002,-0.014,0.269,-0.946,-0.046,0.241,-0.226,-0.39
111,-0.009,0.001,-0.013,0.27,-0.944,-0.048,0.24,-0.198,-0.385
112,-0.009,0.001,-0.013,0.271,-0.946,-0.05,0.253,-0.217,-0.402
113,-0.008,0.002,-0.012,0.27,-0.947,-0.051,0.253,-0.217,-0.402
114,-0.004,0.003,-0.011,0.265,-0.947,-0.052,0.255,-0.193,-0.411
115,-0.004,0.002,-0.011,0.262,-0.946,-0.05,0.247,-0.216,-0.394
116,-0.003,0.002,-0.013,0.264,-0.948,-0.046,0.247,-0.216,-0.394
117,-0.002,0.002,-0.012,0.263,-0.949,-0.045,0.247,-0.198,-0.393
118,-0.002,0.003,-0.013,0.261,-0.949,-0.048,0.246,-0.213,-0.409
119,-0.001,0.007,-0.013,0.26,-0.947,-0.052,0.246,-0.205,-0.4
120,-0.003,0.007,-0.014,0.256,-0.943,-0.05,0.246,-0.205,-0.4
121,-0.006,0.007,-0.014,0.257,-0.941,-0.046,0.249,-0.232,-0.408
122,-0.007,0.0,-0.014,0.26,-0.942,-0.046,0.247,-0.211,-0.387
123,-0.009,0.0,-0.014,0.261,-0.942,-0.05,0.235,-0.219,-0.381
124,-0.007,0.004,-0.015,0.261,-0.944,-0.051,0.229,-0.211,-0.393
125,-0.007,0.007,-0.014,0.262,-0.948,-0.047,0.265,-0.229,-0.394
126,-0.005,0.007,-0.016,0.262,-0.95,-0.047,0.238,-0.226,-0.394
127,-0.004,0.004,-0.016,0.263,-0.95,-0.045,0.238,-0.226,-0.394
128,-0.004,0.003,-0.016,0.262,-0.95,-0.044,0.252,-0.22,-0.378
129,-0.002,0.004,-0.016,0.257,-0.95,-0.044,0.244,-0.22,-0.394
130,-0.004,0.002,-0.017,0.255,-0.95,-0.045,0.244,-0.22,-0.394
131,-0.004,0.002,-0.017,0.258,-0.949,-0.043,0.258,-0.211,-0.385
132,-0.004,-0.002,-0.016,0.26,-0.948,-0.043,0.234,-0.217,-0.379
133,-0.004,-0.005,-0.017,0.26,-0.949,-0.045,0.228,-0.223,-0.403
134,-0.002,-0.006,-0.017,0.262,-0.949,-0.044,0.228,-0.223,-0.403
135,-0.001,-0.004,-0.016,0.26,-0.946,-0.042,0.262,-0.234,-0.387
136,0.0,-0.004,-0.015,0.262,-0.946,-0.042,0.24,-0.201,-0.399
137,0.001,-0.008,-0.014,0.262,-0.945,-0.04,0.255,-0.22,-0.403
138,0.002,-0.01,-0.012,0.261,-0.945,-0.037,0.261,-0.196,-0.39
139,0.002,-0.011,-0.01,0.265,-0.948,-0.039,0.253,-0.237,-0.418
140,0.004,-0.015,-0.009,0.268,-0.945,-0.041,0.243,-0.216,-0.411
141,0.004,-0.011,-0.009,0.268,-0.944,-0.041,0.243,-0.216,-0.411
142,0.005,-0.007,-0.009,0.27,-0.947,-0.04,0.247,-0.217,-0.396
143,0.006,-0.005,-0.009,0.272,-0.946,-0.04,0.258,-0.214,-0.387
144,0.004,-0.003,-0.009,0.271,-0.947,-0.038,0.258,-0.214,-0.387
145,0.003,-0.003,-0.011,0.267,-0.948,-0.039,0.243,-0.217,-0.408
146,0.001,-0.002,-0.014,0.267,-0.948,-0.039,0.264,-0.22,-0.385
147,0.0,0.001,-0.015,0.265,-0.949,-0.04,0.238,-0.223,-0.405
148,-0.001,0.0,-0.015,0.265,-0.952,-0.04,0.238,-0.223,-0.405
149,0.0,-0.002,-0.014,0.266,-0.951,-0.037,0.24,-0.22,-0.4
150,0.001,-0.007,-0.013,0.269,-0.948,-0.035,0.243,-0.211,-0.388
151,0.001,-0.007,-0.013,0.268,-0.947,-0.038,0.247,-0.229,-0.414
152,0.0,-0.006,-0.012,0.266,-0.948,-0.042,0.261,-0.223,-0.396
153,0.002,-0.002,-0.013,0.264,-0.947,-0.043,0.24,-0.204,-0.406
154,0.001,0.0,-0.015,0.261,-0.944,-0.041,0.258,-0.229,-0.385
155,0.0,0.0,-0.015,0.262,-0.944,-0.04,0.258,-0.229,-0.385
156,0.0,0.001,-0.016,0.264,-0.945,-0.04,0.241,-0.207,-0.403
157,0.0,-0.002,-0.016,0.265,-0.946,-0.041,0.259,-0.21,-0.402
158,-0.002,0.006,-0.018,0.263,-0.947,-0.039,0.246,-0.208,-0.417
159,-0.004,0.009,-0.018,0.261,-0.946,-0.036,0.252,-0.223,-0.408
160,-0.004,0.008,-0.017,0.263,-0.946,-0.036,0.24,-0.232,-0.399
161,-0.004,0.004,-0.016,0.265,-0.948,-0.037,0.246,-0.223,-0.424
162,-0.002,0.003,-0.014,0.265,-0.949,-0.039,0.246,-0.223,-0.424
163,-0.002,-0.002,-0.011,0.266,-0.95,-0.039,0.252,-0.228,-0.402
164,0.0,-0.007,-0.01,0.265,-0.952,-0.038,0.25,-0.208,-0.397
165,0.0,-0.004,-0.011,0.261,-0.954,-0.037,0.25,-0.208,-0.397
166,-0.003,0.0,-0.013,0.261,-0.954,-0.037,0.255,-0.228,-0.399
167,-0.005,0.0,-0.014,0.258,-0.951,-0.037,0.255,-0.208,-0.402
168,-0.007,0.002,-0.016,0.258,-0.95,-0.037,0.249,-0.211,-0.409
169,-0.009,0.002,-0.018,0.259,-0.95,-0.037,0.249,-0.211,-0.409
170,-0.01,0.001,-0.018,0.26,-0.948,-0.034,0.238,-0.198,-0.402
171,-0.01,0.001,-0.018,0.259,-0.945,-0.032,0.234,-0.228,-0.369
172,-0.01,0.0,-0.018,0.258,-0.945,-0.031,0.244,-0.202,-0.409
173,-0.01,-0.003,-0.016,0.263,-0.946,-0.03,0.243,-0.217,-0.397
174,-0.007,-0.007,-0.014,0.268,-0.948,-0.033,0.247,-0.229,-0.397
175,-0.004,-0.01,-0.011,0.268,-0.949,-0.034,0.253,-0.211,-0.408
176,-0.002,-0.009,-0.01,0.265,-0.947,-0.031,0.253,-0.211,-0.408
177,-0.001,-0.007,-0.011,0.262,-0.948,-0.03,0.247,-0.208,-0.414
178,-0.003,-0.002,-0.011,0.259,-0.949,-0.029,0.226,-0.207,-0.388
179,-0.005,-0.005,-0.011,0.258,-0.947,-0.027,0.226,-0.207,-0.388
180,-0.006,-0.007,-0.013,0.257,-0.948,-0.028,0.246,-0.217,-0.384
181,-0.006,-0.005,-0.014,0.258,-0.949,-0.028,0.247,-0.217,-0.408
182,-0.003,-0.007,-0.014,0.262,-0.947,-0.028,0.247,-0.217,-0.408
183,-0.001,-0.011,-0.014,0.264,-0.947,-0.029,0.255,-0.21,-0.402
184,-0.001,-0.011,-0.013,0.263,-0.948,-0.028,0.252,-0.205,-0.399
185,-0.001,-0.01,-0.011,0.264,-0.945,-0.026,0.255,-0.222,-0.408
186,-0.001,-0.009,-0.012,0.264,-0.945,-0.026,0.241,-0.208,-0.388
187,-0.002,-0.012,-0.011,0.266,-0.945,-0.024,0.259,-0.211,-0.393
188,-0.002,-0.014,-0.009,0.267,-0.945,-0.023,0.243,-0.204,-0.388
189,-0.002,-0.014,-0.009,0.267,-0.944,-0.024,0.243,-0.204,-0.388
190,-0.003,-0.011,-0.011,0.268,-0.945,-0.026,0.252,-0.225,-0.397
191,-0.003,-0.011,-0.011,0.266,-0.948,-0.026,0.238,-0.204,-0.402
192,-0.002,-0.007,-0.012,0.263,-0.951,-0.025,0.241,-0.231,-0.412
193,-0.002,-0.006,-0.011,0.263,-0.954,-0.027,0.241,-0.231,-0.412
194,-0.001,-0.006,-0.012,0.266,-0.952,-0.029,0.24,-0.198,-0.396
195,0.0,-0.004,-0.012,0.266,-0.951,-0.028,0.24,-0.198,-0.396
196,-0.001,-0.004,-0.012,0.264,-0.949,-0.026,0.238,-0.216,-0.405
197,0.0,-0.007,-0.012,0.261,-0.947,-0.028,0.243,-0.21,-0.4
198,0.0,-0.007,-0.013,0.259,-0.945,-0.031,0.238,-0.208,-0.39
199,0.0,-0.009,-0.014,0.258,-0.943,-0.03,0.235,-0.216,-0.394
200,0.0,-0.008,-0.013,0.258,-0.946,-0.031,0.229,-0.235,-0.396
201,0.0,-0.004,-0.011,0.263,-0.949,-0.033,0.247,-0.204,-0.4
202,0.002,-0.001,-0.01,0.264,-0.953,-0.033,0.247,-0.204,-0.4
203,0.0,0.001,-0.009,0.265,-0.955,-0.031,0.247,-0.213,-0.397
204,-0.002,0.001,-0.009,0.265,-0.953,-0.026,0.252,-0.208,-0.402
205,-0.007,0.001,-0.008,0.261,-0.951,-0.025,0.24,-0.217,-0.411
206,-0.009,-0.007,-0.009,0.261,-0.951,-0.025,0.225,-0.217,-0.382
207,-0.013,-0.004,-0.009,0.259,-0.951,-0.028,0.24,-0.225,-0.405
208,-0.014,-0.004,-0.01,0.257,-0.951,-0.033,0.241,-0.222,-0.4
209,-0.014,-0.004,-0.01,0.256,-0.95,-0.035,0.241,-0.222,-0.4
210,-0.016,-0.001,-0.011,0.258,-0.948,-0.034,0.264,-0.214,-0.408
211,-0.016,-0.002,-0.013,0.26,-0.944,-0.036,0.252,-0.19,-0.409
212,-0.016,-0.002,-0.012,0.26,-0.938,-0.041,0.249,-0.192,-0.415
213,-0.01,0.007,-0.013,0.26,-0.943,-0.041,0.231,-0.223,-0.408
214,-0.009,0.01,-0.013,0.26,-0.945,-0.036,0.228,-0.231,-0.397
215,-0.009,0.006,-0.011,0.263,-0.944,-0.035,0.228,-0.231,-0.397
216,-0.009,0.0,-0.009,0.267,-0.946,-0.038,0.229,-0.211,-0.388
217,-0.009,-0.002,-0.007,0.266,-0.949,-0.039,0.234,-0.202,-0.399
218,-0.006,-0.002,-0.006,0.26,-0.949,-0.037,0.246,-0.217,-0.409
219,-0.002,-0.002,-0.006,0.261,-0.948,-0.035,0.246,-0.216,-0.403
220,0.001,-0.007,-0.005,0.259,-0.948,-0.038,0.243,-0.223,-0.397
221,0.0,-0.004,-0.009,0.253,-0.948,-0.039,0.237,-0.229,-0.417
222,-0.001,0.0,-0.011,0.252,-0.944,-0.035,0.25,-0.22,-0.408
223,-0.004,0.0,-0.013,0.252,-0.944,-0.035,0.246,-0.211,-0.403
224,-0.006,-0.002,-0.013,0.255,-0.941,-0.034,0.252,-0.204,-0.393
225,-0.004,-0.002,-0.014,0.257,-0.942,-0.038,0.253,-0.225,-0.388
226,-0.001,0.0,-0.014,0.259,-0.946,-0.041,0.253,-0.225,-0.388
227,0.0,0.002,-0.011,0.261,-0.947,-0.038,0.238,-0.205,-0.387
228,0.0,0.002,-0.011,0.263,-0.945,-0.037,0.238,-0.219,-0.408
229,0.0,-0.001,-0.009,0.266,-0.945,-0.038,0.238,-0.208,-0.418
230,0.001,-0.004,-0.009,0.264,-0.947,-0.039,0.256,-0.214,-0.412
231,0.002,-0.003,-0.01,0.259,-0.95,-0.039,0.25,-0.225,-0.4
232,0.004,0.001,-0.012,0.258,-0.951,-0.036,0.25,-0.225,-0.4
233,0.003,0.002,-0.014,0.259,-0.95,-0.033,0.25,-0.204,-0.402
234,0.004,0.002,-0.014,0.261,-0.952,-0.033,0.231,-0.205,-0.39
235,0.002,0.001,-0.014,0.26,-0.95,-0.034,0.231,-0.225,-0.402
236,-0.001,0.002,-0.016,0.26,-0.947,-0.033,0.267,-0.204,-0.4
237,-0.001,0.002,-0.016,0.264,-0.946,-0.033,0.246,-0.207,-0.403
238,-0.001,-0.001,-0.014,0.27,-0.945,-0.033,0.24,-0.214,-0.399
239,0.0,-0.003,-0.011,0.268,-0.947,-0.036,0.24,-0.214,-0.399
240,0.0,0.0,-0.011,0.266,-0.947,-0.037,0.249,-0.202,-0.412
241,-0.002,0.007,-0.011,0.269,-0.946,-0.035,0.234,-0.201,-0.397
242,0.0,0.002,-0.009,0.274,-0.948,-0.033,0.234,-0.201,-0.397
243,0.0,0.0,-0.007,0.274,-0.948,-0.033,0.258,-0.201,-0.402
244,0.001,0.004,-0.008,0.277,-0.949,-0.035,0.235,-0.217,-0.402
245,0.002,0.009,-0.01,0.275,-0.951,-0.035,0.256,-0.204,-0.405
246,0.0,0.01,-0.01,0.272,-0.952,-0.03,0.256,-0.204,-0.405
247,-0.002,0.005,-0.009,0.273,-0.95,-0.025,0.234,-0.229,-0.403
248,-0.002,0.005,-0.009,0.272,-0.945,-0.027,0.234,-0.213,-0.39
249,-0.003,0.003,-0.009,0.27,-0.945,-0.031,0.237,-0.207,-0.409
250,-0.002,0.001,-0.009,0.271,-0.946,-0.031,0.259,-0.219,-0.406
251,0.0,0.002,-0.008,0.271,-0.944,-0.032,0.238,-0.204,-0.412
252,0.0,0.004,-0.009,0.271,-0.944,-0.03,0.238,-0.204,-0.412
253,-0.002,0.005,-0.009,0.273,-0.943,-0.031,0.259,-0.21,-0.409
254,-0.004,0.003,-0.007,0.273,-0.943,-0.033,0.253,-0.216,-0.424
255,-0.002,0.002,-0.007,0.269,-0.945,-0.034,0.247,-0.202,-0.387
256,0.0,0.004,-0.007,0.266,-0.945,-0.034,0.247,-0.202,-0.387
257,-0.001,0.009,-0.009,0.263,-0.941,-0.031,0.244,-0.213,-0.385
258,-0.002,0.009,-0.01,0.261,-0.941,-0.028,0.256,-0.205,-0.396
259,-0.003,0.004,-0.011,0.263,-0.944,-0.03,0.256,-0.205,-0.396
260,-0.002,0.002,-0.009,0.263,-0.946,-0.035,0.255,-0.21,-0.414
261,-0.001,0.001,-0.009,0.265,-0.948,-0.034,0.234,-0.211,-0.4
262,0.0,0.004,-0.008,0.266,-0.947,-0.031,0.244,-0.226,-0.399
263,0.0,0.0,-0.007,0.266,-0.947,-0.031,0.244,-0.196,-0.382
264,0.001,-0.002,-0.007,0.266,-0.948,-0.032,0.249,-0.226,-0.412
265,0.002,0.0,-0.009,0.265,-0.95,-0.033,0.229,-0.21,-0.399
266,0.002,0.0,-0.009,0.26,-0.95,-0.032,0.229,-0.21,-0.399
267,0.0,0.001,-0.009,0.261,-0.95,-0.029,0.264,-0.199,-0.409
268,-0.003,-0.001,-0.009,0.263,-0.947,-0.028,0.264,-0.217,-0.397
269,-0.003,-0.002,-0.009,0.264,-0.945,-0.029,0.24,-0.223,-0.387
270,-0.004,-0.002,-0.009,0.264,-0.946,-0.031,0.24,-0.223,-0.387
271,-0.003,-0.001,-0.009,0.266,-0.945,-0.032,0.255,-0.214,-0.403
272,-0.002,-0.003,-0.008,0.265,-0.947,-0.03,0.229,-0.226,-0.412
273,-0.002,-0.003,-0.008,0.262,-0.947,-0.029,0.229,-0.226,-0.412
274,-0.003,-0.002,-0.009,0.264,-0.945,-0.029,0.244,-0.216,-0.403
275,-0.005,-0.002,-0.01,0.27,-0.945,-0.029,0.258,-0.214,-0.418
276,-0.004,-0.008,-0.009,0.271,-0.945,-0.028,0.247,-0.201,-0.402
277,-0.002,-0.005,-0.009,0.267,-0.945,-0.029,0.28,-0.202,-0.412
278,0.0,-0.002,-0.009,0.268,-0.945,-0.026,0.243,-0.213,-0.4
279,0.0,0.0,-0.008,0.271,-0.946,-0.025,0.24,-0.202,-0.403
280,0.002,0.0,-0.007,0.271,-0.947,-0.027,0.24,-0.202,-0.403
281,0.003,-0.002,-0.007,0.269,-0.948,-0.027,0.246,-0.208,-0.393
282,0.003,-0.002,-0.005,0.269,-0.948,-0.027,0.255,-0.204,-0.388
283,0.002,0.0,-0.006,0.269,-0.948,-0.027,0.238,-0.21,-0.396
284,0.0,-0.001,-0.007,0.268,-0.947,-0.025,0.244,-0.229,-0.388
285,-0.002,-0.002,-0.007,0.268,-0.945,-0.023,0.258,-0.214,-0.412
286,-0.002,-0.002,-0.007,0.269,-0.942,-0.023,0.24,-0.217,-0.384
287,-0.003,-0.003,-0.009,0.269,-0.94,-0.024,0.24,-0.217,-0.384
288,-0.004,-0.002,-0.009,0.268,-0.941,-0.025,0.247,-0.211,-0.403
289,-0.004,0.0,-0.009,0.268,-0.942,-0.025,0.241,-0.22,-0.405
290,-0.004,0.0,-0.009,0.269,-0.943,-0.025,0.24,-0.202,-0.385
291,-0.002,0.001,-0.007,0.268,-0.945,-0.025,0.255,-0.217,-0.397
292,-0.003,0.0,-0.004,0.27,-0.948,-0.025,0.237,-0.207,-0.414
293,-0.003,-0.004,-0.002,0.273,-0.949,-0.026,0.252,-0.211,-0.417
294,-0.004,-0.004,-0.002,0.27,-0.948,-0.028,0.252,-0.211,-0.417
295,-0.002,-0.004,-0.002,0.268,-0.946,-0.029,0.235,-0.202,-0.409
296,-0.001,-0.004,-0.003,0.266,-0.948,-0.027,0.249,-0.225,-0.399
297,-0.001,-0.002,-0.004,0.261,-0.951,-0.023,0.243,-0.202,-0.403
298,-0.003,-0.002,-0.008,0.257,-0.951,-0.023,0.253,-0.205,-0.417
299,-0.007,-0.002,-0.009,0.256,-0.948,-0.023,0.252,-0.208,-0.399
300,-0.009,-0.007,-0.011,0.257,-0.945,-0.025,0.241,-0.193,-0.411
301,-0.009,-0.009,-0.011,0.261,-0.944,-0.027,0.241,-0.193,-0.411
302,-0.006,-0.009,-0.01,0.261,-0.944,-0.027,0.24,-0.214,-0.402
303,0.0,-0.008,-0.009,0.266,-0.945,-0.026,0.241,-0.216,-0.408
304,0.0,-0.011,-0.007,0.268,-0.948,-0.026,0.247,-0.222,-0.381
305,0.001,-0.007,-0.007,0.268,-0.95,-0.024,0.247,-0.222,-0.381
306,0.0,-0.009,-0.007,0.267,-0.947,-0.023,0.249,-0.223,-0.393
307,0.0,-0.009,-0.007,0.265,-0.943,-0.024,0.222,-0.216,-0.387
308,-0.002,-0.009,-0.007,0.265,-0.943,-0.023,0.222,-0.216,-0.387
309,-0.002,-0.011,-0.007,0.268,-0.945,-0.023,0.246,-0.207,-0.394
310,-0.002,-0.012,-0.007,0.269,-0.946,-0.023,0.246,-0.202,-0.382
311,-0.003,-0.015,-0.007,0.268,-0.946,-0.022,0.261,-0.19,-0.403
312,-0.001,-0.013,-0.008,0.269,-0.945,-0.026,0.253,-0.21,-0.403
313,0.0,-0.007,-0.009,0.269,-0.943,-0.027,0.253,-0.22,-0.402
314,0.002,-0.004,-0.009,0.27,-0.946,-0.023,0.246,-0.216,-0.397
315,0.002,-0.004,-0.007,0.271,-0.949,-0.019,0.246,-0.216,-0.397
316,0.003,-0.004,-0.007,0.269,-0.945,-0.02,0.24,-0.207,-0.4
317,0.004,-0.002,-0.006,0.269,-0.939,-0.023,0.229,-0.226,-0.423
318,0.004,0.0,-0.008,0.268,-0.939,-0.024,0.237,-0.19,-0.394
319,0.002,0.0,-0.009,0.268,-0.942,-0.026,0.237,-0.19,-0.394
320,0.002,0.002,-0.009,0.272,-0.946,-0.023,0.243,-0.223,-0.406
321,0.003,0.003,-0.009,0.275,-0.948,-0.019,0.24,-0.21,-0.39
322,0.004,0.002,-0.009,0.275,-0.948,-0.019,0.24,-0.21,-0.39
323,0.002,0.0,-0.009,0.273,-0.946,-0.02,0.244,-0.213,-0.405
324,0.002,0.0,-0.011,0.27,-0.942,-0.022,0.241,-0.21,-0.393
325,0.008,-0.002,-0.01,0.271,-0.942,-0.022,0.259,-0.198,-0.406
326,0.011,0.002,-0.011,0.273,-0.944,-0.026,0.244,-0.207,-0.399
327,0.011,0.002,-0.011,0.271,-0.943,-0.025,0.249,-0.189,-0.402
328,0.01,0.007,-0.012,0.268,-0.943,-0.025,0.258,-0.208,-0.414
329,0.01,0.007,-0.011,0.271,-0.945,-0.028,0.258,-0.208,-0.414
330,0.009,0.005,-0.009,0.274,-0.945,-0.027,0.241,-0.21,-0.385
331,0.007,0.002,-0.008,0.272,-0.945,-0.022,0.243,-0.22,-0.418
332,0.006,0.01,-0.008,0.27,-0.947,-0.024,0.241,-0.211,-0.391
333,0.008,0.004,-0.008,0.271,-0.946,-0.027,0.238,-0.217,-0.376
334,0.008,0.0,-0.007,0.273,-0.942,-0.025,0.231,-0.208,-0.385
335,0.008,-0.005,-0.008,0.275,-0.939,-0.023,0.246,-0.223,-0.397
336,0.006,-0.009,-0.007,0.277,-0.939,-0.027,0.246,-0.223,-0.397
337,0.006,-0.01,-0.008,0.277,-0.941,-0.03,0.238,-0.199,-0.406
338,0.005,-0.007,-0.009,0.278,-0.944,-0.027,0.238,-0.207,-0.397
339,0.003,-0.004,-0.009,0.278,-0.946,-0.022,0.25,-0.213,-0.391
340,0.002,-0.009,-0.01,0.276,-0.941,-0.021,0.238,-0.208,-0.403
341,0.002,-0.009,-0.009,0.276,-0.941,-0.021,0.249,-0.192,-0.4
342,0.002,-0.011,-0.009,0.276,-0.941,-0.02,0.255,-0.213,-0.403
343,0.001,-0.011,-0.008,0.276,-0.946,-0.022,0.255,-0.213,-0.403
344,0.0,-0.01,-0.007,0.277,-0.948,-0.025,0.24,-0.207,-0.408
345,0.0,-0.01,-0.007,0.278,-0.947,-0.025,0.237,-0.196,-0.405
346,0.0,-0.01,-0.007,0.276,-0.944,-0.025,0.246,-0.21,-0.393
347,0.0,-0.006,-0.01,0.27,-0.945,-0.026,0.24,-0.21,-0.408
348,0.0,-0.002,-0.011,0.27,-0.948,-0.026,0.246,-0.208,-0.406
349,0.0,0.0,-0.011,0.278,-0.948,-0.023,0.237,-0.213,-0.384
350,0.0,-0.003,-0.009,0.28,-0.949,-0.02,0.237,-0.213,-0.384
351,0.0,-0.007,-0.009,0.277,-0.946,-0.023,0.237,-0.213,-0.399
352,0.0,-0.009,-0.011,0.275,-0.942,-0.023,0.25,-0.202,-0.384
353,-0.002,-0.014,-0.01,0.277,-0.94,-0.023,0.247,-0.222,-0.394
354,0.0,-0.008,-0.012,0.28,-0.94,-0.028,0.246,-0.208,-0.396
355,0.003,-0.003,-0.013,0.279,-0.941,-0.032,0.232,-0.198,-0.394
356,0.005,0.0,-0.012,0.278,-0.942,-0.03,0.226,-0.204,-0.402
357,0.007,0.002,-0.011,0.278,-0.941,-0.023,0.226,-0.204,-0.402
358,0.009,0.002,-0.011,0.28,-0.942,-0.022,0.252,-0.211,-0.388
359,0.009,-0.001,-0.011,0.276,-0.941,-0.023,0.231,-0.216,-0.412
360,0.006,0.0,-0.012,0.277,-0.942,-0.027,0.231,-0.211,-0.397
361,0.005,-0.001,-0.013,0.277,-0.941,-0.027,0.246,-0.226,-0.405
362,0.004,-0.007,-0.012,0.279,-0.941,-0.028,0.235,-0.222,-0.391
363,0.003,-0.012,-0.01,0.279,-0.941,-0.025,0.243,-0.234,-0.397
364,0.004,-0.011,-0.011,0.276,-0.944,-0.027,0.243,-0.234,-0.397
365,0.004,-0.002,-0.014,0.27,-0.946,-0.031,0.231,-0.22,-0.402
366,0.004,-0.002,-0.014,0.269,-0.946,-0.027,0.253,-0.204,-0.396
367,0.005,0.001,-0.014,0.274,-0.945,-0.021,0.226,-0.213,-0.39
368,0.004,0.0,-0.015,0.28,-0.948,-0.02,0.226,-0.213,-0.39
369,0.001,-0.003,-0.014,0.281,-0.947,-0.022,0.226,-0.223,-0.394
370,0.002,-0.004,-0.012,0.281,-0.943,-0.025,0.244,-0.199,-0.412
371,0.002,-0.009,-0.011,0.284,-0.941,-0.026,0.244,-0.199,-0.412
372,0.0,-0.011,-0.009,0.281,-0.94,-0.03,0.241,-0.207,-0.388
373,0.0,-0.01,-0.009,0.277,-0.94,-0.03,0.252,-0.204,-0.406
374,0.002,-0.004,-0.012,0.275,-0.939,-0.026,0.237,-0.207,-0.394
375,-0.001,-0.004,-0.014,0.276,-0.942,-0.025,0.243,-0.193,-0.391
376,-0.002,-0.004,-0.015,0.282,-0.946,-0.025,0.238,-0.219,-0.396
377,-0.002,-0.004,-0.017,0.284,-0.947,-0.025,0.247,-0.192,-0.423
378,-0.003,-0.004,-0.019,0.281,-0.945,-0.026,0.247,-0.192,-0.423
379,-0.002,-0.002,-0.02,0.281,-0.944,-0.026,0.238,-0.211,-0.39
380,-0.002,-0.002,-0.019,0.283,-0.947,-0.029,0.238,-0.216,-0.406
381,0.002,-0.011,-0.017,0.283,-0.947,-0.031,0.232,-0.219,-0.382
382,0.0,-0.009,-0.019,0.278,-0.947,-0.031,0.232,-0.219,-0.382
383,0.0,-0.003,-0.021,0.27,-0.942,-0.031,0.252,-0.21,-0.405
384,0.0,-0.003,-0.022,0.27,-0.939,-0.03,0.244,-0.223,-0.39
385,0.0,-0.003,-0.022,0.272,-0.941,-0.032,0.244,-0.223,-0.39
386,0.002,0.002,-0.023,0.276,-0.944,-0.032,0.265,-0.207,-0.396
387,0.004,0.003,-0.021,0.279,-0.945,-0.031,0.244,-0.228,-0.396
388,0.004,0.001,-0.021,0.279,-0.943,-0.032,0.244,-0.202,-0.399
389,0.007,-0.001,-0.02,0.28,-0.943,-0.03,0.246,-0.207,-0.393
390,0.007,-0.005,-0.02,0.278,-0.939,-0.03,0.237,-0.198,-0.402
391,0.007,-0.008,-0.019,0.276,-0.937,-0.028,0.247,-0.211,-0.394
392,0.006,-0.009,-0.019,0.279,-0.94,-0.028,0.247,-0.211,-0.394
393,0.005,-0.01,-0.021,0.281,-0.942,-0.029,0.244,-0.208,-0.406
394,0.008,-0.008,-0.023,0.279,-0.942,-0.029,0.244,-0.217,-0.414
395,0.01,-0.004,-0.025,0.279,-0.945,-0.029,0.21,-0.216,-0.397
396,0.01,-0.003,-0.023,0.281,-0.947,-0.029,0.21,-0.216,-0.397
397,0.012,-0.002,-0.021,0.28,-0.946,-0.031,0.253,-0.205,-0.408
398,0.014,0.0,-0.021,0.276,-0.944,-0.029,0.25,-0.205,-0.39
399,0.016,0.001,-0.021,0.277,-0.943,-0.024,0.25,-0.205,-0.39
400,0.018,0.002,-0.02,0.281,-0.943,-0.022,0.247,-0.202,-0.405
401,0.018,0.002,-0.02,0.281,-0.943,-0.022,0.246,-0.21,-0.402
402,0.017,0.007,-0.021,0.282,-0.941,-0.022,0.249,-0.213,-0.4
403,0.016,0.002,-0.019,0.28,-0.941,-0.021,0.24,-0.208,-0.391
404,0.016,-0.003,-0.019,0.278,-0.94,-0.021,0.255,-0.208,-0.409
405,0.016,-0.003,-0.019,0.275,-0.933,-0.021,0.237,-0.217,-0.4
406,0.018,-0.005,-0.017,0.275,-0.932,-0.023,0.237,-0.217,-0.4
407,0.023,-0.005,-0.014,0.277,-0.939,-0.026,0.249,-0.201,-0.4
408,0.031,0.001,-0.013,0.276,-0.944,-0.025,0.235,-0.196,-0.417
409,0.039,0.006,-0.011,0.274,-0.946,-0.022,0.234,-0.21,-0.37
410,0.042,0.01,-0.012,0.27,-0.946,-0.018,0.24,-0.21,-0.39
411,0.039,0.009,-0.016,0.271,-0.944,-0.015,0.252,-0.199,-0.406
412,0.032,0.006,-0.02,0.273,-0.944,-0.017,0.25,-0.211,-0.388
413,0.03,0.004,-0.021,0.27,-0.942,-0.021,0.25,-0.211,-0.388
414,0.028,0.008,-0.023,0.271,-0.943,-0.022,0.256,-0.217,-0.384
415,0.03,0.013,-0.022,0.274,-0.946,-0.025,0.252,-0.196,-0.408
416,0.033,0.015,-0.02,0.278,-0.946,-0.029,0.255,-0.213,-0.4
417,0.035,0.017,-0.018,0.281,-0.946,-0.031,0.238,-0.213,-0.396
418,0.035,0.02,-0.017,0.279,-0.949,-0.033,0.247,-0.217,-0.403
419,0.032,0.023,-0.017,0.278,-0.951,-0.035,0.249,-0.211,-0.406
420,0.028,0.025,-0.018,0.274,-0.953,-0.036,0.249,-0.211,-0.406
421,0.024,0.028,-0.019,0.274,-0.953,-0.036,0.244,-0.225,-0.406
422,0.018,0.025,-0.021,0.267,-0.954,-0.033,0.243,-0.216,-0.381
423,0.015,0.021,-0.021,0.263,-0.951,-0.031,0.228,-0.211,-0.393
424,0.011,0.015,-0.021,0.256,-0.948,-0.038,0.25,-0.225,-0.393
425,0.011,0.015,-0.021,0.254,-0.946,-0.041,0.243,-0.214,-0.399
426,0.009,0.011,-0.022,0.257,-0.946,-0.039,0.243,-0.214,-0.399
427,0.007,0.008,-0.022,0.259,-0.949,-0.038,0.258,-0.222,-0.406
428,0.007,0.004,-0.021,0.261,-0.947,-0.039,0.253,-0.211,-0.4
429,0.004,0.0,-0.018,0.26,-0.946,-0.041,0.24,-0.207,-0.405
430,0.01,0.0,-0.018,0.26,-0.948,-0.045,0.243,-0.217,-0.375
431,0.014,-0.003,-0.016,0.262,-0.947,-0.048,0.243,-0.217,-0.375
432,0.016,-0.004,-0.014,0.261,-0.948,-0.051,0.241,-0.21,-0.384
433,0.017,-0.007,-0.014,0.258,-0.948,-0.05,0.241,-0.21,-0.384
434,0.016,-0.013,-0.013,0.255,-0.946,-0.045,0.255,-0.213,-0.4
435,0.013,-0.016,-0.013,0.253,-0.946,-0.042,0.259,-0.216,-0.417
436,0.01,-0.018,-0.015,0.254,-0.947,-0.044,0.259,-0.201,-0.394
437,0.007,-0.021,-0.015,0.259,-0.951,-0.044,0.252,-0.207,-0.382
438,0.007,-0.018,-0.014,0.261,-0.954,-0.042,0.244,-0.208,-0.397
439,0.008,-0.021,-0.012,0.26,-0.953,-0.042,0.267,-0.201,-0.403
440,0.009,-0.023,-0.009,0.26,-0.953,-0.042,0.267,-0.201,-0.403
441,0.007,-0.028,-0.007,0.258,-0.953,-0.043,0.234,-0.225,-0.399
442,0.007,-0.03,-0.008,0.255,-0.951,-0.044,0.241,-0.225,-0.396
443,0.005,-0.028,-0.011,0.256,-0.949,-0.044,0.255,-0.195,-0.379
444,0.005,-0.025,-0.012,0.256,-0.949,-0.044,0.253,-0.207,-0.379
445,0.005,-0.025,-0.012,0.258,-0.949,-0.047,0.258,-0.22,-0.382
446,0.004,-0.023,-0.014,0.263,-0.947,-0.048,0.229,-0.211,-0.405
447,0.004,-0.021,-0.014,0.266,-0.946,-0.045,0.229,-0.211,-0.405
448,0.004,-0.021,-0.014,0.268,-0.947,-0.042,0.24,-0.201,-0.385
449,0.002,-0.023,-0.011,0.269,-0.948,-0.042,0.222,-0.208,-0.408
450,0.006,-0.024,-0.01,0.268,-0.947,-0.049,0.243,-0.201,-0.399
451,0.007,-0.009,-0.011,0.266,-0.947,-0.054,0.238,-0.216,-0.397
452,0.011,-0.016,-0.01,0.266,-0.949,-0.053,0.249,-0.214,-0.394
453,0.012,-0.014,-0.011,0.263,-0.949,-0.048,0.244,-0.214,-0.399
454,0.011,-0.011,-0.012,0.261,-0.947,-0.043,0.244,-0.214,-0.399
455,0.009,-0.011,-0.012,0.264,-0.947,-0.045,0.246,-0.214,-0.397
456,0.007,-0.011,-0.013,0.263,-0.946,-0.05,0.244,-0.211,-0.4
457,0.004,-0.01,-0.015,0.26,-0.945,-0.054,0.243,-0.202,-0.4
458,0.002,-0.009,-0.016,0.262,-0.95,-0.055,0.255,-0.199,-0.397
459,-0.002,-0.014,-0.016,0.267,-0.955,-0.053,0.24,-0.204,-0.406
460,-0.005,-0.016,-0.016,0.266,-0.953,-0.051,0.24,-0.204,-0.406
461,-0.01,-0.018,-0.019,0.261,-0.948,-0.047,0.247,-0.21,-0.394
462,-0.014,-0.018,-0.022,0.259,-0.947,-0.047,0.244,-0.208,-0.405
463,-0.016,-0.016,-0.026,0.259,-0.946,-0.052,0.261,-0.207,-0.402
464,-0.016,-0.016,-0.026,0.263,-0.945,-0.053,0.243,-0.19,-0.396
465,-0.018,-0.014,-0.03,0.268,-0.945,-0.049,0.261,-0.214,-0.409
466,-0.019,-0.014,-0.03,0.272,-0.946,-0.044,0.261,-0.214,-0.409
467,-0.02,-0.016,-0.03,0.275,-0.945,-0.042,0.244,-0.216,-0.39
468,-0.016,-0.022,-0.027,0.277,-0.944,-0.039,0.243,-0.208,-0.399
469,-0.015,-0.028,-0.025,0.277,-0.942,-0.041,0.244,-0.196,-0.397
470,-0.015,-0.026,-0.026,0.275,-0.945,-0.045,0.258,-0.201,-0.399
471,-0.015,-0.018,-0.028,0.272,-0.95,-0.041,0.247,-0.207,-0.399
472,-0.014,-0.014,-0.03,0.276,-0.948,-0.037,0.247,-0.207,-0.399
473,-0.015,-0.008,-0.033,0.278,-0.948,-0.035,0.234,-0.208,-0.387
474,-0.016,-0.003,-0.035,0.276,-0.946,-0.034,0.244,-0.201,-0.396
475,-0.016,0.004,-0.037,0.276,-0.94,-0.031,0.244,-0.217,-0.399
476,-0.014,0.007,-0.037,0.277,-0.935,-0.026,0.243,-0.222,-0.391
477,-0.009,0.007,-0.035,0.277,-0.935,-0.027,0.249,-0.208,-0.4
478,-0.003,0.01,-0.035,0.277,-0.934,-0.027,0.249,-0.208,-0.4
479,0.0,0.018,-0.035,0.277,-0.934,-0.027,0.243,-0.21,-0.388
480,0.005,0.022,-0.034,0.276,-0.932,-0.026,0.232,-0.198,-0.405
481,0.012,0.022,-0.031,0.281,-0.936,-0.025,0.247,-0.222,-0.378
482,0.018,0.022,-0.028,0.287,-0.94,-0.024,0.256,-0.219,-0.399
483,0.018,0.022,-0.028,0.29,-0.941,-0.027,0.253,-0.205,-0.402
484,0.021,0.023,-0.024,0.289,-0.947,-0.032,0.253,-0.205,-0.402
485,0.023,0.032,-0.022,0.28,-0.949,-0.032,0.255,-0.202,-0.402
486,0.022,0.037,-0.022,0.273,-0.947,-0.028,0.229,-0.231,-0.382
487,0.019,0.04,-0.022,0.273,-0.943,-0.025,0.229,-0.231,-0.382
488,0.016,0.04,-0.022,0.274,-0.942,-0.025,0.244,-0.211,-0.382
489,0.011,0.044,-0.023,0.272,-0.942,-0.025,0.271,-0.229,-0.399
490,0.006,0.044,-0.024,0.271,-0.945,-0.024,0.256,-0.21,-0.42
491,0.001,0.045,-0.026,0.268,-0.951,-0.022,0.256,-0.21,-0.42
492,0.001,0.045,-0.024,0.265,-0.949,-0.026,0.259,-0.213,-0.394
493,0.002,0.04,-0.023,0.264,-0.947,-0.03,0.244,-0.214,-0.382
494,-0.002,0.039,-0.023,0.267,-0.946,-0.03,0.264,-0.195,-0.388
495,-0.003,0.037,-0.021,0.268,-0.948,-0.029,0.252,-0.208,-0.391
496,0.0,0.035,-0.021,0.269,-0.949,-0.032,0.253,-0.198,-0.399
497,0.003,0.035,-0.018,0.27,-0.949,-0.037,0.253,-0.198,-0.399
498,0.002,0.033,-0.015,0.269,-0.947,-0.038,0.235,-0.193,-0.397
499,0.002,0.026,-0.013,0.269,-0.947,-0.038,0.247,-0.214,-0.4
500,0.004,0.021,-0.011,0.263,-0.945,-0.038,0.238,-0.211,-0.394
501,0.005,0.024,-0.013,0.256,-0.944,-0.041,0.27,-0.219,-0.409
502,0.005,0.027,-0.014,0.256,-0.941,-0.041,0.24,-0.208,-0.405
503,0.005,0.027,-0.014,0.259,-0.943,-0.04,0.255,-0.238,-0.399
504,0.005,0.028,-0.016,0.262,-0.945,-0.043,0.255,-0.238,-0.399
505,0.007,0.032,-0.016,0.266,-0.947,-0.04,0.237,-0.205,-0.399
506,0.009,0.034,-0.016,0.266,-0.95,-0.039,0.241,-0.211,-0.396
507,0.007,0.036,-0.018,0.265,-0.947,-0.038,0.244,-0.213,-0.378
508,0.006,0.031,-0.018,0.267,-0.945,-0.04,0.244,-0.213,-0.378
509,0.007,0.028,-0.019,0.263,-0.944,-0.042,0.249,-0.216,-0.399
510,0.009,0.031,-0.019,0.257,-0.938,-0.042,0.244,-0.21,-0.405
511,0.009,0.03,-0.021,0.254,-0.936,-0.041,0.244,-0.21,-0.405
512,0.01,0.029,-0.018,0.259,-0.944,-0.039,0.258,-0.225,-0.396
513,0.014,0.03,-0.015,0.263,-0.953,-0.036,0.249,-0.207,-0.388
514,0.019,0.035,-0.013,0.263,-0.957,-0.034,0.255,-0.202,-0.393
515,0.021,0.031,-0.01,0.264,-0.96,-0.031,0.24,-0.213,-0.399
516,0.02,0.029,-0.011,0.263,-0.96,-0.03,0.258,-0.196,-0.381
517,0.019,0.032,-0.014,0.26,-0.956,-0.037,0.256,-0.226,-0.405
518,0.016,0.033,-0.018,0.26,-0.956,-0.037,0.256,-0.226,-0.405
519,0.011,0.035,-0.021,0.261,-0.952,-0.039,0.267,-0.216,-0.394
520,0.005,0.036,-0.023,0.263,-0.946,-0.039,0.258,-0.213,-0.394
521,0.0,0.034,-0.024,0.261,-0.941,-0.041,0.25,-0.22,-0.4
522,-0.002,0.03,-0.023,0.261,-0.938,-0.042,0.25,-0.22,-0.4
523,-0.002,0.03,-0.023,0.262,-0.938,-0.04,0.247,-0.208,-0.397
524,-0.002,0.027,-0.021,0.261,-0.939,-0.043,0.252,-0.213,-0.403
525,-0.002,0.027,-0.02,0.261,-0.941,-0.05,0.252,-0.213,-0.403
526,0.0,0.028,-0.017,0.262,-0.944,-0.05,0.265,-0.229,-0.409
527,0.0,0.025,-0.015,0.261,-0.949,-0.046,0.247,-0.223,-0.408
528,0.0,0.026,-0.015,0.259,-0.953,-0.042,0.246,-0.207,-0.4
529,-0.012,0.045,-0.03,0.268,-0.939,-0.053,0.24,-0.226,-0.385
530,0.049,-0.071,0.014,0.214,-0.973,0.054,0.25,-0.228,-0.403
531,0.07,-0.131,0.027,0.212,-0.972,-0.014,0.246,-0.223,-0.411
532,0.031,-0.029,-0.004,0.256,-0.925,-0.112,0.246,-0.223,-0.411
533,0.021,-0.016,0.0,0.256,-0.945,-0.022,0.238,-0.238,-0.405
534,0.032,-0.054,0.02,0.264,-0.961,-0.034,0.256,-0.21,-0.399
535,0.032,-0.065,0.023,0.257,-0.954,-0.053,0.246,-0.201,-0.397
536,0.019,-0.046,0.013,0.258,-0.943,-0.061,0.25,-0.214,-0.405
537,0.01,-0.018,0.007,0.258,-0.943,-0.061,0.231,-0.226,-0.408
538,0.001,0.01,-0.001,0.261,-0.936,-0.061,0.241,-0.214,-0.409
539,-0.001,0.037,-0.011,0.263,-0.935,-0.061,0.241,-0.214,-0.409
540,0.003,0.045,-0.016,0.265,-0.94,-0.051,0.247,-0.195,-0.412
541,0.009,0.05,-0.02,0.267,-0.947,-0.036,0.237,-0.229,-0.409
542,0.01,0.056,-0.024,0.269,-0.948,-0.031,0.24,-0.205,-0.402
543,0.01,0.056,-0.024,0.267,-0.947,-0.029,0.252,-0.198,-0.397
544,0.004,0.059,-0.03,0.265,-0.95,-0.024,0.255,-0.22,-0.403
545,0.002,0.056,-0.032,0.264,-0.954,-0.02,0.262,-0.21,-0.397
546,0.002,0.044,-0.03,0.259,-0.954,-0.021,0.262,-0.21,-0.397
547,0.005,0.028,-0.026,0.256,-0.957,-0.028,0.247,-0.196,-0.408
548,0.004,0.017,-0.02,0.251,-0.957,-0.034,0.258,-0.208,-0.406
549,0.004,0.016,-0.015,0.244,-0.952,-0.039,0.219,-0.234,-0.391
550,0.002,0.016,-0.011,0.251,-0.949,-0.042,0.249,-0.22,-0.394
551,0.008,0.004,-0.005,0.259,-0.944,-0.039,0.253,-0.228,-0.397
552,0.011,0.0,0.0,0.26,-0.941,-0.036,0.252,-0.219,-0.411
553,0.014,-0.001,0.003,0.259,-0.941,-0.032,0.252,-0.219,-0.411
554,0.016,-0.004,0.005,0.257,-0.937,-0.028,0.241,-0.208,-0.399
555,0.017,-0.009,0.005,0.255,-0.939,-0.029,0.25,-0.226,-0.414
556,0.02,-0.008,0.004,0.256,-0.947,-0.03,0.252,-0.208,-0.406
557,0.023,-0.016,0.005,0.259,-0.95,-0.031,0.259,-0.217,-0.402
558,0.022,-0.019,0.006,0.259,-0.95,-0.031,0.252,-0.201,-0.409
559,0.02,-0.021,0.004,0.259,-0.949,-0.034,0.235,-0.219,-0.4
560,0.016,-0.017,0.0,0.259,-0.948,-0.038,0.235,-0.219,-0.4
561,0.016,-0.011,-0.004,0.259,-0.946,-0.041,0.246,-0.204,-0.411
562,0.016,-0.011,-0.004,0.26,-0.949,-0.04,0.258,-0.217,-0.409
563,0.016,-0.005,-0.007,0.266,-0.95,-0.036,0.234,-0.243,-0.382
564,0.018,0.0,-0.01,0.268,-0.946,-0.037,0.27,-0.237,-0.403
565,0.021,0.004,-0.012,0.268,-0.946,-0.038,0.256,-0.205,-0.403
566,0.023,0.007,-0.011,0.267,-0.947,-0.036,0.261,-0.208,-0.403
567,0.023,0.011,-0.009,0.262,-0.943,-0.031,0.261,-0.208,-0.403
568,0.02,0.011,-0.008,0.256,-0.94,-0.029,0.246,-0.222,-0.399
569,0.016,0.009,-0.007,0.255,-0.942,-0.028,0.253,-0.237,-0.415
570,0.016,0.0,-0.005,0.257,-0.947,-0.029,0.24,-0.214,-0.397
571,0.015,0.0,-0.005,0.256,-0.951,-0.036,0.24,-0.214,-0.397
572,0.013,0.001,-0.007,0.257,-0.952,-0.039,0.247,-0.216,-0.399
573,0.01,0.002,-0.007,0.261,-0.949,-0.035,0.247,-0.22,-0.396
574,0.01,0.003,-0.009,0.265,-0.945,-0.034,0.247,-0.22,-0.396
575,0.011,0.001,-0.009,0.268,-0.944,-0.036,0.25,-0.198,-0.403
576,0.013,0.0,-0.008,0.267,-0.943,-0.039,0.247,-0.219,-0.403
577,0.016,-0.001,-0.009,0.262,-0.943,-0.041,0.226,-0.205,-0.403
578,0.018,0.0,-0.009,0.262,-0.943,-0.041,0.244,-0.216,-0.391
579,0.023,0.003,-0.008,0.262,-0.943,-0.044,0.255,-0.207,-0.391
580,0.025,0.004,-0.005,0.263,-0.947,-0.048,0.249,-0.208,-0.399
581,0.025,0.004,-0.005,0.261,-0.952,-0.044,0.249,-0.208,-0.399
582,0.028,0.006,-0.004,0.26,-0.956,-0.038,0.252,-0.22,-0.394
583,0.03,0.005,-0.001,0.261,-0.957,-0.036,0.241,-0.217,-0.396
584,0.03,0.001,0.0,0.261,-0.955,-0.038,0.253,-0.202,-0.396
585,0.028,-0.002,0.002,0.258,-0.954,-0.04,0.253,-0.202,-0.396
586,0.025,-0.006,0.002,0.255,-0.958,-0.041,0.252,-0.214,-0.385
587,0.02,-0.006,0.002,0.256,-0.959,-0.042,0.255,-0.222,-0.384
588,0.015,-0.007,0.0,0.258,-0.956,-0.042,0.255,-0.222,-0.384
589,0.012,-0.007,-0.001,0.257,-0.953,-0.041,0.259,-0.208,-0.393
590,0.008,-0.007,-0.004,0.259,-0.951,-0.038,0.232,-0.228,-0.394
591,0.002,0.001,-0.008,0.261,-0.953,-0.036,0.235,-0.213,-0.402
592,0.0,0.007,-0.011,0.264,-0.949,-0.038,0.243,-0.201,-0.403
593,0.0,0.011,-0.012,0.263,-0.94,-0.042,0.264,-0.225,-0.388
594,0.0,0.014,-0.012,0.263,-0.936,-0.045,0.25,-0.213,-0.402
595,0.001,0.016,-0.012,0.266,-0.937,-0.044,0.25,-0.213,-0.402
596,0.005,0.019,-0.011,0.268,-0.937,-0.043,0.235,-0.205,-0.397
597,0.011,0.018,-0.01,0.268,-0.937,-0.043,0.261,-0.208,-0.397
598,0.016,0.012,-0.007,0.268,-0.937,-0.044,0.24,-0.217,-0.382
599,0.021,0.008,-0.002,0.27,-0.937,-0.047,0.244,-0.202,-0.406
600,0.023,0.006,0.0,0.272,-0.938,-0.048,0.249,-0.229,-0.4
601,0.023,0.006,0.0,0.269,-0.936,-0.049,0.243,-0.214,-0.418
602,0.024,0.002,0.002,0.264,-0.931,-0.05,0.243,-0.214,-0.418
603,0.026,0.003,0.002,0.256,-0.93,-0.05,0.243,-0.222,-0.399
604,0.027,0.01,0.002,0.255,-0.934,-0.05,0.252,-0.204,-0.403
605,0.028,0.016,0.002,0.261,-0.936,-0.049,0.237,-0.211,-0.399
606,0.031,0.016,0.004,0.261,-0.944,-0.047,0.258,-0.205,-0.408
607,0.035,0.017,0.006,0.262,-0.949,-0.048,0.249,-0.207,-0.402
608,0.036,0.019,0.008,0.264,-0.95,-0.042,0.25,-0.213,-0.39
609,0.039,0.016,0.01,0.265,-0.955,-0.039,0.25,-0.213,-0.39
610,0.042,0.013,0.012,0.265,-0.951,-0.046,0.258,-0.214,-0.402
611,0.045,0.009,0.013,0.262,-0.939,-0.049,0.238,-0.222,-0.399
612,0.044,0.004,0.014,0.262,-0.934,-0.051,0.22,-0.21,-0.388
613,0.046,0.011,0.014,0.263,-0.936,-0.055,0.25,-0.204,-0.4
614,0.049,0.015,0.017,0.264,-0.94,-0.06,0.252,-0.214,-0.408
615,0.053,0.021,0.02,0.263,-0.941,-0.058,0.247,-0.22,-0.397
616,0.053,0.028,0.023,0.261,-0.94,-0.048,0.247,-0.22,-0.397
617,0.049,0.026,0.023,0.261,-0.94,-0.048,0.241,-0.226,-0.391
618,0.055,0.018,0.024,0.263,-0.936,-0.038,0.252,-0.216,-0.405
619,0.062,0.03,0.023,0.262,-0.934,-0.042,0.244,-0.208,-0.391
620,0.069,0.035,0.025,0.26,-0.933,-0.051,0.244,-0.208,-0.391
621,0.073,0.038,0.028,0.261,-0.933,-0.05,0.243,-0.187,-0.396
622,0.073,0.038,0.028,0.265,-0.935,-0.05,0.244,-0.204,-0.393
623,0.079,0.033,0.03,0.262,-0.931,-0.051,0.244,-0.204,-0.393
624,0.076,0.032,0.029,0.255,-0.925,-0.046,0.234,-0.21,-0.402
625,0.074,0.027,0.028,0.25,-0.918,-0.052,0.247,-0.205,-0.384
626,0.081,0.02,0.027,0.252,-0.911,-0.061,0.229,-0.195,-0.375
627,0.091,0.004,0.027,0.262,-0.91,-0.061,0.252,-0.226,-0.396
628,0.098,-0.013,0.031,0.275,-0.918,-0.05,0.243,-0.193,-0.387
629,0.1,-0.042,0.036,0.285,-0.926,-0.05,0.228,-0.202,-0.388
630,0.092,-0.029,0.036,0.291,-0.942,-0.058,0.228,-0.202,-0.388
631,0.091,-0.044,0.043,0.282,-0.961,-0.048,0.255,-0.214,-0.408
632,0.084,-0.062,0.049,0.265,-0.973,-0.043,0.244,-0.198,-0.385
633,0.074,-0.07,0.051,0.258,-0.986,-0.039,0.241,-0.207,-0.369
634,0.065,-0.091,0.051,0.254,-0.991,-0.031,0.241,-0.207,-0.369
635,0.057,-0.116,0.051,0.254,-0.982,-0.034,0.252,-0.202,-0.39
636,0.055,-0.136,0.051,0.245,-0.982,-0.034,0.241,-0.202,-0.39
637,0.047,-0.156,0.052,0.235,-0.967,-0.033,0.241,-0.202,-0.39
638,0.039,-0.177,0.051,0.232,-0.951,-0.036,0.24,-0.192,-0.379
639,0.032,-0.191,0.049,0.242,-0.933,-0.045,0.238,-0.187,-0.385
640,0.028,-0.182,0.048,0.252,-0.919,-0.062,0.241,-0.208,-0.385
641,0.028,-0.182,0.048,0.265,-0.907,-0.075,0.243,-0.193,-0.39
642,0.03,-0.181,0.049,0.289,-0.906,-0.069,0.234,-0.223,-0.37
643,0.032,-0.192,0.051,0.308,-0.914,-0.073,0.234,-0.201,-0.381
644,0.038,-0.189,0.06,0.316,-0.922,-0.086,0.234,-0.201,-0.381
645,0.039,-0.189,0.072,0.311,-0.931,-0.082,0.244,-0.192,-0.378
646,0.041,-0.189,0.079,0.309,-0.939,-0.073,0.241,-0.208,-0.36
647,0.036,-0.219,0.084,0.298,-0.931,-0.055,0.235,-0.21,-0.346
648,0.032,-0.258,0.083,0.3,-0.921,-0.055,0.217,-0.199,-0.361
649,0.029,-0.288,0.078,0.304,-0.915,-0.073,0.21,-0.207,-0.381
650,0.023,-0.31,0.062,0.314,-0.916,-0.094,0.21,-0.207,-0.381
651,0.014,-0.304,0.047,0.327,-0.925,-0.094,0.235,-0.205,-0.349
652,0.004,-0.294,0.042,0.328,-0.934,-0.079,0.204,-0.184,-0.351
653,-0.016,-0.309,0.046,0.331,-0.938,-0.061,0.243,-0.181,-0.351
654,-0.1,-0.219,-0.009,0.391,-0.898,-0.086,0.199,-0.193,-0.339
655,-0.084,-0.191,-0.018,0.395,-0.892,-0.102,0.199,-0.193,-0.339
656,-0.056,-0.154,-0.014,0.408,-0.916,-0.122,0.189,-0.19,-0.343
657,-0.051,-0.123,-0.005,0.401,-0.915,-0.113,0.19,-0.198,-0.339
658,-0.048,-0.102,-0.009,0.389,-0.901,-0.101,0.19,-0.198,-0.339
659,-0.049,-0.088,-0.002,0.396,-0.899,-0.114,0.202,-0.19,-0.36
660,-0.015,-0.063,-0.002,0.402,-0.895,-0.133,0.21,-0.19,-0.34
661,0.049,-0.014,0.0,0.402,-0.903,-0.12,0.202,-0.187,-0.333
662,0.079,0.018,-0.004,0.399,-0.897,-0.106,0.186,-0.187,-0.336
663,0.096,0.043,-0.013,0.399,-0.886,-0.103,0.226,-0.19,-0.357
664,0.102,0.058,-0.023,0.395,-0.885,-0.095,0.226,-0.19,-0.357
665,0.107,0.07,-0.033,0.389,-0.894,-0.101,0.192,-0.169,-0.331
666,0.107,0.07,-0.033,0.376,-0.889,-0.103,0.216,-0.183,-0.319
667,0.107,0.087,-0.044,0.366,-0.884,-0.094,0.217,-0.184,-0.321
668,0.102,0.108,-0.053,0.36,-0.893,-0.092,0.213,-0.195,-0.334
669,0.096,0.121,-0.056,0.349,-0.903,-0.085,0.204,-0.184,-0.354
670,0.094,0.121,-0.057,0.338,-0.915,-0.077,0.204,-0.183,-0.334
671,0.097,0.121,-0.059,0.329,-0.926,-0.06,0.204,-0.183,-0.334
672,0.097,0.11,-0.06,0.324,-0.936,-0.028,0.193,-0.198,-0.343
673,0.088,0.088,-0.065,0.328,-0.949,-0.004,0.216,-0.187,-0.328
674,0.081,0.051,-0.067,0.333,-0.955,-0.002,0.201,-0.198,-0.334
675,0.066,0.03,-0.076,0.332,-0.938,-0.023,0.195,-0.19,-0.328
676,0.053,0.038,-0.088,0.329,-0.918,-0.04,0.198,-0.198,-0.333
677,0.048,0.044,-0.098,0.328,-0.907,-0.052,0.21,-0.204,-0.343
678,0.044,0.053,-0.107,0.333,-0.906,-0.059,0.21,-0.204,-0.343
679,0.053,0.039,-0.107,0.34,-0.918,-0.05,0.217,-0.177,-0.354
680,0.07,0.014,-0.099,0.342,-0.933,-0.031,0.211,-0.205,-0.337
681,0.083,-0.031,-0.091,0.342,-0.933,-0.031,0.21,-0.196,-0.337
682,0.098,-0.092,-0.084,0.342,-0.946,-0.017,0.208,-0.204,-0.327
683,0.102,-0.126,-0.087,0.351,-0.948,-0.027,0.22,-0.21,-0.331
684,0.102,-0.126,-0.087,0.354,-0.933,-0.051,0.22,-0.21,-0.331
685,0.109,-0.143,-0.093,0.346,-0.912,-0.072,0.211,-0.222,-0.325
686,0.126,-0.148,-0.105,0.33,-0.893,-0.078,0.211,-0.195,-0.342
687,0.135,-0.137,-0.125,0.321,-0.889,-0.081,0.204,-0.208,-0.345
688,0.148,-0.111,-0.145,0.332,-0.893,-0.071,0.214,-0.184,-0.333
689,0.154,-0.1,-0.163,0.35,-0.896,-0.041,0.196,-0.208,-0.319
690,0.15,-0.102,-0.177,0.369,-0.89,-0.037,0.196,-0.208,-0.319
691,0.148,-0.086,-0.184,0.388,-0.884,-0.053,0.219,-0.21,-0.321
692,0.146,-0.055,-0.191,0.395,-0.883,-0.053,0.223,-0.217,-0.346
693,0.144,-0.024,-0.198,0.391,-0.88,-0.046,0.228,-0.205,-0.325
694,0.142,-0.004,-0.205,0.389,-0.882,-0.043,0.217,-0.211,-0.331
695,0.14,0.006,-0.211,0.394,-0.891,-0.027,0.241,-0.226,-0.331
696,0.141,0.012,-0.216,0.397,-0.905,-0.015,0.241,-0.226,-0.331
697,0.146,0.018,-0.218,0.414,-0.91,-0.014,0.213,-0.196,-0.31
698,0.144,0.025,-0.213,0.431,-0.906,-0.003,0.201,-0.199,-0.33
699,0.14,0.026,-0.204,0.434,-0.891,-0.008,0.241,-0.223,-0.325
700,0.135,0.027,-0.196,0.434,-0.891,-0.008,0.208,-0.219,-0.325
701,0.135,0.022,-0.194,0.413,-0.866,-0.015,0.208,-0.219,-0.325
702,0.13,0.0,-0.191,0.38,-0.858,0.006,0.238,-0.235,-0.322
703,0.124,-0.042,-0.194,0.357,-0.869,0.031,0.226,-0.226,-0.312
704,0.117,-0.093,-0.199,0.338,-0.881,0.05,0.22,-0.234,-0.336
705,0.117,-0.093,-0.199,0.329,-0.893,0.072,0.231,-0.235,-0.325
706,0.098,-0.143,-0.208,0.334,-0.907,0.085,0.241,-0.21,-0.339
707,0.095,-0.186,-0.212,0.33,-0.908,0.107,0.225,-0.229,-0.33
708,0.098,-0.224,-0.226,0.339,-0.916,0.114,0.225,-0.229,-0.33
709,0.088,-0.211,-0.247,0.385,-0.937,0.095,0.225,-0.219,-0.324
710,0.076,-0.182,-0.259,0.445,-0.964,0.078,0.228,-0.231,-0.334
711,0.049,-0.128,-0.258,0.491,-1.003,0.042,0.228,-0.231,-0.334
712,0.024,-0.074,-0.256,0.516,-1.056,0.023,0.231,-0.238,-0.316
713,-0.015,-0.01,-0.238,0.539,-1.107,0.023,0.24,-0.237,-0.336
714,-0.055,0.07,-0.21,0.561,-1.146,0.016,0.231,-0.22,-0.316
715,-0.108,0.158,-0.188,0.561,-1.172,0.006,0.231,-0.22,-0.316
716,-0.182,0.263,-0.176,0.536,-1.176,-0.007,0.253,-0.234,-0.33
717,-0.275,0.364,-0.154,0.485,-1.172,-0.021,0.249,-0.247,-0.331
718,-0.366,0.488,-0.149,0.411,-1.164,-0.045,0.235,-0.237,-0.34
719,-0.459,0.651,-0.159,0.352,-1.149,-0.042,0.234,-0.235,-0.345
720,-0.572,0.724,-0.152,0.352,-1.149,-0.042,0.243,-0.238,-0.348
721,-0.692,0.788,-0.105,0.317,-1.135,-0.021,0.234,-0.231,-0.361
722,-0.781,0.835,-0.074,0.267,-1.123,-0.035,0.234,-0.231,-0.361
723,-0.868,0.805,-0.065,0.211,-1.097,-0.035,0.244,-0.231,-0.378
724,-0.868,0.805,-0.065,0.177,-1.068,-0.02,0.246,-0.241,-0.393
725,-0.975,0.793,-0.051,0.128,-1.053,-0.029,0.246,-0.241,-0.393
726,-1.075,0.791,-0.024,0.083,-1.053,-0.035,0.255,-0.217,-0.414
727,-1.127,0.728,0.016,0.08,-1.07,-0.015,0.262,-0.229,-0.433
728,-1.183,0.581,0.08,0.108,-1.115,0.05,0.261,-0.213,-0.441
729,-1.254,0.35,0.144,0.126,-1.211,0.151,0.261,-0.213,-0.441
730,-1.369,0.067,0.179,0.126,-1.279,0.181,0.271,-0.219,-0.445
731,-1.377,-0.193,0.233,0.155,-1.243,0.094,0.262,-0.202,-0.448
732,-1.325,-0.367,0.291,0.168,-1.198,-0.015,0.231,-0.205,-0.46
733,-1.208,-0.417,0.333,0.152,-1.131,-0.156,0.258,-0.201,-0.474
734,-1.154,-0.221,0.308,0.172,-1.062,-0.248,0.253,-0.181,-0.483
735,-1.123,0.01,0.296,0.229,-1.053,-0.235,0.267,-0.196,-0.478
736,-0.978,0.235,0.303,0.305,-1.048,-0.275,0.267,-0.196,-0.478
737,-0.805,0.627,0.349,0.394,-1.055,-0.29,0.252,-0.177,-0.487
738,-0.721,0.973,0.416,0.456,-1.068,-0.194,0.246,-0.166,-0.481
739,-0.677,1.185,0.504,0.481,-1.084,-0.04,0.246,-0.166,-0.496
740,-0.758,1.304,0.542,0.481,-1.084,-0.04,0.256,-0.166,-0.522
741,-0.82,1.47,0.565,0.483,-1.083,0.042,0.274,-0.138,-0.552
742,-0.727,1.563,0.588,0.438,-1.052,0.064,0.255,-0.141,-0.528
743,-0.727,1.563,0.588,0.352,-1.022,0.087,0.255,-0.141,-0.528
744,-0.541,1.579,0.605,0.235,-0.969,0.083,0.291,-0.126,-0.562
745,-0.541,1.579,0.605,0.111,-0.918,0.083,0.282,-0.129,-0.571
746,-0.502,1.629,0.556,0.059,-0.917,0.014,0.271,-0.129,-0.571
747,-0.462,1.803,0.517,0.068,-0.922,-0.02,0.276,-0.111,-0.591
748,-0.453,1.945,0.483,0.049,-0.922,0.074,0.295,-0.123,-0.597
749,-0.377,1.988,0.451,0.057,-0.914,0.11,0.316,-0.109,-0.621
750,-0.522,1.833,0.328,0.053,-0.839,0.101,0.316,-0.109,-0.621
751,-0.515,1.705,0.204,0.008,-0.789,0.21,0.322,-0.103,-0.628
752,-0.507,1.544,0.128,-0.053,-0.786,0.325,0.342,-0.099,-0.612
753,-0.52,1.304,0.058,-0.041,-0.747,0.32,0.348,-0.088,-0.637
754,-0.501,1.116,-0.021,-0.014,-0.721,0.289,0.366,-0.093,-0.649
755,-0.409,1.094,-0.083,0.01,-0.704,0.172,0.358,-0.093,-0.667
756,-0.341,0.987,-0.131,0.044,-0.707,0.173,0.382,-0.075,-0.667
757,-0.28,0.802,-0.128,0.053,-0.734,0.319,0.382,-0.075,-0.667
758,-0.217,0.647,-0.093,0.082,-0.706,0.301,0.379,-0.084,-0.669
759,-0.155,0.555,-0.102,0.085,-0.669,0.255,0.369,-0.061,-0.67
760,-0.097,0.497,-0.098,0.085,-0.669,0.255,0.369,-0.061,-0.67
761,-0.016,0.424,-0.057,0.081,-0.676,0.272,0.405,-0.081,-0.664
762,0.068,0.341,-0.021,0.078,-0.663,0.289,0.405,-0.067,-0.681
763,0.068,0.341,-0.021,0.074,-0.627,0.296,0.408,-0.069,-0.669
764,0.151,0.247,0.006,0.059,-0.591,0.325,0.408,-0.069,-0.669
765,0.226,0.144,0.029,0.056,-0.574,0.365,0.39,-0.075,-0.673
766,0.356,-0.049,0.066,0.094,-0.591,0.43,0.388,-0.073,-0.655
767,0.382,-0.094,0.083,0.127,-0.617,0.449,0.406,-0.075,-0.672
768,0.401,-0.118,0.116,0.146,-0.633,0.455,0.402,-0.082,-0.661
769,0.42,-0.133,0.135,0.14,-0.651,0.478,0.405,-0.079,-0.642
770,0.438,-0.162,0.159,0.124,-0.677,0.528,0.405,-0.079,-0.642
771,0.465,-0.18,0.194,0.117,-0.684,0.544,0.384,-0.084,-0.657
772,0.47,-0.205,0.238,0.141,-0.727,0.557,0.399,-0.09,-0.658
773,0.472,-0.213,0.275,0.156,-0.729,0.561,0.399,-0.09,-0.658
774,0.48,-0.242,0.307,0.153,-0.706,0.559,0.382,-0.078,-0.648
775,0.504,-0.269,0.341,0.172,-0.73,0.567,0.37,-0.099,-0.648
776,0.504,-0.297,0.352,0.205,-0.774,0.58,0.381,-0.096,-0.646
777,0.469,-0.3,0.343,0.239,-0.843,0.609,0.381,-0.096,-0.646
778,0.382,-0.251,0.298,0.239,-0.95,0.63,0.391,-0.091,-0.642
779,0.196,-0.189,0.243,0.277,-0.95,0.63,0.381,-0.094,-0.639
780,-0.018,-0.049,0.151,0.305,-1.086,0.633,0.369,-0.076,-0.648
781,-0.15,0.054,0.101,0.341,-1.221,0.655,0.382,-0.079,-0.648
782,-0.143,0.163,0.081,0.368,-1.311,0.673,0.367,-0.084,-0.645
783,-0.143,0.163,0.081,0.35,-1.256,0.661,0.385,-0.085,-0.658
784,-0.07,0.361,0.06,0.294,-1.075,0.704,0.385,-0.085,-0.658
785,-0.016,0.593,0.036,0.189,-0.798,0.755,0.378,-0.079,-0.658
786,0.049,0.708,0.018,0.029,-0.494,0.767,0.378,-0.075,-0.636
787,0.163,0.63,0.012,-0.088,-0.313,0.685,0.378,-0.075,-0.636
788,0.298,0.459,0.016,-0.15,-0.324,0.595,0.415,-0.088,-0.649
789,0.424,0.24,0.053,-0.132,-0.474,0.474,0.396,-0.073,-0.646
790,0.427,-0.004,0.109,0.018,-0.791,0.355,0.399,-0.106,-0.631
791,0.291,-0.228,0.159,0.196,-1.258,0.367,0.399,-0.106,-0.631
792,0.093,-0.37,0.127,0.299,-1.726,0.362,0.412,-0.093,-0.637
793,-0.059,-0.403,0.029,0.348,-1.972,0.354,0.399,-0.072,-0.639
794,-0.119,-0.284,-0.045,0.412,-1.997,0.383,0.406,-0.088,-0.637
795,-0.15,-0.163,-0.03,0.339,-1.692,0.419,0.388,-0.07,-0.651
796,-0.183,-0.264,0.035,0.059,-1.071,0.323,0.39,-0.07,-0.646
797,-0.105,-0.598,0.067,-0.252,-0.569,0.076,0.406,-0.076,-0.634
798,0.039,-0.856,0.023,-0.252,-0.569,0.076,0.406,-0.076,-0.634
799,0.109,-0.9,-0.031,-0.361,-0.353,-0.055,0.403,-0.06,-0.612
800,0.119,-0.93,-0.07,-0.252,-0.355,0.033,0.364,-0.082,-0.612
801,0.128,-1.192,-0.102,-0.081,-0.453,0.184,0.384,-0.088,-0.618
802,0.208,-1.671,-0.156,0.121,-0.606,0.184,0.352,-0.07,-0.631
803,0.208,-1.671,-0.156,0.344,-0.802,-0.061,0.376,-0.07,-0.601
804,0.333,-1.988,-0.192,0.543,-1.048,-0.338,0.363,-0.076,-0.601
805,0.382,-1.863,-0.196,0.712,-1.276,-0.392,0.363,-0.076,-0.601
806,0.386,-1.488,-0.114,0.803,-1.36,-0.283,0.366,-0.079,-0.606
807,0.389,-1.076,0.023,0.735,-1.264,-0.136,0.333,-0.075,-0.559
808,0.373,-0.83,0.136,0.505,-1.068,0.095,0.333,-0.075,-0.559
809,0.303,-0.801,0.123,0.197,-0.842,0.297,0.328,-0.087,-0.565
810,0.259,-0.899,0.023,0.016,-0.686,0.341,0.319,-0.091,-0.55
811,0.259,-1.029,-0.065,0.012,-0.643,0.261,0.307,-0.09,-0.568
812,0.369,-1.178,-0.088,0.07,-0.657,0.135,0.307,-0.09,-0.568
813,0.452,-1.294,-0.101,0.144,-0.753,0.105,0.306,-0.102,-0.556
814,0.395,-1.432,-0.107,0.242,-0.886,0.134,0.306,-0.082,-0.538
815,0.324,-1.635,-0.096,0.324,-0.965,0.07,0.307,-0.091,-0.541
816,0.405,-1.65,-0.05,0.438,-1.007,-0.11,0.295,-0.087,-0.537
817,0.476,-1.603,0.026,0.438,-1.007,-0.11,0.282,-0.103,-0.528
818,0.454,-1.519,0.069,0.547,-1.007,-0.193,0.288,-0.093,-0.505
819,0.538,-1.327,0.103,0.556,-0.943,-0.168,0.288,-0.093,-0.505
820,0.53,-1.092,0.067,0.548,-0.877,-0.233,0.267,-0.091,-0.517
821,0.438,-0.905,0.005,0.443,-0.824,-0.198,0.256,-0.087,-0.477
822,0.432,-0.788,-0.028,0.327,-0.793,-0.079,0.256,-0.087,-0.477
823,0.432,-0.788,-0.028,0.327,-0.772,-0.156,0.267,-0.102,-0.46
824,0.529,-0.798,0.021,0.317,-0.765,-0.158,0.273,-0.097,-0.472
825,0.5,-0.805,-0.007,0.301,-0.809,-0.079,0.255,-0.097,-0.448
826,0.37,-0.847,-0.107,0.306,-0.807,-0.076,0.255,-0.097,-0.448
827,0.323,-0.664,-0.169,0.319,-0.852,-0.117,0.274,-0.106,-0.447
828,0.299,-0.456,-0.168,0.36,-0.923,-0.149,0.262,-0.102,-0.46
829,0.281,-0.317,-0.155,0.409,-0.919,-0.066,0.247,-0.084,-0.417
830,0.279,-0.328,-0.141,0.41,-0.911,0.027,0.264,-0.087,-0.433
831,0.278,-0.389,-0.138,0.386,-0.887,0.056,0.267,-0.096,-0.45
832,0.257,-0.431,-0.153,0.375,-0.861,0.032,0.261,-0.114,-0.432
833,0.212,-0.413,-0.183,0.394,-0.863,-0.021,0.261,-0.114,-0.432
834,0.221,-0.379,-0.168,0.406,-0.865,-0.075,0.252,-0.105,-0.438
835,0.219,-0.328,-0.168,0.394,-0.866,-0.09,0.246,-0.111,-0.423
836,0.214,-0.27,-0.179,0.383,-0.884,-0.059,0.246,-0.111,-0.423
837,0.239,-0.245,-0.182,0.359,-0.887,-0.022,0.256,-0.106,-0.408
838,0.298,-0.27,-0.186,0.359,-0.887,-0.022,0.247,-0.124,-0.418
839,0.352,-0.288,-0.207,0.323,-0.872,-0.005,0.27,-0.114,-0.417
840,0.394,-0.306,-0.235,0.299,-0.868,0.012,0.27,-0.114,-0.417
841,0.431,-0.342,-0.268,0.296,-0.873,0.028,0.247,-0.129,-0.415
842,0.431,-0.342,-0.268,0.31,-0.881,0.033,0.243,-0.117,-0.397
843,0.456,-0.365,-0.291,0.321,-0.885,0.025,0.264,-0.109,-0.411
844,0.452,-0.359,-0.321,0.327,-0.878,0.012,0.268,-0.13,-0.391
845,0.46,-0.343,-0.338,0.335,-0.878,0.006,0.264,-0.108,-0.381
846,0.444,-0.333,-0.358,0.338,-0.878,0.01,0.255,-0.126,-0.384
847,0.429,-0.325,-0.375,0.354,-0.88,0.031,0.255,-0.126,-0.384
848,0.394,-0.34,-0.383,0.382,-0.876,0.052,0.277,-0.123,-0.385
849,0.33,-0.333,-0.389,0.422,-0.868,0.041,0.255,-0.127,-0.363
850,0.301,-0.366,-0.351,0.439,-0.882,0.016,0.255,-0.127,-0.363
851,0.266,-0.371,-0.312,0.421,-0.908,0.006,0.274,-0.139,-0.372
852,0.206,-0.357,-0.293,0.409,-0.933,0.005,0.267,-0.133,-0.384
853,0.177,-0.331,-0.261,0.411,-0.97,0.026,0.283,-0.124,-0.346
854,0.119,-0.293,-0.24,0.441,-1.015,0.032,0.283,-0.124,-0.346
855,0.051,-0.278,-0.228,0.466,-1.023,0.029,0.27,-0.13,-0.372
856,-0.019,-0.285,-0.215,0.431,-0.983,0.053,0.265,-0.139,-0.361
857,-0.034,-0.238,-0.219,0.431,-0.983,0.053,0.265,-0.139,-0.361
858,-0.054,-0.143,-0.258,0.37,-0.958,0.071,0.271,-0.135,-0.346
859,-0.095,-0.048,-0.291,0.342,-0.979,0.096,0.273,-0.139,-0.36
860,-0.123,0.006,-0.282,0.381,-1.014,0.154,0.274,-0.123,-0.355
861,-0.123,0.006,-0.282,0.441,-1.025,0.228,0.274,-0.123,-0.355
862,-0.151,-0.035,-0.28,0.49,-0.983,0.26,0.27,-0.139,-0.37
863,-0.2,-0.102,-0.287,0.568,-0.972,0.167,0.256,-0.117,-0.316
864,-0.275,-0.115,-0.267,0.633,-1.042,-0.002,0.288,-0.124,-0.334
865,-0.312,-0.044,-0.233,0.644,-1.142,-0.14,0.28,-0.136,-0.355
866,-0.347,0.176,-0.164,0.671,-1.227,-0.183,0.279,-0.129,-0.349
867,-0.41,0.433,-0.086,0.691,-1.251,-0.131,0.28,-0.13,-0.354
868,-0.536,0.626,0.0,0.61,-1.255,-0.083,0.28,-0.13,-0.354
869,-0.754,0.792,0.078,0.405,-1.272,-0.066,0.297,-0.142,-0.358
870,-0.897,0.849,0.077,0.187,-1.268,-0.051,0.295,-0.105,-0.355
871,-1.066,0.938,0.101,0.136,-1.309,-0.072,0.295,-0.105,-0.355
872,-1.176,0.971,0.213,0.188,-1.364,-0.108,0.282,-0.129,-0.373
873,-1.148,0.924,0.331,0.163,-1.314,-0.135,0.274,-0.127,-0.391
874,-1.064,0.837,0.374,0.075,-1.285,-0.12,0.268,-0.088,-0.373
875,-1.099,0.694,0.363,0.016,-1.36,0.024,0.268,-0.088,-0.373
876,-1.214,0.35,0.347,0.03,-1.414,0.13,0.264,-0.087,-0.397
877,-1.348,-0.028,0.28,0.03,-1.414,0.13,0.271,-0.084,-0.418
878,-1.349,-0.237,0.275,0.11,-1.383,0.044,0.288,-0.061,-0.417
879,-1.399,-0.26,0.258,0.147,-1.31,-0.071,0.27,-0.093,-0.427
880,-1.452,-0.226,0.248,0.14,-1.273,-0.083,0.274,-0.067,-0.436
881,-1.452,-0.226,0.248,0.133,-1.233,-0.051,0.277,-0.075,-0.421
882,-1.479,-0.151,0.21,0.111,-1.155,-0.06,0.277,-0.075,-0.421
883,-1.442,-0.058,0.217,0.16,-1.104,-0.077,0.271,-0.085,-0.43
884,-1.239,0.038,0.27,0.231,-1.07,-0.205,0.271,-0.085,-0.43
885,-0.912,0.365,0.295,0.273,-1.022,-0.421,0.252,-0.033,-0.423
886,-0.89,0.736,0.323,0.288,-0.971,-0.27,0.283,-0.046,-0.453
887,-1.144,0.98,0.289,0.258,-0.934,-0.025,0.258,-0.031,-0.453
888,-1.185,1.244,0.209,0.253,-0.901,-0.077,0.279,-0.024,-0.46
889,-1.115,1.434,0.196,0.253,-0.888,-0.132,0.279,-0.024,-0.46
890,-0.959,1.752,0.247,0.247,-0.888,-0.067,0.295,-0.019,-0.459
891,-0.877,1.894,0.303,0.26,-0.878,-0.002,0.289,-0.006,-0.474
892,-0.844,2.017,0.35,0.251,-0.831,0.054,0.304,-0.012,-0.501
893,-0.75,2.007,0.35,0.204,-0.822,0.184,0.301,-0.028,-0.511
894,-0.623,1.907,0.351,0.153,-0.825,0.248,0.324,-0.015,-0.511
895,-0.534,1.918,0.345,0.122,-0.773,0.147,0.327,0.007,-0.526
896,-0.45,1.924,0.319,0.09,-0.781,0.137,0.327,0.007,-0.526
897,-0.378,1.789,0.302,0.09,-0.781,0.137,0.321,0.007,-0.531
898,-0.279,1.595,0.296,0.075,-0.776,0.196,0.328,0.024,-0.52
899,-0.237,1.453,0.261,0.038,-0.697,0.164,0.328,0.024,-0.52
900,-0.174,1.313,0.224,-0.052,-0.625,0.133,0.339,0.031,-0.565
901,-0.174,1.313,0.224,-0.084,-0.593,0.135,0.355,0.024,-0.577
902,-0.114,1.159,0.175,-0.052,-0.599,0.183,0.361,0.019,-0.564
903,-0.051,0.99,0.133,-0.008,-0.609,0.244,0.361,0.019,-0.564
904,-0.014,0.782,0.108,0.021,-0.602,0.294,0.373,0.012,-0.573
905,0.044,0.59,0.103,0.026,-0.588,0.321,0.373,0.016,-0.565
906,0.112,0.477,0.102,0.025,-0.572,0.32,0.361,0.019,-0.555
907,0.21,0.394,0.116,0.011,-0.556,0.346,0.367,0.015,-0.567
908,0.297,0.304,0.143,-0.009,-0.553,0.381,0.381,0.031,-0.582
909,0.378,0.209,0.156,-0.019,-0.546,0.392,0.369,0.015,-0.564
910,0.438,0.125,0.148,0.006,-0.532,0.385,0.369,0.015,-0.564
911,0.501,0.06,0.149,0.064,-0.54,0.385,0.37,0.015,-0.57
912,0.557,-0.004,0.17,0.131,-0.569,0.396,0.369,0.004,-0.556
913,0.613,-0.023,0.187,0.194,-0.613,0.425,0.369,0.004,-0.556
914,0.644,-0.04,0.207,0.235,-0.652,0.478,0.382,0.01,-0.547
915,0.656,-0.067,0.23,0.235,-0.652,0.478,0.358,0.024,-0.558
916,0.651,-0.103,0.248,0.259,-0.684,0.515,0.358,0.016,-0.564
917,0.65,-0.141,0.263,0.244,-0.706,0.556,0.358,0.016,-0.564
918,0.64,-0.17,0.266,0.185,-0.725,0.614,0.372,0.015,-0.558
919,0.616,-0.193,0.284,0.151,-0.761,0.653,0.351,-0.001,-0.546
920,0.564,-0.176,0.303,0.138,-0.821,0.676,0.351,-0.001,-0.546
921,0.564,-0.176,0.303,0.119,-0.906,0.717,0.352,0.01,-0.555
922,0.471,-0.135,0.317,0.183,-1.008,0.728,0.37,-0.007,-0.561
923,0.34,-0.079,0.305,0.293,-1.14,0.715,0.37,0.004,-0.555
924,0.155,-0.007,0.281,0.329,-1.31,0.736,0.37,0.004,-0.555
925,-0.044,0.036,0.265,0.362,-1.404,0.712,0.346,0.015,-0.532
926,-0.148,0.026,0.254,0.391,-1.374,0.626,0.342,0.013,-0.543
927,-0.149,0.084,0.209,0.342,-1.235,0.577,0.348,0.013,-0.531
928,-0.108,0.319,0.153,0.18,-0.973,0.65,0.354,0.019,-0.552
929,-0.076,0.616,0.103,-0.061,-0.64,0.768,0.351,0.015,-0.549
930,0.025,0.767,0.063,-0.196,-0.356,0.793,0.384,0.025,-0.543
931,0.203,0.725,0.032,-0.22,-0.251,0.709,0.384,0.025,-0.543
932,0.373,0.539,0.028,-0.202,-0.375,0.599,0.366,0.021,-0.54
933,0.456,0.246,0.045,-0.078,-0.659,0.464,0.361,0.012,-0.531
934,0.396,-0.045,0.104,0.101,-1.075,0.315,0.361,0.012,-0.531
935,0.193,-0.282,0.075,0.249,-1.566,0.231,0.379,0.022,-0.552
936,-0.019,-0.393,-0.035,0.249,-1.566,0.231,0.388,0.009,-0.54
937,-0.11,-0.323,-0.104,0.323,-1.899,0.201,0.382,0.015,-0.531
938,-0.16,-0.167,-0.151,0.279,-1.905,0.219,0.382,0.015,-0.531
939,-0.195,-0.205,-0.151,0.216,-1.616,0.314,0.358,0.009,-0.538
940,-0.195,-0.205,-0.151,0.081,-1.139,0.323,0.369,0.018,-0.534
941,-0.11,-0.425,-0.183,-0.142,-0.722,0.091,0.363,0.004,-0.534
942,0.021,-0.51,-0.26,-0.239,-0.533,-0.053,0.363,0.016,-0.547
943,0.103,-0.487,-0.311,-0.183,-0.484,0.099,0.367,0.022,-0.517
944,0.105,-0.582,-0.318,-0.004,-0.533,0.273,0.36,0.016,-0.525
945,0.168,-0.96,-0.271,0.202,-0.636,0.219,0.36,0.016,-0.525
946,0.331,-1.523,-0.191,0.38,-0.78,-0.041,0.357,0.021,-0.504
947,0.494,-1.906,-0.107,0.565,-0.994,-0.33,0.328,0.006,-0.486
948,0.585,-1.843,0.021,0.71,-1.189,-0.462,0.328,0.006,-0.486
949,0.578,-1.425,0.156,0.769,-1.264,-0.351,0.334,0.007,-0.492
950,0.501,-0.994,0.241,0.666,-1.207,-0.069,0.319,0.007,-0.484
951,0.368,-0.833,0.247,0.433,-1.045,0.187,0.312,0.004,-0.475
952,0.306,-0.823,0.175,0.241,-0.876,0.271,0.312,0.004,-0.475
953,0.283,-0.8,0.056,0.126,-0.792,0.203,0.31,0.006,-0.472
954,0.36,-0.881,-0.004,0.026,-0.731,0.162,0.307,0.004,-0.49
955,0.408,-1.096,-0.063,-0.012,-0.749,0.21,0.316,0.003,-0.478
956,0.385,-1.357,-0.106,-0.012,-0.749,0.21,0.303,-0.006,-0.447
957,0.382,-1.589,-0.149,0.011,-0.837,0.284,0.295,-0.007,-0.447
958,0.417,-1.633,-0.151,0.131,-0.864,0.164,0.309,-0.001,-0.432
959,0.417,-1.633,-0.151,0.321,-0.873,-0.089,0.309,-0.001,-0.432
960,0.562,-1.306,-0.06,0.484,-0.908,-0.228,0.3,-0.016,-0.445
961,0.562,-1.306,-0.06,0.604,-0.939,-0.28,0.276,-0.018,-0.411
962,0.651,-1.066,0.016,0.66,-0.929,-0.298,0.276,-0.018,-0.411
963,0.637,-0.871,0.017,0.63,-0.886,-0.248,0.283,0.001,-0.396
964,0.651,-0.644,0.024,0.532,-0.846,-0.149,0.28,-0.018,-0.388
965,0.681,-0.52,0.025,0.408,-0.821,-0.024,0.273,-0.004,-0.406
966,0.653,-0.496,-0.023,0.3,-0.8,0.072,0.273,-0.004,-0.406
967,0.613,-0.471,-0.087,0.252,-0.811,0.087,0.267,-0.015,-0.388
968,0.58,-0.452,-0.126,0.239,-0.824,0.089,0.294,-0.013,-0.375
969,0.54,-0.466,-0.136,0.249,-0.847,0.069,0.262,0.006,-0.391
970,0.489,-0.497,-0.129,0.281,-0.882,0.034,0.268,-0.034,-0.379
971,0.472,-0.547,-0.103,0.233,-0.866,0.081,0.265,-0.013,-0.358
972,0.378,-0.548,-0.193,0.32,-0.873,-0.004,0.268,-0.013,-0.363
973,0.397,-0.458,-0.182,0.427,-0.875,-0.132,0.268,-0.013,-0.363
974,0.394,-0.378,-0.199,0.359,-0.833,-0.132,0.279,-0.043,-0.366
975,0.424,-0.319,-0.211,0.359,-0.833,-0.132,0.264,-0.048,-0.357
976,0.435,-0.263,-0.209,0.33,-0.824,-0.136,0.264,-0.048,-0.357
977,0.429,-0.224,-0.213,0.313,-0.826,-0.088,0.262,-0.028,-0.361
978,0.415,-0.212,-0.216,0.298,-0.82,-0.047,0.268,-0.024,-0.352
979,0.415,-0.212,-0.216,0.287,-0.82,-0.015,0.28,-0.025,-0.354
980,0.43,-0.219,-0.211,0.29,-0.82,0.013,0.28,-0.025,-0.354
981,0.449,-0.249,-0.205,0.289,-0.817,0.034,0.267,-0.04,-0.355
982,0.467,-0.294,-0.207,0.279,-0.821,0.057,0.249,-0.036,-0.321
983,0.49,-0.338,-0.217,0.281,-0.826,0.062,0.249,-0.036,-0.321
984,0.513,-0.387,-0.232,0.292,-0.843,0.07,0.28,-0.021,-0.355
985,0.523,-0.447,-0.252,0.314,-0.877,0.087,0.276,-0.051,-0.339
986,0.51,-0.485,-0.268,0.339,-0.905,0.084,0.273,-0.054,-0.313
987,0.494,-0.49,-0.28,0.356,-0.909,0.057,0.273,-0.054,-0.313
988,0.476,-0.451,-0.286,0.364,-0.922,0.048,0.262,-0.052,-0.322
989,0.439,-0.403,-0.292,0.372,-0.939,0.051,0.285,-0.052,-0.303
990,0.39,-0.371,-0.303,0.389,-0.967,0.057,0.274,-0.054,-0.309
991,0.359,-0.391,-0.275,0.38,-0.998,0.063,0.264,-0.043,-0.319
992,0.3,-0.407,-0.252,0.36,-1.002,0.04,0.27,-0.055,-0.312
993,0.25,-0.383,-0.226,0.358,-1.006,0.038,0.261,-0.054,-0.309
994,0.156,-0.331,-0.233,0.401,-1.02,0.033,0.261,-0.054,-0.309
995,0.066,-0.277,-0.236,0.44,-1.048,0.045,0.277,-0.058,-0.301
996,0.022,-0.228,-0.201,0.44,-1.044,0.042,0.276,-0.061,-0.3
997,-0.03,-0.121,-0.181,0.459,-1.044,0.042,0.276,-0.061,-0.3
998,-0.082,0.014,-0.189,0.448,-1.027,0.021,0.277,-0.066,-0.289
999,-0.116,0.145,-0.204,0.393,-1.067,0.074,0.265,-0.064,-0.286
1000,-0.116,0.145,-0.204,0.359,-1.109,0.193,0.274,-0.069,-0.28
1001,-0.145,0.172,-0.212,0.333,-1.094,0.34,0.274,-0.069,-0.28
1002,-0.196,0.071,-0.233,0.325,-1.034,0.387,0.253,-0.064,-0.283
1003,-0.245,-0.026,-0.27,0.348,-0.949,0.288,0.27,-0.066,-0.309
1004,-0.311,-0.064,-0.291,0.421,-0.911,0.174,0.267,-0.081,-0.306
1005,-0.426,-0.125,-0.291,0.502,-0.978,0.021,0.28,-0.067,-0.304
1006,-0.515,0.048,-0.273,0.605,-1.104,-0.191,0.265,-0.066,-0.31
1007,-0.597,0.365,-0.194,0.745,-1.208,-0.219,0.261,-0.082,-0.318
1008,-0.702,0.569,-0.06,0.718,-1.211,-0.11,0.261,-0.082,-0.318
1009,-0.846,0.747,0.033,0.578,-1.154,-0.095,0.28,-0.081,-0.318
1010,-0.936,1.012,0.121,0.561,-1.161,-0.257,0.274,-0.093,-0.33
1011,-0.983,1.187,0.227,0.457,-1.245,-0.289,0.274,-0.093,-0.33
1012,-1.083,1.191,0.224,0.22,-1.327,-0.133,0.274,-0.054,-0.313
1013,-1.169,1.062,0.242,0.112,-1.412,-0.043,0.292,-0.06,-0.352
1014,-1.22,0.814,0.326,0.082,-1.526,0.016,0.265,-0.061,-0.349
1015,-1.181,0.513,0.413,0.082,-1.526,0.016,0.265,-0.061,-0.349
1016,-1.129,0.208,0.424,0.004,-1.518,0.027,0.276,-0.06,-0.373
1017,-1.231,-0.144,0.406,-0.056,-1.488,0.07,0.264,-0.048,-0.367
1018,-1.317,-0.434,0.4,-0.017,-1.539,0.106,0.268,-0.037,-0.379
1019,-1.423,-0.662,0.357,0.014,-1.487,0.096,0.279,-0.037,-0.372
1020,-1.423,-0.662,0.357,0.037,-1.355,0.024,0.271,-0.045,-0.379
1021,-1.46,-0.683,0.347,0.131,-1.233,-0.092,0.262,-0.034,-0.381
1022,-1.43,-0.628,0.429,0.187,-1.129,-0.15,0.262,-0.034,-0.381
1023,-1.418,-0.322,0.361,0.198,-1.019,-0.199,0.259,-0.04,-0.391
1024,-1.32,0.236,0.242,0.202,-0.945,-0.281,0.255,-0.028,-0.358
1025,-1.114,0.563,0.237,0.285,-0.935,-0.3,0.255,-0.028,-0.358
1026,-1.008,0.62,0.34,0.418,-0.979,0.032,0.265,-0.016,-0.403
1027,-0.856,0.926,0.436,0.694,-1.022,-0.539,0.255,-0.021,-0.409
1028,-0.919,1.269,0.428,0.591,-1.012,-0.734,0.274,0.006,-0.414
1029,-1.025,1.624,0.301,0.272,-0.948,-0.13,0.274,0.006,-0.414
1030,-1.091,2.039,0.219,0.271,-0.86,-0.132,0.276,0.0,-0.427
1031,-0.99,2.247,0.221,0.201,-0.781,-0.012,0.289,-0.012,-0.445
1032,-0.823,2.198,0.222,0.128,-0.699,0.096,0.285,0.016,-0.45
1033,-0.676,2.046,0.205,0.074,-0.672,0.162,0.285,0.003,-0.456
1034,-0.541,2.004,0.189,0.074,-0.672,0.162,0.307,-0.009,-0.477
1035,-0.495,2.01,0.191,0.026,-0.718,0.161,0.315,-0.003,-0.48
1036,-0.403,2.081,0.224,0.003,-0.79,0.177,0.315,-0.003,-0.48
1037,-0.303,1.841,0.214,-0.063,-0.775,0.164,0.319,0.025,-0.49
1038,-0.268,1.636,0.208,-0.05,-0.765,0.152,0.316,0.027,-0.49
1039,-0.171,1.498,0.258,0.025,-0.766,0.121,0.343,0.01,-0.513
1040,-0.171,1.498,0.258,0.008,-0.705,0.114,0.351,0.001,-0.516
1041,-0.094,1.31,0.284,-0.004,-0.651,0.168,0.366,0.021,-0.529
1042,-0.051,1.098,0.276,-0.007,-0.605,0.21,0.352,-0.001,-0.54
1043,-0.028,0.872,0.236,-0.019,-0.573,0.253,0.352,-0.001,-0.54
1044,0.011,0.683,0.199,-0.022,-0.552,0.264,0.361,-0.001,-0.543
1045,0.079,0.533,0.18,-0.017,-0.554,0.277,0.361,0.006,-0.54
1046,0.154,0.427,0.177,-0.01,-0.546,0.293,0.361,0.006,-0.54
1047,0.247,0.347,0.189,-0.006,-0.54,0.318,0.37,0.031,-0.534
1048,0.353,0.273,0.207,-0.001,-0.535,0.354,0.355,0.01,-0.532
1049,0.457,0.194,0.228,-0.001,-0.502,0.361,0.352,0.004,-0.549
1050,0.543,0.107,0.235,0.017,-0.484,0.361,0.352,0.004,-0.549
1051,0.609,0.007,0.235,0.069,-0.509,0.382,0.366,-0.004,-0.532
1052,0.652,-0.072,0.226,0.123,-0.568,0.442,0.378,0.013,-0.516
1053,0.662,-0.128,0.238,0.181,-0.639,0.509,0.37,0.013,-0.532
1054,0.641,-0.159,0.252,0.238,-0.696,0.542,0.36,0.018,-0.525
1055,0.607,-0.153,0.275,0.238,-0.696,0.542,0.363,-0.004,-0.516
1056,0.575,-0.119,0.31,0.257,-0.734,0.588,0.363,-0.01,-0.501
1057,0.571,-0.07,0.343,0.236,-0.761,0.643,0.363,-0.01,-0.501
1058,0.586,-0.021,0.402,0.227,-0.81,0.713,0.367,0.0,-0.52
1059,0.586,-0.021,0.402,0.244,-0.853,0.787,0.354,-0.015,-0.499
1060,0.598,0.042,0.469,0.292,-0.889,0.835,0.354,-0.015,-0.499
1061,0.554,0.149,0.497,0.341,-0.942,0.9,0.361,-0.021,-0.508
1062,0.422,0.216,0.474,0.367,-0.988,0.939,0.348,-0.024,-0.505
1063,0.235,0.217,0.415,0.386,-1.084,0.891,0.349,-0.013,-0.514
1064,0.043,0.147,0.35,0.432,-1.18,0.779,0.349,-0.013,-0.514
1065,-0.057,0.06,0.319,0.461,-1.187,0.643,0.352,-0.031,-0.52
1066,-0.077,0.16,0.259,0.354,-1.06,0.583,0.36,-0.036,-0.531
1067,-0.058,0.511,0.136,0.137,-0.797,0.621,0.351,-0.018,-0.507
1068,0.016,0.9,0.035,-0.106,-0.471,0.671,0.354,-0.021,-0.508
1069,0.175,1.05,0.0,-0.256,-0.236,0.667,0.384,-0.006,-0.525
1070,0.343,0.934,-0.002,-0.291,-0.224,0.576,0.376,-0.025,-0.526
1071,0.433,0.631,0.025,-0.279,-0.48,0.454,0.376,-0.025,-0.526
1072,0.36,0.17,0.075,-0.138,-1.023,0.315,0.37,-0.03,-0.534
1073,0.154,-0.169,0.108,0.1,-1.676,0.188,0.375,-0.039,-0.505
1074,-0.137,-0.215,-0.012,0.1,-1.676,0.188,0.375,-0.039,-0.505
1075,-0.337,-0.013,-0.215,0.24,-1.995,0.167,0.364,-0.042,-0.522
1076,-0.395,0.301,-0.3,0.309,-1.998,0.209,0.387,-0.027,-0.52
1077,-0.411,0.242,-0.198,0.39,-1.889,0.337,0.382,-0.042,-0.544
1078,-0.411,0.242,-0.198,0.29,-1.322,0.349,0.382,-0.042,-0.544
1079,-0.186,-0.382,-0.098,-0.12,-0.58,-0.032,0.381,-0.04,-0.534
1080,0.156,-0.802,-0.167,-0.418,-0.278,-0.289,0.37,-0.057,-0.531
1081,0.236,-0.796,-0.299,-0.352,-0.33,-0.062,0.387,-0.046,-0.523
1082,0.069,-0.721,-0.387,-0.159,-0.498,0.181,0.372,-0.045,-0.526
1083,-0.081,-0.865,-0.394,0.005,-0.649,0.142,0.363,-0.052,-0.505
1084,0.023,-1.327,-0.315,0.125,-0.765,-0.061,0.37,-0.058,-0.531
1085,0.348,-1.852,-0.212,0.228,-0.934,-0.277,0.37,-0.058,-0.531
1086,0.661,-2.097,-0.109,0.419,-1.178,-0.421,0.355,-0.037,-0.501
1087,0.78,-1.839,0.014,0.733,-1.41,-0.348,0.352,-0.088,-0.478
1088,0.744,-1.429,0.188,0.955,-1.465,-0.111,0.352,-0.088,-0.478
1089,0.612,-1.204,0.312,0.892,-1.331,0.144,0.333,-0.075,-0.477
1090,0.449,-1.119,0.347,0.592,-1.067,0.27,0.342,-0.075,-0.48
1091,0.349,-1.008,0.257,0.238,-0.784,0.272,0.33,-0.09,-0.469
1092,0.343,-0.974,0.077,-0.007,-0.637,0.299,0.33,-0.09,-0.469
1093,0.31,-1.167,-0.084,-0.099,-0.642,0.363,0.331,-0.093,-0.468
1094,0.322,-1.447,-0.202,-0.022,-0.68,0.273,0.304,-0.094,-0.445
1095,0.448,-1.748,-0.205,-0.022,-0.68,0.273,0.304,-0.094,-0.445
1096,0.571,-1.848,-0.21,0.118,-0.726,0.062,0.328,-0.096,-0.442
1097,0.583,-1.68,-0.188,0.271,-0.838,-0.117,0.301,-0.093,-0.438
1098,0.583,-1.68,-0.188,0.429,-0.938,-0.27,0.304,-0.111,-0.429
1099,0.518,-1.454,-0.152,0.524,-0.979,-0.326,0.304,-0.111,-0.429
1100,0.555,-1.214,-0.082,0.617,-0.957,-0.415,0.306,-0.088,-0.415
1101,0.651,-0.936,0.004,0.619,-0.948,-0.366,0.282,-0.097,-0.393
1102,0.673,-0.692,0.055,0.506,-0.945,-0.167,0.304,-0.103,-0.396
1103,0.669,-0.64,0.057,0.364,-0.891,0.005,0.309,-0.126,-0.403
1104,0.693,-0.701,0.08,0.253,-0.846,0.135,0.31,-0.118,-0.403
1105,0.68,-0.812,0.066,0.192,-0.814,0.151,0.306,-0.088,-0.385
1106,0.613,-0.861,0.028,0.171,-0.798,0.102,0.306,-0.088,-0.385
1107,0.523,-0.913,-0.007,0.19,-0.797,0.048,0.286,-0.109,-0.372
1108,0.518,-0.943,-0.03,0.235,-0.792,-0.05,0.285,-0.117,-0.354
1109,0.424,-0.995,-0.097,0.248,-0.749,-0.079,0.285,-0.117,-0.354
1110,0.382,-0.877,-0.129,0.335,-0.748,-0.109,0.283,-0.126,-0.364
1111,0.329,-0.729,-0.186,0.395,-0.797,-0.146,0.273,-0.132,-0.351
1112,0.31,-0.618,-0.221,0.382,-0.82,-0.098,0.295,-0.133,-0.346
1113,0.331,-0.55,-0.223,0.411,-0.83,-0.104,0.295,-0.133,-0.346
1114,0.357,-0.459,-0.227,0.411,-0.83,-0.104,0.294,-0.126,-0.331
1115,0.407,-0.433,-0.21,0.403,-0.832,-0.089,0.289,-0.118,-0.325
1116,0.437,-0.432,-0.207,0.365,-0.833,-0.022,0.288,-0.135,-0.327
1117,0.443,-0.411,-0.214,0.326,-0.834,0.015,0.28,-0.138,-0.33
1118,0.443,-0.411,-0.214,0.299,-0.843,0.03,0.291,-0.133,-0.328
1119,0.449,-0.396,-0.237,0.275,-0.851,0.063,0.288,-0.153,-0.336
1120,0.445,-0.408,-0.266,0.266,-0.852,0.075,0.288,-0.153,-0.336
1121,0.457,-0.412,-0.301,0.274,-0.85,0.075,0.286,-0.132,-0.301
1122,0.474,-0.41,-0.328,0.287,-0.855,0.087,0.294,-0.135,-0.286
1123,0.49,-0.427,-0.345,0.299,-0.858,0.097,0.294,-0.135,-0.286
1124,0.497,-0.438,-0.352,0.328,-0.858,0.102,0.295,-0.147,-0.288
1125,0.487,-0.444,-0.355,0.358,-0.872,0.104,0.274,-0.165,-0.3
1126,0.469,-0.453,-0.351,0.381,-0.892,0.084,0.303,-0.141,-0.303
1127,0.42,-0.444,-0.347,0.4,-0.894,0.047,0.303,-0.141,-0.303
1128,0.347,-0.438,-0.355,0.413,-0.92,0.032,0.304,-0.162,-0.289
1129,0.31,-0.434,-0.312,0.391,-0.966,0.047,0.294,-0.147,-0.289
1130,0.254,-0.429,-0.267,0.346,-1.007,0.07,0.298,-0.16,-0.285
1131,0.166,-0.434,-0.251,0.335,-1.054,0.088,0.297,-0.159,-0.294
1132,0.093,-0.408,-0.218,0.335,-1.083,0.088,0.31,-0.169,-0.27
1133,-0.01,-0.396,-0.186,0.351,-1.083,0.101,0.315,-0.178,-0.291
1134,-0.081,-0.38,-0.173,0.354,-1.085,0.117,0.315,-0.178,-0.291
1135,-0.124,-0.247,-0.217,0.321,-1.061,0.078,0.322,-0.166,-0.288
1136,-0.171,-0.073,-0.261,0.29,-1.047,0.055,0.276,-0.181,-0.258
1137,-0.21,0.002,-0.272,0.32,-1.077,0.126,0.276,-0.181,-0.258
1138,-0.21,0.002,-0.272,0.415,-1.1,0.204,0.313,-0.175,-0.255
1139,-0.227,-0.044,-0.238,0.514,-1.068,0.205,0.321,-0.187,-0.267
1140,-0.257,-0.144,-0.204,0.575,-1.024,0.109,0.322,-0.172,-0.277
1141,-0.305,-0.174,-0.144,0.642,-1.05,-0.025,0.322,-0.172,-0.277
1142,-0.34,-0.062,-0.084,0.661,-1.105,-0.116,0.318,-0.193,-0.285
1143,-0.364,0.167,-0.032,0.663,-1.148,-0.135,0.328,-0.172,-0.279
1144,-0.46,0.463,0.009,0.745,-1.198,-0.138,0.316,-0.186,-0.277
1145,-0.557,0.632,0.136,0.722,-1.266,-0.13,0.336,-0.184,-0.301
1146,-0.758,0.721,0.183,0.417,-1.298,-0.047,0.315,-0.186,-0.31
1147,-1.012,0.767,0.128,0.154,-1.293,0.006,0.292,-0.193,-0.319
1148,-1.164,0.829,0.116,0.152,-1.282,-0.068,0.292,-0.193,-0.319
1149,-1.166,0.91,0.17,0.211,-1.305,-0.145,0.319,-0.189,-0.336
1150,-1.141,0.976,0.27,0.233,-1.39,-0.143,0.309,-0.192,-0.312
1151,-1.085,0.952,0.315,0.164,-1.408,-0.083,0.309,-0.192,-0.312
1152,-1.085,0.751,0.335,0.079,-1.411,0.032,0.333,-0.184,-0.384
1153,-1.134,0.372,0.364,0.079,-1.411,0.032,0.291,-0.154,-0.409
1154,-1.178,0.02,0.333,0.043,-1.415,0.107,0.313,-0.165,-0.402
1155,-1.341,-0.212,0.238,0.02,-1.359,0.077,0.313,-0.165,-0.402
1156,-1.545,-0.301,0.263,0.032,-1.331,0.034,0.303,-0.171,-0.402
1157,-1.605,-0.317,0.34,0.08,-1.301,-0.006,0.298,-0.171,-0.423
1158,-1.605,-0.317,0.34,0.111,-1.214,-0.067,0.304,-0.156,-0.409
1159,-1.68,-0.164,0.247,0.135,-1.149,-0.11,0.297,-0.156,-0.418
1160,-1.626,0.07,0.203,0.24,-1.123,-0.211,0.294,-0.138,-0.439
1161,-1.341,0.274,0.266,0.323,-1.118,-0.227,0.309,-0.144,-0.442
1162,-1.139,0.57,0.243,0.339,-1.088,-0.227,0.309,-0.144,-0.442
1163,-1.096,0.935,0.259,0.401,-1.057,-0.232,0.28,-0.138,-0.457
1164,-1.228,1.104,0.338,0.406,-1.072,0.058,0.301,-0.12,-0.463
1165,-1.356,1.167,0.302,0.413,-1.047,-0.337,0.289,-0.12,-0.486
1166,-1.227,1.517,0.334,0.378,-0.981,-0.576,0.312,-0.096,-0.51
1167,-1.229,2.062,0.296,0.275,-0.935,-0.116,0.304,-0.093,-0.513
1168,-1.2,2.285,0.343,0.205,-0.83,-0.034,0.318,-0.082,-0.519
1169,-0.917,2.258,0.371,0.151,-0.706,0.054,0.318,-0.082,-0.519
1170,-0.682,2.083,0.411,0.152,-0.736,0.2,0.312,-0.103,-0.555
1171,-0.574,1.902,0.457,0.143,-0.81,0.276,0.355,-0.082,-0.559
1172,-0.459,1.775,0.488,0.114,-0.821,0.24,0.355,-0.082,-0.559
1173,-0.354,1.723,0.492,0.114,-0.821,0.24,0.367,-0.09,-0.579
1174,-0.295,1.721,0.429,0.067,-0.78,0.169,0.363,-0.084,-0.564
1175,-0.184,1.698,0.361,0.016,-0.706,0.157,0.387,-0.06,-0.588
1176,-0.005,1.519,0.182,-0.025,-0.646,0.17,0.387,-0.06,-0.588
1177,0.0,1.497,0.259,-0.07,-0.589,0.17,0.37,-0.063,-0.6
1178,0.0,1.497,0.259,-0.083,-0.526,0.146,0.379,-0.075,-0.589
1179,0.067,1.307,0.207,-0.08,-0.467,0.152,0.405,-0.064,-0.606
1180,0.13,1.096,0.153,-0.073,-0.428,0.178,0.411,-0.067,-0.61
1181,0.182,0.905,0.098,-0.069,-0.414,0.208,0.42,-0.054,-0.597
1182,0.244,0.734,0.066,-0.06,-0.428,0.246,0.412,-0.066,-0.631
1183,0.336,0.574,0.067,-0.052,-0.443,0.27,0.412,-0.066,-0.631
1184,0.444,0.425,0.083,-0.053,-0.441,0.296,0.424,-0.075,-0.609
1185,0.536,0.295,0.1,-0.048,-0.448,0.324,0.415,-0.072,-0.613
1186,0.627,0.173,0.119,-0.027,-0.447,0.34,0.415,-0.072,-0.613
1187,0.719,0.067,0.149,0.011,-0.447,0.366,0.423,-0.081,-0.621
1188,0.801,-0.016,0.181,0.042,-0.458,0.412,0.412,-0.094,-0.589
1189,0.87,-0.059,0.196,0.079,-0.479,0.468,0.42,-0.094,-0.607
1190,0.921,-0.083,0.204,0.122,-0.523,0.538,0.42,-0.094,-0.607
1191,0.941,-0.074,0.214,0.168,-0.61,0.626,0.415,-0.099,-0.603
1192,0.94,-0.053,0.235,0.168,-0.61,0.626,0.411,-0.087,-0.61
1193,0.928,-0.059,0.301,0.211,-0.701,0.719,0.436,-0.091,-0.592
1194,0.861,-0.023,0.352,0.245,-0.8,0.808,0.432,-0.114,-0.586
1195,0.691,0.055,0.378,0.294,-0.912,0.917,0.408,-0.096,-0.588
1196,0.512,0.055,0.378,0.34,-1.034,1.033,0.423,-0.114,-0.579
1197,0.399,0.125,0.386,0.374,-1.22,1.112,0.423,-0.114,-0.579
1198,0.049,0.067,0.343,0.414,-1.421,1.054,0.418,-0.118,-0.562
1199,-0.176,-0.152,0.308,0.476,-1.509,0.809,0.412,-0.109,-0.571
1200,-0.218,-0.137,0.304,0.513,-1.448,0.585,0.412,-0.109,-0.571
1201,-0.167,0.307,0.285,0.269,-1.214,0.564,0.402,-0.112,-0.576
1202,-0.084,0.935,0.191,-0.187,-0.697,0.616,0.432,-0.105,-0.577
1203,0.082,1.295,0.075,-0.475,-0.221,0.61,0.442,-0.111,-0.582
1204,0.26,1.204,-0.039,-0.473,-0.231,0.541,0.442,-0.111,-0.582
1205,0.257,0.733,-0.074,-0.249,-0.67,0.363,0.439,-0.102,-0.6
1206,0.163,0.182,-0.101,0.059,-1.373,0.161,0.433,-0.105,-0.567
1207,-0.102,-0.029,-0.2,0.309,-1.889,0.012,0.439,-0.124,-0.591
1208,-0.385,0.131,-0.345,0.319,-1.997,0.084,0.457,-0.108,-0.597
1209,-0.513,0.55,-0.344,0.333,-1.967,0.443,0.454,-0.118,-0.621
1210,-0.555,0.54,-0.145,0.303,-1.365,0.6,0.462,-0.106,-0.604
1211,-0.222,-0.357,0.053,-0.106,-0.478,0.083,0.462,-0.106,-0.604
1212,0.229,-0.992,0.025,-0.106,-0.156,-0.369,0.462,-0.09,-0.601
1213,0.334,-0.944,-0.119,-0.442,-0.156,-0.369,0.447,-0.103,-0.571
1214,0.116,-0.709,-0.245,-0.388,-0.249,-0.131,0.447,-0.103,-0.571
1215,-0.084,-0.723,-0.296,-0.143,-0.45,0.176,0.445,-0.105,-0.579
1216,0.011,-1.174,-0.249,0.11,-0.606,0.174,0.444,-0.103,-0.612
1217,0.011,-1.174,-0.249,0.272,-0.706,-0.023,0.438,-0.117,-0.595
1218,0.366,-1.663,-0.179,0.351,-0.882,-0.242,0.438,-0.117,-0.595
1219,0.699,-1.807,-0.128,0.502,-1.187,-0.393,0.411,-0.108,-0.577
1220,0.826,-1.495,-0.021,0.752,-1.459,-0.351,0.391,-0.121,-0.555
1221,0.737,-1.047,0.11,0.894,-1.511,-0.125,0.391,-0.121,-0.555
1222,0.562,-0.736,0.227,0.763,-1.337,0.126,0.408,-0.12,-0.553
1223,0.362,-0.719,0.264,0.42,-1.045,0.302,0.388,-0.123,-0.555
1224,0.294,-0.737,0.189,0.092,-0.755,0.3,0.399,-0.115,-0.561
1225,0.417,-0.711,0.085,-0.094,-0.624,0.275,0.399,-0.115,-0.561
1226,0.398,-0.903,-0.03,-0.18,-0.66,0.395,0.393,-0.115,-0.544
1227,0.373,-1.211,-0.109,-0.125,-0.775,0.405,0.364,-0.142,-0.525
1228,0.43,-1.584,-0.069,0.053,-0.873,0.228,0.384,-0.12,-0.523
1229,0.591,-1.776,0.025,0.262,-0.925,-0.05,0.351,-0.133,-0.537
1230,0.671,-1.66,0.084,0.44,-1.015,-0.207,0.369,-0.133,-0.505
1231,0.606,-1.46,0.098,0.543,-1.036,-0.212,0.358,-0.144,-0.498
1232,0.648,-1.288,0.138,0.543,-1.036,-0.212,0.358,-0.144,-0.498
1233,0.732,-1.11,0.22,0.644,-0.96,-0.271,0.343,-0.124,-0.52
1234,0.707,-0.991,0.244,0.657,-0.924,-0.208,0.331,-0.135,-0.48
1235,0.712,-0.88,0.203,0.546,-0.868,-0.106,0.331,-0.135,-0.48
1236,0.703,-0.831,0.139,0.375,-0.775,0.047,0.324,-0.138,-0.481
1237,0.703,-0.831,0.139,0.245,-0.741,0.143,0.316,-0.15,-0.474
1238,0.751,-0.812,0.122,0.197,-0.768,0.103,0.319,-0.135,-0.454
1239,0.743,-0.808,0.052,0.17,-0.817,0.098,0.319,-0.135,-0.454
1240,0.71,-0.841,0.072,0.178,-0.852,0.057,0.327,-0.135,-0.453
1241,0.707,-0.851,0.042,0.175,-0.836,-0.049,0.327,-0.157,-0.444
1242,0.578,-0.799,-0.1,0.23,-0.811,-0.12,0.292,-0.136,-0.429
1243,0.519,-0.69,-0.117,0.279,-0.859,-0.101,0.3,-0.133,-0.435
1244,0.431,-0.618,-0.168,0.275,-0.897,-0.06,0.31,-0.148,-0.436
1245,0.418,-0.599,-0.196,0.297,-0.861,-0.037,0.313,-0.15,-0.421
1246,0.441,-0.609,-0.207,0.258,-0.807,-0.037,0.313,-0.15,-0.421
1247,0.454,-0.578,-0.219,0.244,-0.79,-0.047,0.315,-0.148,-0.409
1248,0.468,-0.536,-0.246,0.292,-0.802,-0.061,0.286,-0.141,-0.397
1249,0.492,-0.519,-0.264,0.312,-0.819,-0.06,0.286,-0.141,-0.397
1250,0.522,-0.521,-0.278,0.325,-0.835,-0.057,0.307,-0.163,-0.405
1251,0.55,-0.525,-0.308,0.325,-0.835,-0.057,0.306,-0.159,-0.402
1252,0.586,-0.518,-0.317,0.334,-0.84,-0.033,0.303,-0.162,-0.396
1253,0.586,-0.535,-0.357,0.33,-0.847,-0.003,0.303,-0.162,-0.396
1254,0.61,-0.522,-0.353,0.332,-0.852,0.025,0.324,-0.166,-0.366
1255,0.61,-0.522,-0.353,0.341,-0.854,0.056,0.298,-0.171,-0.367
1256,0.585,-0.476,-0.366,0.349,-0.872,0.118,0.325,-0.174,-0.358
1257,0.585,-0.476,-0.366,0.388,-0.877,0.128,0.315,-0.172,-0.369
1258,0.569,-0.441,-0.355,0.423,-0.879,0.106,0.321,-0.165,-0.379
1259,0.518,-0.41,-0.364,0.447,-0.89,0.103,0.319,-0.189,-0.355
1260,0.476,-0.355,-0.355,0.464,-0.887,0.078,0.319,-0.189,-0.355
1261,0.366,-0.318,-0.372,0.484,-0.893,0.037,0.319,-0.181,-0.364
1262,0.317,-0.284,-0.329,0.476,-0.923,0.023,0.33,-0.19,-0.348
1263,0.246,-0.283,-0.296,0.453,-0.983,0.065,0.33,-0.19,-0.348
1264,0.14,-0.305,-0.278,0.482,-1.023,0.072,0.313,-0.178,-0.369
1265,0.037,-0.296,-0.252,0.484,-1.033,0.07,0.328,-0.196,-0.376
1266,-0.058,-0.257,-0.243,0.412,-1.034,0.085,0.34,-0.18,-0.352
1267,-0.133,-0.123,-0.256,0.317,-1.05,0.099,0.34,-0.18,-0.352
1268,-0.182,0.037,-0.266,0.275,-1.102,0.158,0.345,-0.174,-0.348
1269,-0.232,0.053,-0.259,0.266,-1.128,0.289,0.325,-0.19,-0.355
1270,-0.268,-0.056,-0.218,0.28,-1.077,0.319,0.325,-0.181,-0.352
1271,-0.315,-0.167,-0.185,0.319,-1.011,0.194,0.333,-0.214,-0.379
1272,-0.421,-0.259,-0.144,0.319,-1.011,0.194,0.336,-0.195,-0.367
1273,-0.481,-0.163,-0.135,0.376,-1.035,0.045,0.348,-0.196,-0.355
1274,-0.599,0.168,-0.171,0.398,-1.139,-0.088,0.348,-0.196,-0.355
1275,-0.672,0.454,-0.08,0.504,-1.259,-0.123,0.334,-0.189,-0.361
1276,-0.778,0.672,0.035,0.652,-1.323,-0.195,0.312,-0.169,-0.375
1277,-0.956,0.791,0.105,0.4,-1.365,-0.143,0.327,-0.169,-0.4
1278,-1.165,0.905,0.143,0.152,-1.354,-0.11,0.352,-0.184,-0.429
1279,-1.248,0.963,0.231,0.142,-1.328,-0.098,0.348,-0.183,-0.438
1280,-1.17,0.875,0.392,0.203,-1.306,-0.118,0.348,-0.183,-0.438
1281,-1.069,0.774,0.436,0.19,-1.361,-0.083,0.342,-0.183,-0.435
1282,-1.192,0.613,0.402,0.182,-1.509,0.046,0.336,-0.178,-0.439
1283,-1.341,0.356,0.427,0.198,-1.571,0.111,0.334,-0.133,-0.457
1284,-1.39,0.001,0.432,0.165,-1.526,0.096,0.334,-0.133,-0.457
1285,-1.496,-0.324,0.333,0.097,-1.473,0.041,0.333,-0.136,-0.475
1286,-1.668,-0.408,0.247,0.103,-1.389,-0.082,0.351,-0.142,-0.483
1287,-1.794,-0.23,0.252,0.17,-1.269,-0.178,0.351,-0.142,-0.483
1288,-1.75,-0.128,0.344,0.205,-1.17,-0.13,0.319,-0.115,-0.478
1289,-1.59,-0.011,0.368,0.175,-1.086,-0.163,0.34,-0.118,-0.489
1290,-1.234,0.315,0.292,0.158,-1.032,-0.312,0.316,-0.1,-0.484
1291,-1.026,0.77,0.191,0.158,-1.032,-0.312,0.33,-0.09,-0.525
1292,-1.122,0.991,0.128,0.215,-1.074,-0.303,0.334,-0.088,-0.514
1293,-1.183,0.922,0.179,0.273,-1.111,-0.107,0.328,-0.096,-0.538
1294,-1.183,0.922,0.179,0.358,-1.073,0.037,0.328,-0.096,-0.538
1295,-1.236,1.093,0.273,0.417,-1.084,-0.047,0.345,-0.088,-0.54
1296,-1.257,1.208,0.345,0.302,-1.065,0.046,0.34,-0.075,-0.532
1297,-1.148,1.619,0.277,0.205,-1.05,0.114,0.337,-0.066,-0.543
1298,-1.019,1.815,0.383,0.236,-1.01,-0.058,0.337,-0.066,-0.543
1299,-1.004,2.033,0.428,0.237,-0.909,-0.035,0.373,-0.046,-0.564
1300,-0.906,2.095,0.478,0.194,-0.849,0.072,0.394,-0.037,-0.583
1301,-0.749,2.004,0.553,0.112,-0.783,0.139,0.394,-0.037,-0.583
1302,-0.622,1.915,0.609,0.068,-0.811,0.205,0.367,-0.016,-0.606
1303,-0.405,1.708,0.749,0.034,-0.815,0.17,0.406,-0.024,-0.598
1304,-0.291,1.688,0.601,-0.081,-0.65,0.162,0.405,-0.025,-0.589
1305,-0.2,1.489,0.502,-0.133,-0.554,0.207,0.42,-0.019,-0.598
1306,-0.073,1.299,0.448,-0.115,-0.551,0.197,0.426,-0.003,-0.601
1307,0.026,1.167,0.385,-0.109,-0.498,0.192,0.427,-0.021,-0.622
1308,0.094,1.024,0.319,-0.099,-0.455,0.196,0.427,-0.021,-0.622
1309,0.151,0.865,0.256,-0.074,-0.417,0.213,0.423,-0.01,-0.613
1310,0.212,0.693,0.189,-0.074,-0.417,0.213,0.432,-0.007,-0.612
1311,0.29,0.507,0.143,-0.046,-0.37,0.241,0.435,-0.012,-0.609
1312,0.377,0.345,0.121,-0.02,-0.351,0.272,0.435,-0.012,-0.609
1313,0.478,0.217,0.112,-0.006,-0.348,0.283,0.444,-0.01,-0.622
1314,0.478,0.217,0.112,-0.009,-0.334,0.278,0.453,-0.025,-0.606
1315,0.591,0.13,0.115,-0.006,-0.318,0.281,0.453,-0.025,-0.606
1316,0.693,0.051,0.127,-0.001,-0.337,0.305,0.46,-0.031,-0.621
1317,0.787,-0.029,0.132,-0.003,-0.358,0.34,0.462,-0.037,-0.598
1318,0.877,-0.107,0.133,0.013,-0.393,0.391,0.454,-0.043,-0.615
1319,0.956,-0.158,0.128,0.05,-0.477,0.455,0.435,-0.01,-0.595
1320,1.004,-0.132,0.128,0.115,-0.58,0.529,0.445,-0.048,-0.582
1321,1.014,-0.062,0.152,0.202,-0.697,0.609,0.427,-0.033,-0.591
1322,0.993,0.027,0.206,0.278,-0.81,0.71,0.427,-0.033,-0.591
1323,0.947,0.121,0.265,0.348,-0.902,0.822,0.447,-0.048,-0.586
1324,0.858,0.218,0.324,0.427,-0.996,0.931,0.459,-0.04,-0.586
1325,0.68,0.298,0.356,0.522,-1.131,1.043,0.439,-0.061,-0.564
1326,0.378,0.262,0.373,0.619,-1.298,1.073,0.444,-0.058,-0.568
1327,0.06,0.017,0.364,0.613,-1.437,0.933,0.451,-0.063,-0.576
1328,-0.179,-0.218,0.323,0.486,-1.42,0.723,0.445,-0.054,-0.583
1329,-0.343,-0.037,0.326,0.375,-1.264,0.636,0.445,-0.054,-0.583
1330,-0.324,0.393,0.298,0.375,-1.264,0.636,0.427,-0.04,-0.583
1331,-0.126,0.854,0.207,0.155,-0.96,0.657,0.45,-0.064,-0.564
1332,0.146,1.128,0.099,-0.171,-0.511,0.612,0.43,-0.066,-0.567
1333,0.331,0.982,-0.006,-0.376,-0.258,0.557,0.447,-0.049,-0.582
1334,0.331,0.982,-0.006,-0.34,-0.4,0.518,0.468,-0.049,-0.588
1335,0.31,0.474,-0.091,-0.046,-0.919,0.371,0.453,-0.061,-0.571
1336,0.122,0.007,-0.121,0.287,-1.588,0.124,0.453,-0.061,-0.571
1337,-0.165,-0.184,-0.166,0.377,-1.951,-0.029,0.465,-0.051,-0.574
1338,-0.424,0.056,-0.211,0.261,-1.997,0.167,0.463,-0.054,-0.567
1339,-0.536,0.477,-0.172,0.241,-1.781,0.556,0.46,-0.036,-0.567
1340,-0.404,0.105,-0.043,0.106,-1.117,0.449,0.462,-0.037,-0.583
1341,-0.025,-0.674,-0.017,-0.212,-0.553,-0.127,0.475,-0.052,-0.594
1342,0.176,-0.885,-0.156,-0.344,-0.413,-0.331,0.447,-0.06,-0.579
1343,0.156,-0.702,-0.268,-0.21,-0.459,-0.096,0.447,-0.06,-0.579
1344,0.049,-0.56,-0.321,0.01,-0.622,0.07,0.453,-0.045,-0.559
1345,0.079,-0.683,-0.34,0.187,-0.79,0.012,0.448,-0.052,-0.561
1346,0.238,-1.013,-0.331,0.32,-0.929,-0.123,0.439,-0.061,-0.561
1347,0.518,-1.26,-0.26,0.458,-1.124,-0.25,0.439,-0.061,-0.561
1348,0.684,-1.245,-0.137,0.458,-1.319,-0.324,0.439,-0.06,-0.553
1349,0.683,-1.129,0.017,0.644,-1.319,-0.324,0.438,-0.067,-0.556
1350,0.595,-1.093,0.137,0.729,-1.324,-0.255,0.438,-0.067,-0.556
1351,0.531,-1.092,0.191,0.613,-1.152,-0.107,0.429,-0.09,-0.564
1352,0.537,-1.101,0.229,0.398,-0.954,0.034,0.42,-0.069,-0.549
1353,0.537,-1.101,0.229,0.149,-0.78,0.149,0.4,-0.058,-0.529
1354,0.591,-1.016,0.151,-0.05,-0.725,0.326,0.384,-0.066,-0.546
1355,0.455,-1.172,0.018,-0.147,-0.739,0.487,0.397,-0.076,-0.538
1356,0.474,-1.529,-0.032,-0.108,-0.752,0.416,0.397,-0.073,-0.535
1357,0.583,-1.925,-0.01,0.066,-0.821,0.225,0.397,-0.073,-0.535
1358,0.709,-2.086,0.046,0.294,-0.861,-0.056,0.39,-0.072,-0.511
1359,0.814,-1.966,0.102,0.498,-0.896,-0.342,0.382,-0.078,-0.532
1360,0.823,-1.659,0.139,0.633,-0.939,-0.38,0.337,-0.078,-0.492
1361,0.721,-1.429,0.126,0.682,-0.908,-0.293,0.337,-0.078,-0.492
1362,0.751,-1.164,0.147,0.672,-0.836,-0.33,0.355,-0.081,-0.478
1363,0.695,-0.948,0.086,0.596,-0.778,-0.277,0.364,-0.109,-0.466
1364,0.682,-0.679,0.044,0.455,-0.765,-0.104,0.364,-0.109,-0.466
1365,0.68,-0.523,-0.007,0.314,-0.784,0.002,0.34,-0.094,-0.469
1366,0.704,-0.417,0.0,0.284,-0.833,-0.004,0.334,-0.105,-0.481
1367,0.624,-0.371,-0.134,0.254,-0.831,-0.001,0.336,-0.103,-0.466
1368,0.633,-0.311,-0.129,0.211,-0.888,0.076,0.34,-0.105,-0.456
1369,0.588,-0.282,-0.109,0.211,-0.888,0.076,0.334,-0.1,-0.441
1370,0.492,-0.373,-0.151,0.237,-0.963,0.073,0.327,-0.114,-0.46
1371,0.413,-0.443,-0.163,0.233,-0.926,0.055,0.327,-0.114,-0.46
1372,0.376,-0.424,-0.176,0.257,-0.924,0.003,0.325,-0.105,-0.45
1373,0.366,-0.331,-0.198,0.287,-0.928,-0.078,0.333,-0.114,-0.433
1374,0.366,-0.331,-0.198,0.284,-0.919,-0.076,0.312,-0.114,-0.421
1375,0.342,-0.268,-0.225,0.279,-0.914,-0.008,0.312,-0.114,-0.421
1376,0.31,-0.274,-0.252,0.284,-0.901,0.051,0.319,-0.12,-0.432
1377,0.296,-0.313,-0.275,0.291,-0.874,0.058,0.334,-0.121,-0.436
1378,0.299,-0.338,-0.302,0.3,-0.853,0.027,0.334,-0.121,-0.436
1379,0.319,-0.342,-0.317,0.32,-0.857,0.008,0.346,-0.102,-0.445
1380,0.366,-0.31,-0.324,0.332,-0.869,0.003,0.339,-0.114,-0.411
1381,0.419,-0.282,-0.345,0.335,-0.872,0.011,0.324,-0.127,-0.421
1382,0.475,-0.269,-0.362,0.35,-0.876,0.053,0.333,-0.133,-0.403
1383,0.508,-0.27,-0.365,0.374,-0.884,0.116,0.352,-0.126,-0.4
1384,0.521,-0.273,-0.36,0.4,-0.885,0.167,0.328,-0.13,-0.409
1385,0.51,-0.291,-0.344,0.429,-0.884,0.187,0.328,-0.13,-0.409
1386,0.455,-0.316,-0.337,0.472,-0.893,0.167,0.334,-0.142,-0.43
1387,0.415,-0.34,-0.282,0.478,-0.909,0.141,0.337,-0.132,-0.418
1388,0.333,-0.356,-0.272,0.469,-0.935,0.138,0.34,-0.135,-0.381
1389,0.282,-0.389,-0.199,0.469,-0.935,0.138,0.324,-0.147,-0.39
1390,0.161,-0.449,-0.183,0.45,-0.94,0.153,0.33,-0.141,-0.402
1391,0.064,-0.464,-0.154,0.411,-0.942,0.203,0.355,-0.153,-0.397
1392,-0.024,-0.396,-0.145,0.444,-0.952,0.162,0.355,-0.153,-0.397
1393,-0.079,-0.259,-0.123,0.492,-0.956,0.066,0.345,-0.154,-0.399
1394,-0.079,-0.259,-0.123,0.396,-1.023,0.175,0.33,-0.126,-0.394
1395,-0.182,-0.135,-0.151,0.318,-1.099,0.302,0.339,-0.147,-0.412
1396,-0.289,0.01,-0.163,0.398,-1.126,0.298,0.324,-0.132,-0.391
1397,-0.434,0.126,-0.17,0.45,-1.134,0.215,0.324,-0.139,-0.4
1398,-0.588,0.075,-0.126,0.457,-1.183,0.054,0.327,-0.124,-0.409
1399,-0.655,-0.028,-0.004,0.463,-1.242,-0.063,0.327,-0.124,-0.409
1400,-0.718,0.135,0.03,0.532,-1.266,-0.14,0.337,-0.151,-0.406
1401,-0.78,0.505,0.056,0.663,-1.259,-0.228,0.334,-0.141,-0.396
1402,-0.854,0.875,0.085,0.734,-1.235,-0.268,0.351,-0.141,-0.426
1403,-0.961,0.794,0.166,0.411,-1.223,-0.052,0.34,-0.12,-0.424
1404,-1.178,0.616,0.178,0.042,-1.249,0.081,0.342,-0.132,-0.433
1405,-1.338,0.646,0.161,-0.004,-1.322,-0.11,0.355,-0.12,-0.463
1406,-1.379,0.756,0.148,-0.016,-1.413,-0.19,0.355,-0.12,-0.463
1407,-1.444,0.733,0.13,-0.009,-1.534,-0.075,0.334,-0.127,-0.469
1408,-1.434,0.517,0.132,-0.022,-1.6,0.096,0.342,-0.108,-0.46
1409,-1.517,0.165,0.109,-0.037,-1.614,0.202,0.334,-0.09,-0.489
1410,-1.548,-0.282,0.151,-0.037,-1.614,0.202,0.334,-0.09,-0.489
1411,-1.491,-0.569,0.221,-0.006,-1.558,0.13,0.349,-0.093,-0.495
1412,-1.504,-0.571,0.202,0.066,-1.445,-0.058,0.319,-0.078,-0.472
1413,-1.504,-0.571,0.202,0.108,-1.359,-0.183,0.319,-0.078,-0.472
1414,-1.612,-0.377,0.193,0.149,-1.205,-0.229,0.321,-0.049,-0.507
1415,-1.531,0.009,0.245,0.269,-1.002,-0.297,0.336,-0.064,-0.511
1416,-1.377,0.428,0.198,0.243,-0.91,-0.162,0.331,-0.046,-0.508
1417,-1.311,0.76,0.151,0.267,-0.881,-0.027,0.351,-0.055,-0.526
1418,-1.103,0.959,0.244,0.381,-0.819,0.018,0.342,-0.046,-0.535
1419,-0.945,0.984,0.307,0.397,-0.811,0.144,0.355,-0.046,-0.546
1420,-0.952,1.058,0.298,0.395,-0.871,0.199,0.355,-0.046,-0.546
1421,-0.938,1.296,0.247,0.394,-0.919,0.1,0.363,-0.042,-0.555
1422,-0.91,1.49,0.241,0.383,-0.932,-0.004,0.348,-0.042,-0.564
1423,-0.864,1.647,0.227,0.322,-0.894,0.048,0.369,-0.019,-0.561
1424,-0.781,1.652,0.247,0.235,-0.814,0.141,0.369,-0.019,-0.561
1425,-0.7,1.549,0.248,0.097,-0.727,0.243,0.381,-0.015,-0.58
1426,-0.596,1.488,0.247,0.014,-0.7,0.273,0.393,-0.013,-0.583
1427,-0.484,1.465,0.257,-0.002,-0.717,0.223,0.393,-0.013,-0.583
1428,-0.34,1.479,0.294,-0.016,-0.691,0.162,0.387,0.0,-0.609
1429,-0.217,1.474,0.316,-0.016,-0.691,0.162,0.412,-0.001,-0.6
1430,-0.117,1.394,0.308,-0.027,-0.646,0.142,0.423,-0.006,-0.627
1431,-0.041,1.294,0.275,-0.058,-0.596,0.16,0.438,0.018,-0.612
1432,-0.017,1.151,0.215,-0.097,-0.564,0.169,0.439,0.012,-0.612
1433,-0.017,1.151,0.215,-0.132,-0.565,0.178,0.415,0.004,-0.622
1434,-0.014,0.983,0.142,-0.162,-0.549,0.189,0.415,0.004,-0.622
1435,0.012,0.805,0.077,-0.162,-0.535,0.211,0.444,0.004,-0.61
1436,0.069,0.626,0.041,-0.126,-0.557,0.249,0.436,0.007,-0.619
1437,0.144,0.458,0.034,-0.08,-0.583,0.286,0.438,0.001,-0.598
1438,0.233,0.304,0.053,-0.049,-0.583,0.321,0.438,0.001,-0.598
1439,0.316,0.161,0.08,-0.03,-0.567,0.339,0.457,-0.013,-0.609
1440,0.4,0.054,0.1,-0.018,-0.588,0.379,0.447,0.0,-0.621
1441,0.483,-0.032,0.127,0.008,-0.589,0.391,0.447,0.0,-0.621
1442,0.568,-0.085,0.17,0.049,-0.56,0.368,0.453,-0.001,-0.597
1443,0.643,-0.138,0.214,0.066,-0.561,0.41,0.453,0.006,-0.597
1444,0.706,-0.213,0.248,0.089,-0.561,0.465,0.453,-0.016,-0.61
1445,0.763,-0.291,0.256,0.121,-0.57,0.495,0.472,0.003,-0.615
1446,0.804,-0.313,0.254,0.151,-0.603,0.54,0.442,-0.033,-0.589
1447,0.813,-0.284,0.251,0.201,-0.661,0.605,0.438,-0.015,-0.588
1448,0.788,-0.24,0.259,0.201,-0.661,0.605,0.438,-0.015,-0.588
1449,0.747,-0.18,0.294,0.258,-0.719,0.652,0.457,-0.016,-0.597
1450,0.693,-0.12,0.339,0.286,-0.793,0.728,0.441,-0.027,-0.565
1451,0.614,-0.045,0.394,0.311,-0.886,0.808,0.435,-0.007,-0.58
1452,0.464,0.05,0.417,0.365,-1.009,0.859,0.438,-0.027,-0.579
1453,0.464,0.05,0.417,0.426,-1.179,0.901,0.427,-0.052,-0.573
1454,0.224,0.094,0.42,0.475,-1.341,0.92,0.442,-0.048,-0.57
1455,-0.027,0.011,0.416,0.486,-1.435,0.891,0.442,-0.048,-0.57
1456,-0.135,-0.119,0.412,0.43,-1.402,0.832,0.435,-0.031,-0.577
1457,-0.16,-0.055,0.377,0.334,-1.188,0.81,0.453,-0.025,-0.579
1458,-0.185,0.291,0.296,0.162,-0.856,0.797,0.439,-0.031,-0.579
1459,-0.109,0.772,0.17,-0.105,-0.463,0.724,0.456,-0.024,-0.573
1460,0.109,1.089,0.044,-0.299,-0.18,0.637,0.453,-0.025,-0.579
1461,0.318,1.104,-0.049,-0.317,-0.241,0.549,0.447,-0.039,-0.588
1462,0.429,0.777,-0.062,-0.109,-0.616,0.421,0.447,-0.039,-0.588
1463,0.337,0.266,-0.01,0.19,-1.202,0.198,0.46,-0.043,-0.582
1464,0.088,-0.161,-0.009,0.356,-1.766,-0.006,0.456,-0.046,-0.565
1465,-0.221,-0.364,-0.106,0.418,-1.996,0.05,0.438,-0.022,-0.555
1466,-0.436,-0.121,-0.154,0.308,-1.998,0.303,0.454,-0.036,-0.57
1467,-0.557,0.273,-0.121,0.08,-1.51,0.509,0.459,-0.007,-0.567
1468,-0.403,-0.1,-0.06,0.08,-1.51,0.509,0.462,-0.016,-0.568
1469,0.008,-0.771,-0.121,-0.216,-0.673,0.266,0.462,-0.016,-0.568
1470,0.179,-0.823,-0.317,-0.51,-0.275,-0.243,0.447,-0.027,-0.597
1471,0.07,-0.543,-0.442,-0.493,-0.312,-0.263,0.471,-0.024,-0.568
1472,0.07,-0.543,-0.442,-0.241,-0.495,0.049,0.471,-0.024,-0.568
1473,-0.065,-0.511,-0.469,0.002,-0.663,0.176,0.439,-0.022,-0.574
1474,0.036,-0.923,-0.405,0.18,-0.794,0.042,0.45,-0.039,-0.577
1475,0.401,-1.568,-0.294,0.328,-0.973,-0.227,0.433,-0.042,-0.571
1476,0.658,-1.878,-0.205,0.552,-1.252,-0.407,0.433,-0.042,-0.571
1477,0.725,-1.687,-0.055,0.823,-1.466,-0.403,0.411,-0.039,-0.552
1478,0.648,-1.293,0.163,0.952,-1.472,-0.236,0.417,-0.046,-0.561
1479,0.488,-1.051,0.349,0.77,-1.283,0.045,0.394,-0.06,-0.537
1480,0.35,-1.026,0.438,0.408,-0.989,0.228,0.411,-0.036,-0.538
1481,0.396,-1.089,0.438,0.109,-0.725,0.229,0.388,-0.04,-0.538
1482,0.59,-1.143,0.333,-0.066,-0.616,0.211,0.379,-0.061,-0.531
1483,0.552,-1.285,0.167,-0.141,-0.666,0.3,0.379,-0.061,-0.531
1484,0.461,-1.529,0.018,-0.1,-0.733,0.307,0.379,-0.049,-0.519
1485,0.523,-1.828,0.008,0.059,-0.778,0.078,0.366,-0.046,-0.516
1486,0.662,-1.922,0.043,0.231,-0.859,-0.106,0.351,-0.042,-0.501
1487,0.614,-1.88,0.041,0.363,-0.913,-0.219,0.351,-0.042,-0.501
1488,0.603,-1.599,-0.003,0.363,-0.913,-0.219,0.342,-0.052,-0.478
1489,0.64,-1.245,0.0,0.52,-0.901,-0.406,0.33,-0.057,-0.475
1490,0.649,-0.905,0.03,0.641,-0.899,-0.463,0.33,-0.057,-0.475
1491,0.658,-0.709,0.059,0.636,-0.92,-0.339,0.316,-0.052,-0.471
1492,0.658,-0.709,0.059,0.525,-0.911,-0.145,0.318,-0.069,-0.489
1493,0.611,-0.63,0.007,0.389,-0.876,-0.013,0.312,-0.069,-0.447
1494,0.614,-0.586,-0.014,0.295,-0.871,0.036,0.315,-0.061,-0.451
1495,0.593,-0.504,-0.006,0.277,-0.88,0.036,0.316,-0.061,-0.439
1496,0.59,-0.576,0.018,0.166,-0.818,0.144,0.303,-0.081,-0.445
1497,0.52,-0.655,-0.102,0.159,-0.784,0.117,0.303,-0.081,-0.445
1498,0.529,-0.653,-0.113,0.284,-0.842,-0.049,0.331,-0.063,-0.421
1499,0.47,-0.603,-0.137,0.298,-0.864,-0.04,0.319,-0.075,-0.435
1500,0.373,-0.578,-0.182,0.331,-0.879,-0.022,0.297,-0.073,-0.417
1501,0.326,-0.556,-0.213,0.351,-0.886,-0.024,0.297,-0.073,-0.417
1502,0.338,-0.492,-0.218,0.373,-0.884,-0.028,0.285,-0.085,-0.415
1503,0.361,-0.442,-0.216,0.395,-0.879,-0.004,0.304,-0.076,-0.399
1504,0.397,-0.457,-0.21,0.391,-0.85,0.015,0.304,-0.076,-0.399
1505,0.408,-0.476,-0.218,0.364,-0.833,0.018,0.327,-0.073,-0.417
1506,0.396,-0.464,-0.245,0.341,-0.826,0.003,0.309,-0.096,-0.408
1507,0.378,-0.426,-0.273,0.341,-0.826,0.003,0.306,-0.084,-0.397
1508,0.383,-0.386,-0.304,0.319,-0.83,-0.006,0.298,-0.09,-0.385
1509,0.408,-0.347,-0.343,0.295,-0.833,0.005,0.316,-0.079,-0.382
1510,0.447,-0.323,-0.361,0.301,-0.839,0.029,0.31,-0.106,-0.384
1511,0.447,-0.323,-0.361,0.321,-0.848,0.071,0.31,-0.106,-0.384
1512,0.469,-0.342,-0.378,0.335,-0.857,0.124,0.298,-0.099,-0.378
1513,0.479,-0.38,-0.373,0.37,-0.883,0.144,0.303,-0.105,-0.382
1514,0.457,-0.418,-0.375,0.417,-0.893,0.129,0.307,-0.106,-0.369
1515,0.457,-0.445,-0.355,0.439,-0.889,0.118,0.307,-0.112,-0.381
1516,0.44,-0.443,-0.332,0.454,-0.892,0.119,0.301,-0.108,-0.364
1517,0.406,-0.414,-0.307,0.457,-0.893,0.113,0.315,-0.124,-0.351
1518,0.344,-0.406,-0.285,0.442,-0.898,0.087,0.315,-0.124,-0.351
1519,0.273,-0.4,-0.266,0.428,-0.91,0.091,0.318,-0.105,-0.345
1520,0.212,-0.406,-0.233,0.439,-0.927,0.111,0.33,-0.126,-0.354
1521,0.104,-0.378,-0.238,0.498,-0.952,0.082,0.301,-0.117,-0.337
1522,0.021,-0.297,-0.222,0.513,-0.998,0.089,0.301,-0.117,-0.337
1523,-0.05,-0.261,-0.216,0.425,-1.037,0.147,0.321,-0.108,-0.342
1524,-0.123,-0.137,-0.224,0.348,-1.086,0.185,0.304,-0.108,-0.346
1525,-0.204,0.026,-0.241,0.354,-1.134,0.209,0.304,-0.108,-0.346
1526,-0.336,0.142,-0.241,0.438,-1.189,0.198,0.334,-0.114,-0.333
1527,-0.463,0.119,-0.156,0.438,-1.189,0.198,0.316,-0.12,-0.343
1528,-0.531,0.034,-0.042,0.545,-1.294,0.098,0.31,-0.1,-0.351
1529,-0.543,0.087,0.049,0.597,-1.362,-0.017,0.316,-0.117,-0.345
1530,-0.617,0.315,0.116,0.635,-1.377,-0.008,0.33,-0.121,-0.357
1531,-0.617,0.315,0.116,0.67,-1.345,0.003,0.307,-0.109,-0.364
1532,-0.758,0.604,0.116,0.62,-1.259,-0.083,0.307,-0.109,-0.364
1533,-0.884,0.826,0.091,0.483,-1.202,-0.143,0.315,-0.109,-0.373
1534,-1.033,0.907,0.072,0.267,-1.17,-0.105,0.319,-0.094,-0.378
1535,-1.164,0.959,0.055,0.092,-1.167,-0.071,0.325,-0.099,-0.37
1536,-1.293,1.055,0.021,0.042,-1.247,-0.095,0.325,-0.099,-0.37
1537,-1.371,1.107,0.021,-0.013,-1.336,-0.023,0.321,-0.103,-0.39
1538,-1.508,0.998,-0.006,-0.066,-1.424,0.134,0.31,-0.078,-0.421
1539,-1.558,0.668,0.024,-0.05,-1.422,0.163,0.31,-0.078,-0.421
1540,-1.565,0.336,0.007,0.011,-1.438,0.091,0.337,-0.067,-0.429
1541,-1.621,0.14,-0.033,0.085,-1.45,-0.025,0.33,-0.078,-0.442
1542,-1.61,0.086,-0.049,0.096,-1.362,-0.137,0.336,-0.088,-0.432
1543,-1.53,0.219,0.006,0.109,-1.317,-0.185,0.327,-0.07,-0.465
1544,-1.526,0.387,0.009,0.093,-1.222,-0.089,0.342,-0.051,-0.454
1545,-1.536,0.513,-0.009,0.094,-1.053,-0.01,0.336,-0.079,-0.466
1546,-1.404,0.583,-0.028,0.139,-0.968,-0.037,0.336,-0.079,-0.466
1547,-1.234,0.725,0.011,0.139,-0.968,-0.037,0.334,-0.058,-0.486
1548,-1.158,0.925,0.105,0.244,-0.992,-0.048,0.339,-0.046,-0.498
1549,-1.24,0.986,0.133,0.361,-1.01,0.012,0.337,-0.043,-0.468
1550,-1.375,0.872,0.041,0.356,-0.993,0.232,0.337,-0.043,-0.468
1551,-1.375,0.872,0.041,0.253,-0.896,0.287,0.337,-0.031,-0.49
1552,-1.122,1.092,0.077,0.317,-0.87,0.078,0.361,-0.03,-0.495
1553,-0.97,1.232,0.141,0.403,-0.926,0.036,0.361,-0.03,-0.495
1554,-0.956,1.449,0.134,0.292,-0.9,0.095,0.357,-0.033,-0.522
1555,-0.905,1.505,0.167,0.199,-0.808,0.147,0.378,0.006,-0.538
1556,-0.763,1.416,0.203,0.116,-0.706,0.197,0.381,-0.01,-0.543
1557,-0.625,1.377,0.221,0.06,-0.651,0.149,0.372,0.003,-0.538
1558,-0.516,1.411,0.231,0.009,-0.641,0.134,0.394,-0.007,-0.546
1559,-0.41,1.43,0.238,-0.004,-0.636,0.103,0.379,-0.003,-0.546
1560,-0.298,1.409,0.254,-0.007,-0.634,0.09,0.379,-0.003,-0.546
1561,-0.192,1.385,0.268,-0.025,-0.611,0.095,0.397,-0.006,-0.562
1562,-0.102,1.315,0.261,-0.072,-0.574,0.106,0.409,0.015,-0.558
1563,-0.025,1.226,0.233,-0.144,-0.548,0.139,0.39,0.007,-0.559
1564,0.046,1.093,0.201,-0.197,-0.517,0.162,0.429,0.004,-0.556
1565,0.113,0.94,0.175,-0.197,-0.508,0.186,0.417,0.018,-0.577
1566,0.189,0.756,0.165,-0.218,-0.508,0.186,0.417,0.009,-0.591
1567,0.259,0.55,0.161,-0.194,-0.531,0.225,0.417,0.009,-0.591
1568,0.335,0.35,0.165,-0.151,-0.544,0.285,0.426,0.003,-0.582
1569,0.416,0.156,0.182,-0.129,-0.54,0.35,0.424,-0.007,-0.574
1570,0.506,0.011,0.205,-0.119,-0.537,0.393,0.421,-0.007,-0.586
1571,0.506,0.011,0.205,-0.1,-0.532,0.407,0.43,-0.016,-0.553
1572,0.576,-0.062,0.217,-0.07,-0.534,0.418,0.429,0.003,-0.57
1573,0.618,-0.126,0.214,-0.039,-0.544,0.454,0.435,-0.013,-0.571
1574,0.652,-0.192,0.221,0.011,-0.563,0.501,0.435,-0.013,-0.571
1575,0.689,-0.24,0.216,0.075,-0.607,0.542,0.424,0.004,-0.577
1576,0.705,-0.221,0.207,0.118,-0.659,0.582,0.429,-0.012,-0.58
1577,0.688,-0.152,0.206,0.148,-0.7,0.618,0.421,-0.016,-0.553
1578,0.66,-0.08,0.203,0.168,-0.75,0.668,0.42,-0.021,-0.574
1579,0.62,-0.02,0.198,0.175,-0.797,0.725,0.402,-0.009,-0.586
1580,0.571,0.036,0.205,0.165,-0.853,0.79,0.421,-0.021,-0.555
1581,0.509,0.11,0.2,0.148,-0.906,0.858,0.421,-0.021,-0.555
1582,0.441,0.191,0.207,0.151,-0.945,0.905,0.423,-0.022,-0.574
1583,0.347,0.257,0.199,0.182,-1.037,0.939,0.418,-0.03,-0.565
1584,0.209,0.246,0.199,0.22,-1.181,0.91,0.409,-0.024,-0.561
1585,0.051,0.135,0.206,0.256,-1.29,0.796,0.406,-0.028,-0.541
1586,-0.089,0.031,0.213,0.256,-1.29,0.796,0.412,-0.031,-0.552
1587,-0.167,0.108,0.214,0.268,-1.319,0.7,0.432,-0.036,-0.561
1588,-0.159,0.4,0.199,0.206,-1.207,0.687,0.432,-0.036,-0.561
1589,-0.065,0.711,0.172,0.028,-0.903,0.716,0.397,-0.019,-0.547
1590,0.121,0.815,0.131,-0.231,-0.474,0.732,0.408,-0.031,-0.562
1591,0.121,0.815,0.131,-0.41,-0.12,0.66,0.408,-0.031,-0.562
1592,0.308,0.742,0.091,-0.338,-0.029,0.499,0.42,-0.024,-0.559
1593,0.367,0.509,0.073,-0.288,-0.249,0.394,0.421,-0.042,-0.558
1594,0.238,-0.011,0.068,-0.18,-0.891,0.33,0.427,-0.045,-0.568
1595,-0.024,-0.299,0.009,0.099,-1.669,0.269,0.427,-0.045,-0.568
1596,-0.29,-0.294,-0.203,0.309,-1.995,0.096,0.429,-0.031,-0.564
1597,-0.539,0.24,-0.39,0.509,-1.998,0.198,0.427,-0.022,-0.577
1598,-0.563,0.168,0.079,0.359,-0.943,0.215,0.427,-0.03,-0.577
1599,0.067,-0.697,0.127,-0.391,-0.114,-0.434,0.43,-0.006,-0.577
1600,0.346,-0.833,-0.135,-0.643,-0.044,-0.308,0.412,-0.024,-0.579
1601,0.17,-0.642,-0.424,-0.413,-0.222,0.117,0.412,-0.024,-0.579
1602,-0.099,-0.647,-0.516,-0.109,-0.463,0.269,0.414,-0.031,-0.588
1603,-0.249,-0.996,-0.471,0.08,-0.658,0.114,0.429,-0.024,-0.573
1604,0.018,-1.605,-0.332,0.134,-0.783,-0.172,0.397,-0.034,-0.573
1605,0.494,-2.012,-0.203,0.224,-1.022,-0.358,0.405,-0.019,-0.57
1606,0.805,-1.891,-0.097,0.224,-1.022,-0.358,0.388,-0.034,-0.537
1607,0.935,-1.439,0.086,0.523,-1.392,-0.386,0.388,-0.034,-0.537
1608,0.931,-1.045,0.277,0.871,-1.629,-0.281,0.387,-0.036,-0.535
1609,0.774,-0.906,0.379,0.992,-1.602,-0.042,0.385,-0.037,-0.55
1610,0.774,-0.906,0.379,0.773,-1.376,0.273,0.366,-0.069,-0.52
1611,0.539,-1.019,0.407,0.397,-1.049,0.407,0.372,-0.061,-0.543
1612,0.548,-1.113,0.375,0.131,-0.789,0.331,0.357,-0.049,-0.507
1613,0.634,-1.23,0.303,-0.015,-0.661,0.26,0.357,-0.049,-0.507
1614,0.596,-1.33,0.141,-0.054,-0.635,0.213,0.34,-0.058,-0.519
1615,0.563,-1.463,0.023,-0.006,-0.696,0.146,0.36,-0.067,-0.504
1616,0.718,-1.555,-0.011,0.129,-0.751,-0.043,0.345,-0.061,-0.477
1617,0.887,-1.424,0.058,0.338,-0.828,-0.252,0.324,-0.058,-0.49
1618,0.957,-1.278,0.135,0.439,-0.91,-0.217,0.333,-0.061,-0.471
1619,0.888,-1.155,0.128,0.467,-0.909,-0.145,0.333,-0.061,-0.471
1620,0.819,-0.991,0.104,0.498,-0.894,-0.125,0.318,-0.075,-0.448
1621,0.77,-0.92,0.103,0.453,-0.868,-0.018,0.292,-0.06,-0.456
1622,0.728,-0.931,0.09,0.345,-0.816,0.082,0.324,-0.067,-0.463
1623,0.687,-0.917,0.054,0.253,-0.786,0.083,0.307,-0.081,-0.435
1624,0.687,-0.877,0.046,0.206,-0.784,0.07,0.304,-0.081,-0.423
1625,0.701,-0.821,0.072,0.206,-0.784,0.07,0.304,-0.081,-0.423
1626,0.667,-0.812,0.039,0.222,-0.817,0.027,0.294,-0.091,-0.396
1627,0.584,-0.731,-0.011,0.218,-0.792,-0.001,0.294,-0.091,-0.396
1628,0.571,-0.689,-0.031,0.279,-0.785,-0.013,0.307,-0.078,-0.43
1629,0.571,-0.689,-0.031,0.332,-0.808,-0.053,0.286,-0.091,-0.402
1630,0.508,-0.708,-0.083,0.311,-0.791,-0.064,0.277,-0.094,-0.391
1631,0.467,-0.712,-0.133,0.346,-0.799,-0.089,0.277,-0.094,-0.391
1632,0.444,-0.671,-0.165,0.35,-0.791,-0.084,0.283,-0.081,-0.382
1633,0.448,-0.599,-0.179,0.328,-0.776,-0.051,0.276,-0.091,-0.387
1634,0.469,-0.525,-0.2,0.306,-0.768,-0.014,0.27,-0.1,-0.361
1635,0.48,-0.459,-0.219,0.305,-0.778,0.022,0.288,-0.087,-0.388
1636,0.495,-0.431,-0.24,0.313,-0.798,0.052,0.273,-0.088,-0.372
1637,0.521,-0.452,-0.267,0.312,-0.823,0.07,0.261,-0.097,-0.354
1638,0.529,-0.494,-0.302,0.302,-0.856,0.069,0.261,-0.097,-0.354
1639,0.529,-0.503,-0.329,0.292,-0.888,0.074,0.292,-0.094,-0.351
1640,0.54,-0.491,-0.347,0.3,-0.905,0.08,0.271,-0.1,-0.337
1641,0.549,-0.462,-0.362,0.312,-0.908,0.094,0.271,-0.1,-0.337
1642,0.534,-0.406,-0.372,0.321,-0.93,0.108,0.303,-0.126,-0.333
1643,0.508,-0.37,-0.364,0.321,-0.961,0.108,0.297,-0.136,-0.313
1644,0.445,-0.347,-0.35,0.336,-0.956,0.108,0.271,-0.111,-0.316
1645,0.382,-0.337,-0.317,0.353,-0.957,0.102,0.271,-0.111,-0.316
1646,0.31,-0.338,-0.286,0.366,-0.968,0.099,0.303,-0.114,-0.319
1647,0.214,-0.332,-0.27,0.381,-0.98,0.108,0.283,-0.123,-0.285
1648,0.111,-0.326,-0.254,0.434,-0.994,0.105,0.283,-0.123,-0.285
1649,0.111,-0.326,-0.254,0.512,-0.995,0.068,0.282,-0.129,-0.316
1650,0.058,-0.304,-0.221,0.521,-0.984,0.074,0.292,-0.141,-0.307
1651,-0.025,-0.3,-0.225,0.431,-0.994,0.135,0.306,-0.123,-0.319
1652,-0.091,-0.21,-0.259,0.361,-1.054,0.175,0.306,-0.123,-0.319
1653,-0.163,-0.037,-0.278,0.375,-1.14,0.25,0.283,-0.124,-0.295
1654,-0.221,0.049,-0.247,0.423,-1.17,0.34,0.277,-0.142,-0.3
1655,-0.298,-0.023,-0.247,0.476,-1.115,0.309,0.291,-0.139,-0.301
1656,-0.38,-0.096,-0.21,0.554,-1.044,0.12,0.303,-0.147,-0.298
1657,-0.419,-0.116,-0.094,0.629,-1.07,-0.111,0.301,-0.139,-0.3
1658,-0.421,0.091,-0.012,0.601,-1.135,-0.214,0.289,-0.133,-0.297
1659,-0.494,0.489,-0.037,0.567,-1.195,-0.145,0.289,-0.133,-0.297
1660,-0.633,0.807,0.021,0.65,-1.256,-0.102,0.297,-0.139,-0.33
1661,-0.801,0.891,0.16,0.503,-1.308,-0.098,0.274,-0.133,-0.319
1662,-1.036,0.964,0.13,0.077,-1.319,-0.102,0.274,-0.133,-0.319
1663,-1.283,1.11,0.015,-0.035,-1.34,-0.133,0.316,-0.153,-0.337
1664,-1.341,1.137,0.064,-0.035,-1.34,-0.133,0.3,-0.124,-0.34
1665,-1.253,1.074,0.195,0.15,-1.372,-0.162,0.304,-0.127,-0.364
1666,-1.162,0.826,0.334,0.258,-1.421,-0.151,0.304,-0.127,-0.364
1667,-1.206,0.444,0.366,0.178,-1.483,-0.043,0.304,-0.121,-0.369
1668,-1.206,0.444,0.366,0.052,-1.553,0.086,0.298,-0.133,-0.363
1669,-1.277,0.115,0.4,0.03,-1.589,0.139,0.306,-0.115,-0.378
1670,-1.385,-0.107,0.367,0.028,-1.562,0.106,0.301,-0.132,-0.399
1671,-1.538,-0.232,0.288,0.061,-1.507,0.006,0.318,-0.121,-0.388
1672,-1.686,-0.276,0.201,0.107,-1.383,-0.116,0.294,-0.1,-0.396
1673,-1.777,-0.146,0.233,0.147,-1.297,-0.158,0.294,-0.1,-0.396
1674,-1.733,-0.046,0.35,0.143,-1.205,-0.125,0.291,-0.109,-0.414
1675,-1.607,0.094,0.284,0.099,-1.093,-0.093,0.277,-0.103,-0.408
1676,-1.48,0.293,0.149,0.123,-1.019,-0.172,0.277,-0.103,-0.408
1677,-1.234,0.608,0.081,0.213,-1.029,-0.227,0.286,-0.087,-0.435
1678,-1.15,0.904,0.08,0.393,-1.078,-0.228,0.306,-0.099,-0.433
1679,-1.102,1.159,0.186,0.462,-1.071,-0.076,0.288,-0.072,-0.463
1680,-1.258,1.316,0.173,0.398,-1.033,-0.069,0.288,-0.072,-0.463
1681,-1.219,1.608,0.261,0.33,-0.975,-0.18,0.309,-0.087,-0.492
1682,-1.127,1.843,0.298,0.252,-0.906,-0.069,0.316,-0.064,-0.475
1683,-1.087,1.948,0.334,0.215,-0.833,0.116,0.315,-0.069,-0.513
1684,-0.947,1.95,0.277,0.215,-0.833,0.116,0.319,-0.06,-0.516
1685,-0.733,1.941,0.273,0.173,-0.741,0.191,0.333,-0.061,-0.523
1686,-0.514,1.99,0.347,0.143,-0.681,0.032,0.349,-0.072,-0.532
1687,-0.514,1.99,0.347,0.115,-0.692,-0.038,0.349,-0.072,-0.532
1688,-0.333,1.873,0.361,0.09,-0.7,0.043,0.333,-0.076,-0.528
1689,-0.333,1.873,0.361,0.019,-0.65,0.183,0.337,-0.057,-0.549
1690,-0.233,1.681,0.338,-0.029,-0.572,0.187,0.337,-0.057,-0.549
1691,-0.13,1.542,0.333,-0.055,-0.53,0.14,0.363,-0.048,-0.565
1692,-0.038,1.4,0.331,-0.121,-0.497,0.155,0.361,-0.048,-0.561
1693,0.053,1.252,0.327,-0.183,-0.434,0.142,0.361,-0.048,-0.561
1694,0.131,1.108,0.294,-0.217,-0.397,0.165,0.397,-0.045,-0.579
1695,0.191,0.93,0.24,-0.197,-0.398,0.211,0.399,-0.043,-0.565
1696,0.26,0.719,0.203,-0.163,-0.408,0.253,0.396,-0.049,-0.583
1697,0.34,0.525,0.179,-0.131,-0.432,0.281,0.409,-0.052,-0.595
1698,0.427,0.364,0.183,-0.1,-0.443,0.292,0.405,-0.04,-0.598
1699,0.519,0.212,0.207,-0.076,-0.431,0.294,0.387,-0.058,-0.586
1700,0.628,0.085,0.245,-0.055,-0.432,0.323,0.387,-0.058,-0.586
1701,0.732,-0.031,0.284,-0.021,-0.45,0.366,0.397,-0.042,-0.588
1702,0.82,-0.129,0.31,0.015,-0.477,0.427,0.396,-0.07,-0.589
1703,0.871,-0.183,0.317,0.053,-0.525,0.499,0.373,-0.073,-0.586
1704,0.893,-0.179,0.327,0.053,-0.525,0.499,0.373,-0.07,-0.568
1705,0.875,-0.152,0.332,0.12,-0.596,0.567,0.4,-0.066,-0.573
1706,0.848,-0.105,0.333,0.172,-0.679,0.65,0.397,-0.067,-0.556
1707,0.848,-0.105,0.333,0.219,-0.781,0.716,0.397,-0.067,-0.556
1708,0.803,-0.035,0.346,0.277,-0.907,0.785,0.394,-0.072,-0.562
1709,0.713,0.066,0.361,0.317,-1.043,0.864,0.399,-0.087,-0.559
1710,0.539,0.21,0.354,0.391,-1.185,0.905,0.399,-0.087,-0.559
1711,0.278,0.312,0.361,0.447,-1.338,0.94,0.39,-0.094,-0.535
1712,-0.004,0.312,0.371,0.442,-1.465,0.945,0.388,-0.103,-0.555
1713,-0.169,0.164,0.394,0.413,-1.481,0.839,0.376,-0.087,-0.571
1714,-0.218,0.06,0.382,0.329,-1.362,0.743,0.376,-0.087,-0.571
1715,-0.273,0.189,0.329,0.138,-1.092,0.755,0.382,-0.094,-0.564
1716,-0.282,0.526,0.238,-0.141,-0.663,0.762,0.378,-0.091,-0.558
1717,-0.143,0.824,0.148,-0.379,-0.24,0.719,0.379,-0.067,-0.571
1718,0.114,0.909,0.051,-0.424,-0.037,0.629,0.375,-0.1,-0.582
1719,0.333,0.85,-0.031,-0.362,-0.092,0.504,0.409,-0.088,-0.583
1720,0.394,0.592,-0.043,-0.216,-0.392,0.373,0.405,-0.091,-0.588
1721,0.346,0.217,-0.044,0.069,-1.024,0.283,0.405,-0.091,-0.588
1722,0.062,-0.007,-0.086,0.328,-1.717,0.25,0.385,-0.085,-0.576
1723,-0.308,0.062,-0.271,0.328,-1.996,0.256,0.411,-0.085,-0.571
1724,-0.497,0.385,-0.392,0.437,-1.996,0.256,0.406,-0.082,-0.564
1725,-0.54,0.745,-0.28,0.551,-1.998,0.295,0.406,-0.082,-0.564
1726,-0.34,0.162,-0.055,0.542,-1.746,0.446,0.42,-0.093,-0.577
1727,-0.34,0.162,-0.055,0.065,-0.911,0.149,0.421,-0.079,-0.586
1728,0.144,-0.521,-0.037,-0.542,-0.171,-0.411,0.421,-0.079,-0.586
1729,0.392,-0.536,-0.266,-0.709,-0.062,-0.256,0.432,-0.099,-0.586
1730,0.247,-0.293,-0.466,-0.437,-0.241,0.191,0.399,-0.097,-0.588
1731,-0.05,-0.2,-0.546,-0.107,-0.497,0.308,0.424,-0.09,-0.592
1732,-0.139,-0.579,-0.513,0.126,-0.672,0.159,0.426,-0.096,-0.595
1733,0.149,-1.394,-0.379,0.247,-0.799,-0.143,0.393,-0.094,-0.601
1734,0.614,-1.945,-0.245,0.336,-1.071,-0.408,0.4,-0.097,-0.576
1735,0.874,-1.895,-0.106,0.574,-1.445,-0.465,0.4,-0.097,-0.576
1736,0.884,-1.432,0.1,0.907,-1.659,-0.331,0.387,-0.106,-0.571
1737,0.819,-1.038,0.336,1.021,-1.58,-0.085,0.372,-0.112,-0.553
1738,0.718,-0.892,0.478,0.799,-1.288,0.114,0.345,-0.117,-0.558
1739,0.579,-0.892,0.505,0.416,-0.976,0.296,0.345,-0.117,-0.558
1740,0.547,-0.886,0.428,0.086,-0.709,0.353,0.331,-0.114,-0.55
1741,0.621,-0.961,0.312,-0.104,-0.578,0.332,0.34,-0.111,-0.528
1742,0.549,-1.102,0.121,-0.18,-0.618,0.353,0.34,-0.111,-0.528
1743,0.492,-1.285,-0.001,-0.18,-0.618,0.353,0.351,-0.118,-0.528
1744,0.571,-1.472,-0.03,-0.116,-0.705,0.276,0.336,-0.124,-0.519
1745,0.656,-1.482,-0.03,0.028,-0.785,0.095,0.316,-0.118,-0.507
1746,0.704,-1.398,0.005,0.172,-0.862,-0.094,0.316,-0.13,-0.505
1747,0.77,-1.204,0.057,0.321,-0.923,-0.206,0.318,-0.127,-0.484
1748,0.77,-1.204,0.057,0.472,-0.933,-0.28,0.309,-0.133,-0.486
1749,0.852,-0.965,0.134,0.6,-0.956,-0.288,0.309,-0.133,-0.486
1750,0.877,-0.863,0.205,0.589,-0.964,-0.176,0.292,-0.147,-0.487
1751,0.812,-0.857,0.192,0.421,-0.91,-0.024,0.3,-0.147,-0.471
1752,0.739,-0.789,0.136,0.292,-0.86,0.057,0.285,-0.145,-0.451
1753,0.725,-0.742,0.14,0.213,-0.841,0.121,0.271,-0.138,-0.448
1754,0.695,-0.763,0.123,0.16,-0.842,0.166,0.283,-0.162,-0.456
1755,0.707,-0.795,0.088,0.148,-0.811,0.149,0.268,-0.136,-0.442
1756,0.639,-0.822,0.047,0.221,-0.812,0.067,0.268,-0.136,-0.442
1757,0.581,-0.81,-0.012,0.342,-0.84,-0.028,0.273,-0.148,-0.417
1758,0.495,-0.788,-0.077,0.327,-0.832,-0.065,0.267,-0.133,-0.43
1759,0.401,-0.67,-0.152,0.331,-0.851,-0.083,0.283,-0.154,-0.403
1760,0.365,-0.619,-0.156,0.375,-0.865,-0.052,0.273,-0.138,-0.414
1761,0.364,-0.641,-0.164,0.358,-0.832,-0.005,0.273,-0.156,-0.43
1762,0.362,-0.639,-0.185,0.358,-0.832,-0.005,0.273,-0.138,-0.397
1763,0.371,-0.596,-0.202,0.349,-0.813,0.015,0.273,-0.138,-0.397
1764,0.391,-0.54,-0.217,0.344,-0.819,0.007,0.274,-0.157,-0.4
1765,0.434,-0.494,-0.235,0.338,-0.815,-0.009,0.279,-0.139,-0.399
1766,0.434,-0.494,-0.235,0.333,-0.811,0.003,0.258,-0.162,-0.367
1767,0.518,-0.488,-0.287,0.314,-0.822,0.055,0.276,-0.159,-0.378
1768,0.518,-0.488,-0.287,0.301,-0.838,0.112,0.301,-0.177,-0.381
1769,0.536,-0.522,-0.315,0.298,-0.852,0.133,0.279,-0.166,-0.352
1770,0.545,-0.543,-0.329,0.305,-0.86,0.109,0.279,-0.166,-0.352
1771,0.536,-0.531,-0.352,0.33,-0.868,0.076,0.271,-0.168,-0.369
1772,0.541,-0.496,-0.362,0.355,-0.881,0.063,0.274,-0.162,-0.355
1773,0.531,-0.469,-0.366,0.373,-0.895,0.063,0.276,-0.156,-0.34
1774,0.523,-0.427,-0.35,0.379,-0.907,0.077,0.274,-0.172,-0.343
1775,0.48,-0.404,-0.329,0.382,-0.916,0.102,0.267,-0.189,-0.334
1776,0.438,-0.406,-0.271,0.374,-0.933,0.118,0.274,-0.177,-0.333
1777,0.371,-0.414,-0.222,0.358,-0.96,0.126,0.274,-0.177,-0.333
1778,0.221,-0.448,-0.264,0.413,-0.994,0.103,0.288,-0.166,-0.334
1779,0.169,-0.398,-0.219,0.479,-1.007,0.041,0.28,-0.168,-0.313
1780,0.091,-0.345,-0.196,0.439,-1.009,0.047,0.267,-0.186,-0.321
1781,0.007,-0.275,-0.203,0.339,-1.059,0.085,0.277,-0.18,-0.319
1782,-0.077,-0.096,-0.217,0.296,-1.117,0.082,0.298,-0.187,-0.34
1783,-0.158,0.043,-0.25,0.296,-1.117,0.082,0.291,-0.193,-0.327
1784,-0.217,0.109,-0.263,0.336,-1.154,0.133,0.291,-0.193,-0.327
1785,-0.253,0.056,-0.232,0.436,-1.154,0.2,0.288,-0.171,-0.312
1786,-0.298,-0.007,-0.155,0.558,-1.132,0.161,0.294,-0.172,-0.321
1787,-0.298,-0.007,-0.155,0.68,-1.136,0.074,0.283,-0.168,-0.307
1788,-0.298,0.067,0.002,0.767,-1.14,0.023,0.283,-0.168,-0.307
1789,-0.319,0.179,0.149,0.769,-1.142,-0.031,0.286,-0.187,-0.333
1790,-0.323,0.352,0.156,0.663,-1.164,-0.156,0.277,-0.181,-0.331
1791,-0.446,0.646,0.107,0.421,-1.252,-0.175,0.277,-0.181,-0.331
1792,-0.658,0.783,0.032,0.126,-1.308,-0.078,0.288,-0.171,-0.345
1793,-0.914,0.863,-0.088,-0.022,-1.294,-0.07,0.282,-0.181,-0.337
1794,-1.158,1.0,-0.112,0.008,-1.283,-0.141,0.28,-0.165,-0.357
1795,-1.304,1.087,-0.073,0.111,-1.278,-0.172,0.262,-0.177,-0.394
1796,-1.329,0.995,0.063,0.186,-1.327,-0.117,0.303,-0.171,-0.394
1797,-1.285,0.799,0.182,0.09,-1.351,-0.078,0.286,-0.16,-0.408
1798,-1.253,0.643,0.207,-0.033,-1.379,-0.026,0.286,-0.16,-0.408
1799,-1.271,0.429,0.23,-0.004,-1.439,0.03,0.285,-0.171,-0.426
1800,-1.372,0.181,0.222,0.043,-1.481,0.057,0.289,-0.16,-0.432
1801,-1.533,0.074,0.133,0.043,-1.481,0.057,0.282,-0.153,-0.445
1802,-1.624,0.004,0.046,0.03,-1.353,0.036,0.282,-0.153,-0.445
1803,-1.71,-0.042,0.029,0.005,-1.354,-0.029,0.295,-0.138,-0.462
1804,-1.663,-0.079,0.092,-0.005,-1.264,-0.056,0.307,-0.123,-0.469
1805,-1.628,0.001,0.095,0.006,-1.184,-0.104,0.307,-0.123,-0.469
1806,-1.558,0.215,0.042,0.04,-1.088,-0.177,0.313,-0.117,-0.48
1807,-1.558,0.215,0.042,0.083,-1.027,-0.13,0.292,-0.117,-0.496
1808,-1.417,0.363,-0.018,0.168,-1.014,-0.096,0.295,-0.123,-0.481
1809,-1.276,0.575,-0.03,0.276,-1.054,-0.083,0.289,-0.109,-0.496
1810,-1.25,0.822,-0.009,0.374,-1.075,-0.027,0.307,-0.114,-0.517
1811,-1.257,1.124,0.038,0.441,-1.057,0.023,0.313,-0.093,-0.52
1812,-1.285,1.33,0.08,0.441,-1.036,0.078,0.313,-0.093,-0.52
1813,-1.248,1.519,0.112,0.4,-0.989,0.038,0.315,-0.097,-0.529
1814,-1.12,1.707,0.202,0.319,-0.895,-0.052,0.336,-0.096,-0.541
1815,-0.981,1.743,0.273,0.201,-0.778,-0.012,0.325,-0.076,-0.555
1816,-0.82,1.646,0.281,0.089,-0.708,0.122,0.337,-0.085,-0.565
1817,-0.644,1.477,0.284,0.009,-0.689,0.15,0.37,-0.07,-0.591
1818,-0.477,1.411,0.31,-0.021,-0.697,0.099,0.339,-0.07,-0.592
1819,-0.378,1.384,0.319,-0.05,-0.711,0.096,0.339,-0.07,-0.592
1820,-0.333,1.391,0.31,-0.087,-0.709,0.127,0.358,-0.064,-0.598
1821,-0.29,1.361,0.291,-0.101,-0.676,0.164,0.373,-0.067,-0.609
1822,-0.22,1.272,0.276,-0.104,-0.619,0.19,0.388,-0.058,-0.595
1823,-0.102,1.13,0.292,-0.104,-0.619,0.19,0.37,-0.061,-0.6
1824,-0.008,0.95,0.301,-0.118,-0.561,0.227,0.39,-0.049,-0.601
1825,0.112,0.751,0.298,-0.146,-0.499,0.276,0.396,-0.061,-0.612
1826,0.233,0.562,0.286,-0.148,-0.436,0.264,0.396,-0.061,-0.612
1827,0.233,0.562,0.286,-0.133,-0.409,0.271,0.397,-0.034,-0.606
1828,0.312,0.378,0.258,-0.1,-0.415,0.302,0.408,-0.049,-0.633
1829,0.377,0.22,0.235,-0.05,-0.438,0.313,0.399,-0.04,-0.637
1830,0.431,0.095,0.228,-0.021,-0.462,0.333,0.412,-0.046,-0.61
1831,0.499,-0.011,0.238,-0.002,-0.471,0.346,0.412,-0.046,-0.61
1832,0.588,-0.096,0.259,0.019,-0.468,0.337,0.408,-0.06,-0.628
1833,0.674,-0.173,0.275,0.024,-0.471,0.353,0.411,-0.066,-0.595
1834,0.739,-0.231,0.285,0.021,-0.484,0.41,0.406,-0.057,-0.601
1835,0.788,-0.273,0.287,0.035,-0.522,0.47,0.399,-0.073,-0.603
1836,0.831,-0.268,0.272,0.068,-0.595,0.535,0.391,-0.078,-0.594
1837,0.856,-0.198,0.274,0.117,-0.677,0.609,0.391,-0.078,-0.594
1838,0.846,-0.1,0.289,0.179,-0.773,0.675,0.388,-0.084,-0.576
1839,0.808,0.007,0.323,0.24,-0.909,0.757,0.384,-0.094,-0.586
1840,0.718,0.107,0.359,0.289,-1.052,0.85,0.391,-0.082,-0.58
1841,0.555,0.176,0.4,0.351,-1.176,0.929,0.391,-0.085,-0.574
1842,0.316,0.216,0.407,0.351,-1.176,0.929,0.382,-0.087,-0.579
1843,0.03,0.194,0.396,0.405,-1.332,1.004,0.382,-0.087,-0.579
1844,-0.184,0.09,0.387,0.42,-1.45,1.008,0.375,-0.078,-0.558
1845,-0.255,-0.005,0.367,0.396,-1.453,0.872,0.372,-0.088,-0.574
1846,-0.255,0.173,0.367,0.318,-1.36,0.716,0.385,-0.079,-0.573
1847,-0.267,0.133,0.328,0.159,-1.165,0.682,0.388,-0.079,-0.574
1848,-0.254,0.527,0.252,-0.075,-0.877,0.698,0.393,-0.078,-0.583
1849,-0.165,0.945,0.155,-0.331,-0.583,0.68,0.393,-0.078,-0.583
1850,-0.018,1.138,0.065,-0.411,-0.518,0.648,0.388,-0.085,-0.586
1851,0.098,0.99,-0.009,-0.205,-0.771,0.526,0.391,-0.076,-0.583
1852,0.137,0.58,-0.102,0.102,-1.182,0.292,0.391,-0.076,-0.583
1853,0.113,0.149,-0.204,0.305,-1.549,0.092,0.411,-0.091,-0.601
1854,-0.152,-0.042,-0.247,0.311,-1.769,0.196,0.402,-0.072,-0.583
1855,-0.354,0.175,-0.228,0.101,-1.643,0.437,0.408,-0.078,-0.591
1856,-0.363,0.345,-0.241,-0.136,-1.076,0.459,0.408,-0.078,-0.591
1857,-0.204,0.035,-0.303,-0.323,-0.538,0.17,0.411,-0.076,-0.594
1858,0.019,-0.314,-0.424,-0.387,-0.369,-0.105,0.417,-0.094,-0.585
1859,0.07,-0.331,-0.471,-0.218,-0.496,-0.017,0.393,-0.085,-0.588
1860,-0.07,-0.214,-0.4,0.027,-0.731,0.191,0.409,-0.081,-0.592
1861,-0.15,-0.338,-0.254,0.027,-0.731,0.191,0.429,-0.073,-0.594
1862,0.056,-0.848,-0.088,0.197,-0.892,0.228,0.417,-0.075,-0.597
1863,0.408,-1.449,0.021,0.263,-0.941,0.07,0.417,-0.075,-0.597
1864,0.655,-1.753,0.032,0.305,-1.011,-0.121,0.4,-0.076,-0.603
1865,0.655,-1.753,0.032,0.4,-1.147,-0.246,0.391,-0.094,-0.567
1866,0.749,-1.726,0.053,0.547,-1.285,-0.265,0.391,-0.094,-0.567
1867,0.699,-1.448,0.128,0.646,-1.377,-0.193,0.378,-0.091,-0.574
1868,0.522,-1.051,0.211,0.618,-1.36,-0.051,0.37,-0.087,-0.568
1869,0.395,-0.749,0.289,0.461,-1.191,0.098,0.369,-0.105,-0.55
1870,0.366,-0.675,0.307,0.225,-0.961,0.231,0.369,-0.105,-0.55
1871,0.337,-0.835,0.235,0.007,-0.773,0.314,0.352,-0.109,-0.541
1872,0.382,-0.924,0.103,-0.086,-0.646,0.234,0.33,-0.084,-0.547
1873,0.408,-1.041,0.025,-0.077,-0.644,0.168,0.337,-0.091,-0.52
1874,0.406,-1.256,-0.01,-0.055,-0.735,0.21,0.336,-0.096,-0.535
1875,0.425,-1.451,-0.021,0.027,-0.824,0.172,0.328,-0.108,-0.504
1876,0.452,-1.683,-0.014,0.123,-0.887,0.073,0.324,-0.108,-0.507
1877,0.508,-1.673,-0.033,0.266,-0.954,-0.064,0.324,-0.108,-0.507
1878,0.544,-1.524,0.003,0.469,-1.03,-0.176,0.325,-0.133,-0.487
1879,0.709,-1.36,0.224,0.668,-1.031,-0.241,0.292,-0.103,-0.493
1880,0.809,-1.258,0.31,0.668,-1.031,-0.241,0.297,-0.106,-0.474
1881,0.783,-1.093,0.252,0.602,-0.944,-0.169,0.285,-0.118,-0.45
1882,0.733,-0.954,0.176,0.432,-0.832,-0.062,0.297,-0.12,-0.439
1883,0.715,-0.888,0.114,0.291,-0.77,-0.025,0.297,-0.12,-0.439
1884,0.691,-0.815,0.056,0.232,-0.748,0.022,0.282,-0.111,-0.427
1885,0.691,-0.815,0.056,0.211,-0.765,0.047,0.273,-0.106,-0.426
1886,0.652,-0.802,0.007,0.205,-0.801,0.071,0.282,-0.126,-0.424
1887,0.613,-0.809,-0.032,0.25,-0.839,0.035,0.288,-0.115,-0.414
1888,0.594,-0.737,-0.028,0.324,-0.884,-0.037,0.267,-0.126,-0.409
1889,0.534,-0.702,-0.061,0.281,-0.855,0.032,0.27,-0.132,-0.403
1890,0.469,-0.562,-0.129,0.293,-0.861,0.039,0.27,-0.132,-0.403
1891,0.45,-0.502,-0.139,0.348,-0.9,-0.008,0.273,-0.121,-0.412
1892,0.427,-0.491,-0.158,0.309,-0.879,0.048,0.262,-0.127,-0.403
1893,0.386,-0.499,-0.184,0.309,-0.872,0.058,0.258,-0.132,-0.37
1894,0.366,-0.511,-0.199,0.308,-0.847,0.043,0.261,-0.127,-0.369
1895,0.37,-0.51,-0.231,0.318,-0.817,0.013,0.274,-0.133,-0.384
1896,0.394,-0.494,-0.26,0.323,-0.798,-0.015,0.273,-0.132,-0.393
1897,0.431,-0.457,-0.284,0.323,-0.798,-0.028,0.273,-0.132,-0.393
1898,0.484,-0.439,-0.308,0.338,-0.812,-0.018,0.277,-0.135,-0.382
1899,0.541,-0.429,-0.323,0.334,-0.823,0.013,0.273,-0.156,-0.385
1900,0.56,-0.443,-0.354,0.314,-0.859,0.063,0.276,-0.157,-0.34
1901,0.597,-0.44,-0.357,0.314,-0.859,0.063,0.277,-0.141,-0.375
1902,0.6,-0.411,-0.367,0.309,-0.874,0.072,0.279,-0.169,-0.366
1903,0.605,-0.399,-0.362,0.294,-0.897,0.113,0.279,-0.154,-0.345
1904,0.605,-0.399,-0.362,0.302,-0.889,0.131,0.279,-0.154,-0.345
1905,0.581,-0.384,-0.346,0.337,-0.859,0.097,0.27,-0.169,-0.339
1906,0.515,-0.387,-0.334,0.352,-0.867,0.079,0.268,-0.165,-0.333
1907,0.462,-0.399,-0.299,0.358,-0.893,0.062,0.271,-0.165,-0.309
1908,0.4,-0.424,-0.259,0.352,-0.936,0.072,0.277,-0.178,-0.328
1909,0.331,-0.444,-0.228,0.371,-0.963,0.074,0.276,-0.166,-0.304
1910,0.216,-0.454,-0.244,0.443,-0.964,0.03,0.286,-0.159,-0.316
1911,0.142,-0.405,-0.223,0.496,-0.977,0.008,0.286,-0.159,-0.316
1912,0.081,-0.375,-0.188,0.464,-0.988,0.028,0.289,-0.18,-0.312
1913,-0.003,-0.269,-0.177,0.386,-1.001,0.021,0.292,-0.178,-0.298
