,Gyroscope X (deg/s),Gyroscope Y (deg/s),Gyroscope Z (deg/s),Accelerometer X (g),Accelerometer Y (g),Accelerometer Z (g),Magnetometer X (G),Magnetometer Y (G),Magnetometer Z (G)
0,0.026,0.027,0.029,-0.248,0.98,0.112,0.769,0.433,-0.526
1,0.026,0.027,0.029,-0.248,0.98,0.112,0.769,0.433,-0.526
2,0.026,0.027,0.029,-0.248,0.98,0.112,0.769,0.433,-0.526
3,0.051,0.009,0.03,-0.248,0.98,0.112,0.757,0.436,-0.531
4,0.037,0.018,0.018,-0.242,0.971,0.107,0.765,0.436,-0.531
5,0.031,0.017,-0.004,-0.223,0.952,0.105,0.765,0.436,-0.531
6,0.023,0.009,-0.025,-0.215,0.946,0.115,0.771,0.436,-0.537
7,0.016,0.05,-0.044,-0.206,0.958,0.115,0.766,0.435,-0.54
8,-0.025,0.114,-0.036,-0.206,0.958,0.115,0.757,0.436,-0.523
9,-0.1,0.169,-0.051,-0.159,0.938,0.119,0.759,0.442,-0.538
10,-0.2,0.407,-0.152,-0.168,0.918,0.142,0.759,0.442,-0.538
11,-0.329,0.41,-0.262,-0.234,0.9,0.152,0.774,0.429,-0.532
12,-0.231,0.49,-0.198,-0.205,0.881,0.101,0.766,0.445,-0.532
13,-0.046,0.375,-0.188,-0.102,0.863,0.031,0.781,0.424,-0.514
14,-0.039,0.197,-0.189,-0.174,0.93,0.151,0.774,0.433,-0.51
15,-0.042,0.133,-0.114,-0.27,1.053,0.228,0.819,0.415,-0.526
16,-0.04,0.049,-0.084,-0.227,1.067,0.162,0.811,0.424,-0.537
17,0.024,0.058,-0.026,-0.191,1.025,0.12,0.808,0.433,-0.511
18,0.026,0.042,-0.004,-0.209,1.039,0.087,0.819,0.453,-0.502
19,0.019,0.016,-0.02,-0.22,1.007,0.079,0.838,0.471,-0.495
20,-0.041,0.0,-0.032,-0.223,0.945,0.059,0.837,0.454,-0.489
21,-0.012,-0.028,-0.023,-0.264,0.962,0.078,0.832,0.459,-0.493
22,-0.014,-0.079,-0.092,-0.24,1.094,0.101,0.84,0.463,-0.471
23,-0.053,-0.164,-0.199,-0.207,1.102,0.061,0.82,0.456,-0.475
24,0.049,-0.209,-0.253,-0.258,0.734,-0.032,0.825,0.465,-0.489
25,0.085,-0.227,-0.265,-0.258,0.734,-0.032,0.805,0.459,-0.465
26,0.179,-0.17,-0.28,-0.126,0.929,0.101,0.814,0.478,-0.466
27,0.292,-0.089,-0.301,-0.206,1.018,0.078,0.814,0.478,-0.466
28,0.344,0.039,-0.203,-0.221,0.949,0.143,0.84,0.447,-0.501
29,0.322,0.065,-0.086,-0.147,0.849,0.099,0.811,0.451,-0.471
30,0.605,0.172,0.171,-0.209,0.922,-0.001,0.817,0.466,-0.483
31,0.538,0.105,0.149,-0.396,1.237,0.172,0.822,0.463,-0.49
32,-0.009,-0.043,0.028,-0.042,0.749,-0.217,0.808,0.441,-0.489
33,-0.172,0.039,0.014,0.068,0.663,-0.242,0.808,0.441,-0.489
34,-0.331,-0.032,-0.01,-0.301,1.19,0.259,0.84,0.445,-0.501
35,-0.2,0.079,0.037,-0.396,1.292,0.23,0.825,0.448,-0.484
36,-0.203,0.147,-0.004,-0.289,1.163,0.25,0.834,0.454,-0.505
37,-0.199,0.2,-0.077,-0.276,1.017,0.267,0.823,0.453,-0.502
38,-0.182,0.178,-0.24,-0.475,1.289,0.364,0.817,0.462,-0.492
39,-0.287,-0.017,-0.506,-0.278,1.284,0.531,0.822,0.466,-0.514
40,0.009,0.053,-0.807,-0.162,1.141,0.337,0.808,0.469,-0.484
41,0.037,0.004,-0.659,0.138,1.067,0.183,0.816,0.45,-0.474
42,-0.093,-0.107,-0.527,-0.081,1.05,0.093,0.795,0.477,-0.492
43,-0.075,-0.067,-0.454,-0.081,1.05,0.093,0.769,0.489,-0.483
44,-0.373,-0.191,-0.441,-0.079,0.971,0.284,0.798,0.474,-0.474
45,-0.66,-0.522,-0.48,-0.079,0.971,0.284,0.783,0.493,-0.469
46,-0.215,-0.338,-0.396,0.003,1.039,-0.077,0.783,0.493,-0.469
47,0.058,-0.125,-0.414,0.06,1.109,-0.224,0.78,0.483,-0.466
48,0.056,-0.141,-0.324,-0.063,1.064,-0.126,0.75,0.486,-0.484
49,0.101,-0.256,-0.36,-0.043,1.068,-0.089,0.747,0.498,-0.49
50,0.072,-0.011,-0.312,0.022,1.006,-0.079,0.738,0.51,-0.474
51,0.05,-0.076,-0.295,-0.077,1.079,-0.117,0.75,0.49,-0.478
52,0.044,-0.3,-0.227,-0.015,1.11,0.032,0.748,0.51,-0.466
53,0.025,-0.034,-0.067,0.294,1.006,0.013,0.744,0.513,-0.484
54,0.07,-0.018,-0.009,0.272,0.969,0.002,0.738,0.519,-0.478
55,0.077,-0.046,0.078,0.072,1.017,0.077,0.742,0.501,-0.487
56,0.126,-0.009,0.044,0.045,1.064,0.069,0.727,0.499,-0.489
57,0.137,0.023,-0.024,0.045,0.998,0.038,0.727,0.514,-0.486
58,0.097,0.035,-0.053,0.032,0.93,0.044,0.718,0.504,-0.499
59,0.026,0.023,-0.053,0.059,0.994,0.096,0.765,0.495,-0.505
60,-0.002,-0.007,-0.046,0.054,0.997,0.068,0.724,0.48,-0.495
61,0.054,-0.074,-0.049,0.046,0.996,0.053,0.733,0.499,-0.513
62,0.074,-0.063,-0.046,0.047,1.013,0.073,0.733,0.499,-0.513
63,0.063,-0.063,-0.039,0.075,1.048,0.099,0.744,0.49,-0.502
64,0.11,-0.078,-0.046,0.087,1.027,0.112,0.729,0.486,-0.496
65,0.076,-0.139,-0.075,0.053,0.966,0.084,0.736,0.499,-0.484
66,-0.353,-0.215,0.022,0.027,0.941,0.047,0.732,0.49,-0.508
67,-0.263,-0.301,0.063,0.021,1.039,0.056,0.741,0.496,-0.501
68,0.018,-0.367,0.039,0.008,1.049,0.122,0.726,0.49,-0.502
69,0.339,-0.325,-0.07,0.025,0.988,0.19,0.724,0.492,-0.502
70,0.298,-0.22,-0.116,0.049,1.087,0.166,0.721,0.504,-0.496
71,0.361,-0.202,-0.231,0.038,1.113,0.145,0.718,0.489,-0.508
72,0.407,-0.139,-0.299,0.058,1.053,0.199,0.718,0.492,-0.529
73,0.445,-0.082,-0.354,0.071,0.99,0.221,0.705,0.486,-0.532
74,0.203,0.046,-0.233,0.058,0.957,0.205,0.7,0.478,-0.532
75,0.109,0.057,-0.14,0.05,1.019,0.209,0.697,0.484,-0.529
76,0.048,0.063,-0.048,0.038,1.032,0.226,0.697,0.477,-0.535
77,-0.029,0.105,0.025,0.038,1.032,0.226,0.694,0.484,-0.523
78,-0.091,0.137,0.063,0.068,1.003,0.185,0.706,0.495,-0.538
79,-0.123,0.137,0.06,0.085,1.0,0.163,0.702,0.474,-0.499
80,-0.104,0.091,0.046,0.102,1.033,0.188,0.702,0.474,-0.499
81,-0.049,0.064,0.013,0.144,1.031,0.186,0.72,0.495,-0.525
82,-0.006,0.032,-0.034,0.157,1.025,0.179,0.714,0.495,-0.526
83,0.005,0.007,-0.082,0.151,0.999,0.177,0.69,0.487,-0.525
84,-0.024,-0.057,-0.154,0.139,0.962,0.16,0.702,0.489,-0.522
85,-0.024,-0.101,-0.166,0.11,0.96,0.137,0.684,0.487,-0.528
86,-0.039,-0.077,-0.105,0.094,0.965,0.127,0.703,0.49,-0.502
87,-0.058,-0.065,-0.048,0.074,0.975,0.143,0.697,0.495,-0.534
88,-0.093,-0.056,-0.033,0.058,0.979,0.144,0.69,0.511,-0.523
89,-0.142,-0.072,-0.031,0.081,0.956,0.139,0.693,0.489,-0.52
90,-0.183,-0.067,-0.027,0.084,0.954,0.162,0.693,0.492,-0.517
91,-0.193,-0.073,-0.037,0.094,0.964,0.164,0.696,0.504,-0.519
92,-0.235,-0.122,-0.091,0.117,0.949,0.162,0.696,0.504,-0.519
93,-0.245,-0.137,-0.125,0.149,0.952,0.123,0.684,0.493,-0.507
94,-0.215,-0.046,-0.091,0.134,0.994,0.079,0.684,0.493,-0.507
95,-0.149,0.052,-0.073,0.134,0.994,0.079,0.682,0.502,-0.49
96,-0.14,0.035,-0.018,0.15,1.001,0.095,0.682,0.502,-0.49
97,-0.042,0.07,0.062,0.171,0.999,0.102,0.685,0.519,-0.498
98,-0.037,0.043,0.111,0.156,1.007,0.101,0.676,0.511,-0.507
99,-0.058,0.023,0.132,0.148,1.001,0.097,0.691,0.499,-0.499
100,-0.059,0.023,0.137,0.139,0.992,0.073,0.699,0.514,-0.504
101,-0.096,0.047,0.144,0.137,0.984,0.062,0.697,0.519,-0.496
102,-0.144,0.046,0.135,0.132,0.982,0.052,0.684,0.504,-0.502
103,-0.159,0.059,0.116,0.129,0.982,0.035,0.705,0.51,-0.499
104,-0.162,0.018,0.092,0.121,0.992,0.053,0.7,0.51,-0.472
105,-0.142,-0.063,0.055,0.108,1.015,0.056,0.714,0.501,-0.495
106,-0.097,-0.134,0.024,0.113,1.033,0.043,0.714,0.501,-0.495
107,-0.03,-0.14,0.025,0.123,1.036,0.062,0.711,0.522,-0.496
108,0.008,-0.113,0.044,0.128,1.038,0.068,0.694,0.493,-0.493
109,0.016,-0.097,0.085,0.13,1.031,0.053,0.697,0.501,-0.493
110,0.018,-0.093,0.11,0.138,0.979,0.05,0.687,0.501,-0.489
111,0.066,-0.13,0.132,0.111,0.958,0.096,0.708,0.513,-0.487
112,0.04,-0.085,0.138,0.111,0.958,0.096,0.705,0.513,-0.498
113,-0.031,-0.037,0.146,0.085,0.954,0.119,0.7,0.514,-0.507
114,-0.065,-0.025,0.091,0.046,0.995,0.105,0.706,0.498,-0.487
115,-0.081,-0.011,0.13,0.054,1.006,0.059,0.7,0.504,-0.49
116,-0.075,-0.041,0.147,0.041,1.066,0.067,0.715,0.526,-0.481
117,-0.055,-0.049,0.123,0.042,1.077,0.065,0.718,0.513,-0.486
118,-0.035,0.104,0.472,0.067,1.016,0.048,0.712,0.52,-0.505
119,-0.036,0.134,0.234,0.023,0.743,-0.358,0.712,0.52,-0.505
120,-0.165,0.145,0.284,-0.037,0.836,-0.362,0.73,0.505,-0.487
121,-0.107,0.023,0.1,-0.152,1.398,0.06,0.724,0.481,-0.492
122,-0.074,0.03,0.009,-0.124,1.331,0.055,0.741,0.514,-0.469
123,-0.06,0.112,-0.009,-0.006,1.043,0.03,0.736,0.501,-0.493
124,-0.032,0.121,-0.016,-0.006,1.017,0.021,0.738,0.483,-0.481
125,-0.033,0.072,-0.01,0.017,0.992,0.012,0.73,0.478,-0.48
126,-0.034,0.007,-0.011,0.034,0.995,0.041,0.736,0.498,-0.486
127,-0.163,0.046,0.174,0.029,0.994,0.055,0.744,0.514,-0.486
128,-0.131,0.028,0.128,0.08,1.024,0.136,0.751,0.51,-0.474
129,0.009,0.067,0.429,0.045,0.51,-0.125,0.733,0.511,-0.48
130,-0.051,-0.014,0.037,0.045,0.51,-0.125,0.753,0.505,-0.465
131,-0.161,0.226,0.545,0.063,0.589,-0.003,0.739,0.496,-0.478
132,-0.061,0.051,0.149,-0.347,1.331,-0.091,0.75,0.498,-0.466
133,-0.133,0.044,0.301,-0.303,1.482,0.102,0.769,0.51,-0.471
134,-0.014,-0.001,0.112,-0.167,1.491,0.139,0.757,0.511,-0.486
135,0.016,0.035,0.018,-0.242,1.511,-0.005,0.741,0.501,-0.472
136,0.003,0.067,0.039,-0.071,1.08,0.04,0.741,0.501,-0.472
137,-0.03,0.074,0.06,-0.059,1.034,0.031,0.747,0.495,-0.472
138,-0.056,0.072,0.075,-0.049,1.002,0.017,0.763,0.514,-0.469
139,-0.065,0.062,0.078,-0.043,0.995,0.009,0.753,0.505,-0.478
140,-0.049,0.067,0.056,-0.047,1.005,0.003,0.763,0.49,-0.46
141,-0.025,0.05,0.025,-0.044,1.017,-0.003,0.775,0.513,-0.471
142,-0.016,0.022,0.013,-0.024,1.007,-0.001,0.756,0.483,-0.448
143,-0.015,0.03,0.008,-0.024,1.001,-0.001,0.763,0.489,-0.459
144,-0.007,-0.001,0.014,-0.035,1.019,-0.004,0.757,0.504,-0.472
145,0.002,-0.012,0.012,-0.034,1.026,-0.007,0.771,0.486,-0.477
146,0.019,-0.009,0.008,-0.044,1.012,-0.007,0.778,0.495,-0.456
147,0.039,0.0,0.007,-0.044,1.012,-0.007,0.757,0.505,-0.471
148,0.05,0.066,-0.016,-0.057,1.032,-0.01,0.744,0.492,-0.46
149,0.067,0.112,-0.034,-0.064,1.022,-0.012,0.763,0.495,-0.447
150,0.042,0.131,-0.009,-0.075,1.008,-0.019,0.763,0.514,-0.466
151,0.032,0.13,0.013,-0.062,1.014,-0.003,0.768,0.481,-0.468
152,0.01,0.133,0.018,-0.026,1.008,0.017,0.768,0.481,-0.468
153,0.006,0.103,0.014,-0.053,0.996,0.013,0.775,0.499,-0.465
154,-0.003,0.067,0.012,-0.081,1.012,0.014,0.789,0.495,-0.456
155,-0.002,0.015,-0.002,-0.087,1.024,0.02,0.792,0.486,-0.468
156,0.005,-0.006,-0.009,-0.094,1.025,0.032,0.78,0.483,-0.472
157,0.014,-0.004,-0.013,-0.083,1.016,0.015,0.762,0.492,-0.469
158,0.016,-0.004,-0.009,-0.07,1.0,-0.007,0.769,0.493,-0.477
159,0.016,0.007,-0.007,-0.062,1.006,0.007,0.772,0.513,-0.472
160,0.043,-0.008,-0.021,-0.069,1.003,0.014,0.763,0.492,-0.462
161,0.033,-0.004,-0.019,-0.08,0.992,0.011,0.774,0.499,-0.459
162,0.021,-0.005,-0.011,-0.083,1.001,0.024,0.786,0.486,-0.462
163,0.016,0.004,-0.007,-0.083,1.014,0.026,0.784,0.492,-0.457
164,0.006,0.01,-0.005,-0.082,1.007,0.016,0.766,0.501,-0.487
165,0.0,0.007,-0.009,-0.082,1.007,0.016,0.769,0.492,-0.466
166,-0.007,0.009,-0.012,-0.08,1.001,0.016,0.754,0.498,-0.427
167,-0.016,-0.001,-0.012,-0.082,0.995,0.006,0.786,0.499,-0.463
168,-0.027,-0.012,-0.007,-0.076,0.988,0.003,0.784,0.492,-0.465
169,-0.035,0.0,0.0,-0.073,1.002,0.006,0.784,0.492,-0.465
170,-0.04,0.014,0.004,-0.076,1.015,0.001,0.762,0.507,-0.462
171,-0.047,0.015,0.007,-0.075,1.008,-0.001,0.762,0.507,-0.462
172,-0.049,0.016,0.004,-0.072,1.005,-0.003,0.765,0.487,-0.469
173,-0.047,0.016,-0.003,-0.068,1.004,-0.008,0.789,0.487,-0.448
174,-0.041,0.009,-0.005,-0.063,1.003,-0.01,0.774,0.462,-0.453
175,-0.034,0.01,-0.001,-0.074,1.023,-0.001,0.786,0.499,-0.462
176,-0.028,0.019,-0.001,-0.091,1.049,0.017,0.801,0.495,-0.444
177,-0.007,0.018,0.007,-0.078,1.021,0.014,0.775,0.499,-0.457
178,0.011,0.029,0.023,-0.073,0.997,-0.004,0.774,0.489,-0.466
179,0.02,0.032,0.024,-0.083,1.006,-0.005,0.787,0.487,-0.43
180,0.027,0.027,0.028,-0.082,1.002,0.007,0.784,0.477,-0.456
181,0.035,0.013,0.028,-0.081,0.996,0.021,0.781,0.489,-0.462
182,0.035,0.003,0.01,-0.082,0.99,0.02,0.781,0.502,-0.463
183,0.031,-0.004,-0.002,-0.082,0.99,0.02,0.784,0.496,-0.433
184,0.033,0.002,-0.002,-0.09,1.008,0.007,0.796,0.492,-0.483
185,0.034,0.015,0.001,-0.085,1.008,0.013,0.78,0.492,-0.468
186,0.035,0.016,-0.007,-0.091,1.001,0.023,0.784,0.492,-0.45
187,0.036,0.004,-0.005,-0.11,1.041,0.027,0.784,0.492,-0.45
188,0.036,-0.004,-0.03,-0.108,1.053,0.034,0.772,0.49,-0.436
189,0.041,0.0,-0.018,-0.071,1.003,0.026,0.781,0.481,-0.456
190,0.035,0.0,-0.029,-0.072,1.001,0.019,0.804,0.493,-0.451
191,0.039,-0.002,-0.023,-0.082,1.026,0.015,0.784,0.481,-0.462
192,0.044,-0.002,-0.018,-0.081,1.023,0.022,0.777,0.481,-0.469
193,0.044,0.001,-0.018,-0.098,1.013,0.034,0.778,0.486,-0.463
194,0.042,0.002,-0.018,-0.097,1.015,0.038,0.781,0.495,-0.483
195,0.042,0.0,-0.023,-0.099,1.019,0.041,0.787,0.498,-0.453
196,0.046,-0.01,-0.028,-0.102,1.017,0.035,0.805,0.493,-0.475
197,0.044,-0.019,-0.035,-0.105,1.009,0.033,0.798,0.501,-0.48
198,0.039,-0.018,-0.041,-0.105,1.006,0.04,0.774,0.508,-0.477
199,0.034,-0.015,-0.044,-0.106,1.007,0.052,0.777,0.499,-0.483
200,0.028,-0.016,-0.046,-0.106,1.007,0.052,0.781,0.498,-0.478
201,0.023,-0.028,-0.046,-0.111,1.003,0.056,0.795,0.505,-0.46
202,0.021,-0.046,-0.049,-0.117,1.005,0.062,0.789,0.499,-0.469
203,0.019,-0.059,-0.049,-0.123,1.013,0.067,0.789,0.499,-0.469
204,0.017,-0.071,-0.049,-0.121,1.014,0.071,0.786,0.493,-0.466
205,0.016,-0.081,-0.048,-0.113,1.007,0.073,0.798,0.481,-0.474
206,0.016,-0.084,-0.046,-0.101,1.005,0.071,0.778,0.502,-0.484
207,0.018,-0.084,-0.044,-0.088,1.006,0.071,0.784,0.498,-0.471
208,0.02,-0.075,-0.038,-0.078,1.007,0.071,0.775,0.492,-0.465
209,0.021,-0.065,-0.03,-0.063,1.009,0.068,0.772,0.486,-0.477
210,0.023,-0.056,-0.028,-0.051,1.011,0.06,0.772,0.507,-0.484
211,0.021,-0.044,-0.025,-0.047,1.013,0.048,0.777,0.486,-0.49
212,0.016,-0.03,-0.023,-0.04,1.009,0.049,0.78,0.49,-0.471
213,0.015,-0.013,-0.022,-0.033,1.006,0.053,0.766,0.474,-0.468
214,0.014,0.005,-0.022,-0.031,1.007,0.049,0.765,0.495,-0.471
215,0.014,0.016,-0.021,-0.032,1.004,0.042,0.762,0.489,-0.492
216,0.016,0.018,-0.023,-0.038,1.005,0.035,0.78,0.492,-0.475
217,0.014,0.025,-0.025,-0.044,1.007,0.033,0.78,0.492,-0.475
218,0.011,0.033,-0.026,-0.051,1.011,0.035,0.771,0.493,-0.468
219,0.007,0.035,-0.028,-0.054,1.011,0.035,0.772,0.507,-0.478
220,0.004,0.043,-0.027,-0.052,1.014,0.04,0.775,0.499,-0.489
221,0.004,0.051,-0.023,-0.055,1.015,0.041,0.775,0.493,-0.471
222,0.007,0.056,-0.021,-0.06,1.01,0.037,0.787,0.486,-0.483
223,0.011,0.049,-0.018,-0.062,1.003,0.036,0.786,0.486,-0.469
224,0.016,0.042,-0.017,-0.064,1.003,0.034,0.76,0.484,-0.483
225,0.023,0.039,-0.016,-0.065,1.008,0.036,0.772,0.492,-0.478
226,0.028,0.036,-0.014,-0.064,1.01,0.036,0.768,0.492,-0.471
227,0.029,0.036,-0.014,-0.06,1.005,0.033,0.774,0.49,-0.484
228,0.028,0.037,-0.016,-0.057,1.006,0.028,0.781,0.492,-0.468
229,0.025,0.034,-0.02,-0.055,1.013,0.028,0.792,0.489,-0.483
230,0.023,0.035,-0.023,-0.052,1.013,0.032,0.766,0.511,-0.477
231,0.023,0.031,-0.022,-0.046,1.004,0.033,0.783,0.489,-0.459
232,0.018,0.032,-0.017,-0.046,1.001,0.029,0.763,0.496,-0.472
233,0.012,0.041,-0.011,-0.051,1.006,0.033,0.771,0.486,-0.475
234,0.009,0.044,-0.009,-0.06,1.011,0.053,0.771,0.487,-0.474
235,0.008,0.039,-0.014,-0.06,1.011,0.053,0.784,0.487,-0.474
236,0.013,0.029,-0.021,-0.066,1.016,0.058,0.784,0.487,-0.474
237,0.014,0.02,-0.026,-0.068,1.017,0.057,0.771,0.49,-0.465
238,0.014,0.007,-0.028,-0.073,1.017,0.059,0.777,0.489,-0.448
239,0.014,0.001,-0.025,-0.072,1.015,0.068,0.789,0.492,-0.474
240,0.01,0.002,-0.021,-0.068,1.009,0.07,0.783,0.493,-0.474
241,-0.001,-0.001,-0.02,-0.069,1.002,0.07,0.76,0.495,-0.477
242,-0.002,-0.021,-0.021,-0.072,0.999,0.075,0.762,0.489,-0.463
243,-0.003,-0.038,-0.019,-0.074,1.001,0.077,0.759,0.48,-0.471
244,-0.007,-0.05,-0.018,-0.075,1.003,0.071,0.781,0.498,-0.49
245,-0.009,-0.055,-0.018,-0.07,1.004,0.066,0.769,0.484,-0.475
246,-0.007,-0.052,-0.016,-0.062,1.005,0.067,0.775,0.481,-0.477
247,-0.007,-0.05,-0.013,-0.058,1.007,0.068,0.786,0.498,-0.468
248,-0.009,-0.051,-0.013,-0.054,1.007,0.066,0.759,0.478,-0.457
249,-0.006,-0.053,-0.014,-0.052,1.007,0.063,0.762,0.498,-0.468
250,-0.156,0.074,0.01,-0.055,1.008,0.065,0.798,0.501,-0.469
251,-0.041,-0.013,-0.021,-0.07,1.06,0.083,0.762,0.501,-0.475
252,0.013,-0.053,-0.038,-0.047,1.011,0.045,0.771,0.48,-0.484
253,0.006,-0.036,-0.042,-0.047,1.011,0.045,0.763,0.505,-0.472
254,-0.001,-0.022,-0.042,-0.047,1.01,0.052,0.763,0.505,-0.472
255,0.003,-0.025,-0.04,-0.036,1.002,0.043,0.771,0.469,-0.468
256,-0.003,0.006,-0.036,-0.035,1.006,0.052,0.781,0.496,-0.471
257,0.003,0.026,-0.034,-0.042,1.012,0.051,0.781,0.51,-0.478
258,-0.004,0.042,-0.036,-0.048,1.011,0.046,0.777,0.496,-0.477
259,-0.003,0.04,-0.039,-0.051,1.008,0.042,0.774,0.498,-0.474
260,-0.007,0.053,-0.038,-0.057,1.009,0.046,0.775,0.504,-0.48
261,-0.012,0.067,-0.033,-0.064,1.01,0.054,0.778,0.48,-0.471
262,-0.018,0.073,-0.03,-0.068,1.009,0.045,0.766,0.504,-0.474
263,-0.021,0.071,-0.025,-0.068,1.008,0.036,0.775,0.495,-0.471
264,-0.016,0.066,-0.024,-0.066,1.006,0.044,0.759,0.502,-0.468
265,-0.012,0.057,-0.025,-0.068,1.004,0.055,0.762,0.51,-0.478
266,-0.014,0.044,-0.025,-0.075,1.007,0.059,0.762,0.51,-0.478
267,-0.022,0.03,-0.02,-0.08,1.017,0.06,0.772,0.499,-0.481
268,-0.009,-0.002,-0.021,-0.073,1.017,0.058,0.775,0.486,-0.472
269,-0.002,-0.019,-0.018,-0.065,1.001,0.063,0.768,0.493,-0.469
270,-0.009,-0.025,-0.013,-0.06,1.001,0.055,0.771,0.492,-0.478
271,-0.014,-0.04,-0.013,-0.06,1.001,0.055,0.763,0.52,-0.462
272,-0.014,-0.053,-0.007,-0.052,1.003,0.049,0.759,0.49,-0.451
273,-0.006,-0.051,0.0,-0.046,1.013,0.052,0.778,0.49,-0.453
274,-0.002,-0.046,0.0,-0.042,1.017,0.056,0.766,0.486,-0.468
275,-0.004,-0.044,0.0,-0.031,1.013,0.053,0.768,0.502,-0.475
276,-0.011,-0.037,0.001,-0.024,1.015,0.046,0.775,0.517,-0.487
277,-0.009,-0.023,0.003,-0.022,1.017,0.043,0.762,0.502,-0.477
278,-0.005,-0.011,0.002,-0.02,1.016,0.038,0.783,0.501,-0.463
279,-0.006,-0.007,-0.001,-0.018,1.009,0.035,0.772,0.49,-0.46
280,-0.01,-0.007,-0.005,-0.021,1.007,0.033,0.772,0.49,-0.46
281,-0.012,-0.004,-0.007,-0.026,1.013,0.035,0.771,0.505,-0.466
282,-0.012,0.002,-0.011,-0.031,1.012,0.037,0.76,0.487,-0.477
283,-0.011,0.0,-0.014,-0.038,1.011,0.035,0.763,0.49,-0.492
284,-0.016,-0.005,-0.014,-0.043,1.009,0.033,0.777,0.502,-0.475
285,-0.014,-0.003,-0.011,-0.042,1.009,0.035,0.771,0.501,-0.46
286,-0.01,0.0,-0.009,-0.046,1.01,0.035,0.783,0.489,-0.486
287,-0.009,0.001,-0.006,-0.051,1.01,0.036,0.763,0.499,-0.462
288,-0.006,-0.002,-0.007,-0.051,1.01,0.036,0.787,0.49,-0.472
289,-0.005,-0.012,-0.007,-0.053,1.01,0.04,0.769,0.504,-0.466
290,-0.005,-0.013,-0.004,-0.049,1.012,0.037,0.772,0.495,-0.48
291,-0.005,-0.009,-0.002,-0.047,1.012,0.028,0.774,0.49,-0.471
292,-0.01,-0.007,0.0,-0.048,1.007,0.029,0.762,0.499,-0.465
293,-0.011,-0.016,0.002,-0.048,1.004,0.029,0.793,0.49,-0.483
294,-0.005,-0.019,0.003,-0.05,1.008,0.027,0.765,0.495,-0.477
295,-0.003,-0.021,0.004,-0.051,1.014,0.028,0.775,0.502,-0.474
296,-0.004,-0.027,0.001,-0.049,1.011,0.029,0.775,0.502,-0.474
297,-0.002,-0.032,0.0,-0.048,1.01,0.028,0.781,0.519,-0.462
298,0.0,-0.025,0.002,-0.05,1.013,0.027,0.769,0.51,-0.463
299,-0.005,-0.016,0.005,-0.054,1.011,0.024,0.757,0.511,-0.459
300,-0.009,-0.019,0.004,-0.051,1.009,0.02,0.774,0.505,-0.48
301,-0.007,-0.025,0.004,-0.051,1.008,0.02,0.769,0.498,-0.481
302,-0.001,-0.028,0.004,-0.055,1.009,0.023,0.768,0.495,-0.472
303,0.0,-0.029,0.004,-0.057,1.014,0.026,0.775,0.489,-0.463
304,0.0,-0.027,0.002,-0.055,1.014,0.027,0.766,0.489,-0.475
305,0.0,-0.025,0.002,-0.054,1.013,0.03,0.762,0.504,-0.478
306,-0.002,-0.027,0.002,-0.054,1.013,0.03,0.769,0.481,-0.463
307,-0.004,-0.029,0.001,-0.055,1.014,0.031,0.778,0.483,-0.469
308,-0.002,-0.029,-0.002,-0.058,1.016,0.03,0.78,0.489,-0.481
309,-0.002,-0.025,-0.004,-0.06,1.016,0.028,0.772,0.502,-0.48
310,0.0,-0.025,-0.005,-0.059,1.013,0.026,0.774,0.511,-0.478
311,0.0,-0.018,-0.004,-0.059,1.009,0.03,0.765,0.493,-0.48
312,0.0,-0.014,-0.002,-0.057,1.009,0.031,0.78,0.504,-0.486
313,0.003,-0.014,-0.002,-0.058,1.006,0.026,0.78,0.504,-0.486
314,0.002,-0.008,-0.004,-0.063,1.009,0.026,0.771,0.513,-0.46
315,0.0,-0.007,-0.007,-0.066,1.013,0.025,0.769,0.492,-0.475
316,0.0,-0.005,-0.009,-0.062,1.011,0.024,0.759,0.498,-0.468
317,0.002,0.0,-0.009,-0.058,1.012,0.029,0.795,0.52,-0.489
318,0.0,0.004,-0.009,-0.06,1.011,0.029,0.754,0.492,-0.454
319,-0.001,0.004,-0.011,-0.065,1.007,0.025,0.765,0.483,-0.474
320,0.0,0.001,-0.012,-0.066,1.007,0.025,0.771,0.481,-0.484
321,0.002,0.001,-0.012,-0.065,1.009,0.026,0.76,0.508,-0.459
322,0.006,0.002,-0.011,-0.066,1.005,0.025,0.769,0.504,-0.486
323,0.007,-0.003,-0.014,-0.066,1.005,0.025,0.775,0.495,-0.474
324,0.009,0.001,-0.015,-0.063,1.009,0.028,0.744,0.48,-0.466
325,0.012,0.004,-0.016,-0.062,1.01,0.032,0.771,0.51,-0.447
326,0.01,0.002,-0.015,-0.061,1.01,0.032,0.768,0.495,-0.469
327,0.009,0.004,-0.014,-0.062,1.01,0.036,0.757,0.495,-0.46
328,0.009,0.002,-0.014,-0.063,1.01,0.034,0.762,0.505,-0.445
329,0.008,0.0,-0.016,-0.065,1.013,0.034,0.762,0.505,-0.445
330,0.007,-0.002,-0.016,-0.066,1.013,0.035,0.775,0.511,-0.481
331,0.009,0.001,-0.019,-0.063,1.013,0.038,0.775,0.511,-0.481
332,0.008,0.0,-0.022,-0.059,1.014,0.041,0.78,0.493,-0.49
333,0.009,-0.002,-0.021,-0.056,1.013,0.039,0.763,0.493,-0.475
334,0.009,0.003,-0.02,-0.058,1.011,0.042,0.759,0.49,-0.468
335,0.006,0.007,-0.018,-0.061,1.007,0.043,0.784,0.493,-0.481
336,0.005,0.003,-0.018,-0.062,1.008,0.041,0.772,0.487,-0.486
337,0.005,0.004,-0.019,-0.061,1.012,0.041,0.76,0.487,-0.451
338,0.007,0.006,-0.019,-0.056,1.01,0.045,0.775,0.507,-0.48
339,0.009,0.005,-0.018,-0.055,1.01,0.045,0.775,0.487,-0.478
340,0.011,0.007,-0.016,-0.057,1.007,0.045,0.771,0.489,-0.489
341,0.007,0.008,-0.016,-0.057,1.007,0.045,0.783,0.486,-0.459
342,0.007,0.004,-0.018,-0.055,1.009,0.042,0.777,0.492,-0.472
343,0.01,0.007,-0.018,-0.056,1.011,0.042,0.751,0.501,-0.463
344,0.009,0.008,-0.018,-0.061,1.01,0.047,0.751,0.501,-0.463
345,0.005,0.004,-0.018,-0.06,1.01,0.048,0.784,0.508,-0.468
346,0.006,0.002,-0.018,-0.058,1.009,0.046,0.765,0.487,-0.472
347,0.004,0.005,-0.015,-0.06,1.01,0.047,0.768,0.492,-0.468
348,0.004,0.005,-0.014,-0.057,1.011,0.047,0.778,0.498,-0.459
349,0.009,0.004,-0.014,-0.054,1.01,0.042,0.777,0.519,-0.478
350,0.011,0.004,-0.013,-0.057,1.011,0.041,0.801,0.496,-0.472
351,0.008,0.0,-0.011,-0.057,1.01,0.044,0.76,0.498,-0.463
352,0.009,-0.002,-0.011,-0.055,1.01,0.043,0.768,0.499,-0.475
353,0.009,0.004,-0.011,-0.056,1.01,0.041,0.78,0.498,-0.468
354,0.007,0.002,-0.013,-0.059,1.009,0.037,0.771,0.481,-0.46
355,0.004,0.004,-0.014,-0.057,1.009,0.032,0.766,0.483,-0.466
356,0.007,0.002,-0.017,-0.053,1.011,0.03,0.778,0.495,-0.468
357,0.007,0.005,-0.018,-0.057,1.007,0.032,0.79,0.514,-0.477
358,0.007,0.005,-0.019,-0.057,1.009,0.032,0.778,0.502,-0.481
359,0.006,0.003,-0.021,-0.058,1.009,0.034,0.769,0.495,-0.477
360,0.007,-0.002,-0.02,-0.057,1.01,0.034,0.763,0.496,-0.46
361,0.008,-0.002,-0.021,-0.056,1.008,0.031,0.763,0.496,-0.46
362,0.009,0.002,-0.021,-0.052,1.008,0.031,0.78,0.493,-0.468
363,0.013,0.006,-0.023,-0.05,1.011,0.033,0.775,0.51,-0.468
364,0.014,0.007,-0.025,-0.05,1.013,0.033,0.766,0.495,-0.471
365,0.014,0.009,-0.028,-0.05,1.017,0.033,0.775,0.477,-0.469
366,0.011,0.004,-0.03,-0.05,1.014,0.033,0.771,0.483,-0.478
367,0.009,0.004,-0.028,-0.046,1.01,0.036,0.762,0.498,-0.477
368,0.008,0.009,-0.026,-0.045,1.007,0.038,0.756,0.486,-0.471
369,0.009,0.009,-0.024,-0.049,1.006,0.038,0.777,0.502,-0.489
370,0.01,0.007,-0.024,-0.052,1.01,0.038,0.783,0.483,-0.468
371,0.012,0.001,-0.023,-0.052,1.011,0.041,0.78,0.504,-0.481
372,0.013,0.0,-0.023,-0.053,1.01,0.04,0.771,0.499,-0.475
373,0.013,-0.005,-0.022,-0.052,1.012,0.038,0.777,0.495,-0.474
374,0.015,-0.009,-0.021,-0.049,1.013,0.042,0.78,0.495,-0.472
375,0.012,-0.008,-0.019,-0.048,1.01,0.044,0.766,0.49,-0.475
376,0.011,-0.004,-0.017,-0.048,1.01,0.044,0.778,0.502,-0.469
377,0.012,-0.003,-0.016,-0.044,1.01,0.043,0.756,0.516,-0.487
378,0.014,-0.002,-0.016,-0.044,1.01,0.045,0.768,0.484,-0.483
379,0.011,-0.003,-0.017,-0.044,1.01,0.047,0.768,0.484,-0.483
380,0.01,-0.005,-0.016,-0.041,1.01,0.047,0.768,0.499,-0.457
381,0.01,-0.004,-0.016,-0.038,1.014,0.047,0.774,0.501,-0.48
382,0.01,-0.002,-0.015,-0.035,1.014,0.048,0.76,0.495,-0.475
383,0.011,0.002,-0.014,-0.04,1.011,0.048,0.781,0.496,-0.483
384,0.009,0.006,-0.015,-0.044,1.009,0.048,0.765,0.507,-0.48
385,0.008,0.007,-0.015,-0.041,1.007,0.045,0.795,0.505,-0.46
386,0.007,0.004,-0.015,-0.04,1.006,0.045,0.762,0.517,-0.457
387,0.007,0.009,-0.015,-0.041,1.01,0.049,0.762,0.496,-0.478
388,0.006,0.009,-0.015,-0.041,1.012,0.049,0.756,0.499,-0.483
389,0.004,0.007,-0.015,-0.042,1.011,0.048,0.763,0.493,-0.471
390,0.004,0.01,-0.013,-0.044,1.011,0.049,0.765,0.493,-0.483
391,0.003,0.015,-0.011,-0.045,1.011,0.049,0.765,0.493,-0.483
392,0.004,0.008,-0.011,-0.05,1.01,0.048,0.771,0.501,-0.48
393,0.006,0.004,-0.009,-0.048,1.01,0.052,0.786,0.49,-0.468
394,0.005,0.005,-0.009,-0.048,1.01,0.052,0.763,0.49,-0.49
395,0.005,0.0,-0.009,-0.045,1.007,0.051,0.75,0.48,-0.487
396,0.005,0.0,-0.007,-0.049,1.009,0.052,0.763,0.513,-0.472
397,0.002,0.001,-0.007,-0.053,1.008,0.053,0.795,0.486,-0.489
398,0.0,-0.004,-0.007,-0.049,1.005,0.051,0.759,0.495,-0.471
399,0.001,-0.006,-0.007,-0.044,1.009,0.054,0.759,0.486,-0.484
400,0.0,-0.003,-0.004,-0.045,1.01,0.056,0.774,0.496,-0.48
401,0.0,-0.003,-0.004,-0.046,1.009,0.052,0.765,0.483,-0.465
402,0.001,-0.005,-0.004,-0.046,1.009,0.052,0.766,0.508,-0.478
403,0.0,-0.002,-0.004,-0.044,1.009,0.055,0.763,0.481,-0.466
404,-0.001,-0.004,-0.003,-0.043,1.008,0.054,0.76,0.487,-0.475
405,-0.003,-0.004,-0.003,-0.044,1.007,0.053,0.76,0.487,-0.475
406,-0.004,-0.002,-0.002,-0.045,1.006,0.054,0.756,0.501,-0.474
407,-0.007,-0.004,-0.001,-0.046,1.007,0.052,0.763,0.486,-0.474
408,-0.01,-0.006,-0.002,-0.043,1.006,0.049,0.76,0.495,-0.477
409,-0.011,-0.007,-0.002,-0.04,1.007,0.043,0.76,0.495,-0.477
410,-0.016,-0.01,-0.003,-0.042,1.006,0.04,0.774,0.489,-0.46
411,-0.019,-0.007,-0.005,-0.041,1.004,0.043,0.769,0.492,-0.466
412,-0.022,-0.012,-0.005,-0.041,1.004,0.043,0.766,0.496,-0.465
413,-0.013,-0.021,-0.004,-0.034,1.0,0.042,0.765,0.496,-0.466
414,-0.004,-0.017,0.0,-0.027,0.994,0.04,0.762,0.504,-0.454
415,-0.002,-0.022,0.004,-0.025,0.991,0.039,0.763,0.486,-0.471
416,-0.004,-0.026,0.009,-0.026,0.992,0.042,0.759,0.493,-0.486
417,-0.005,-0.037,0.014,-0.032,0.998,0.05,0.786,0.501,-0.481
418,0.002,-0.038,0.023,-0.041,1.008,0.063,0.778,0.477,-0.475
419,0.003,-0.029,0.031,-0.04,1.013,0.067,0.768,0.504,-0.492
420,-0.002,-0.031,0.039,-0.035,1.015,0.065,0.768,0.504,-0.492
421,-0.02,-0.025,0.048,-0.034,1.012,0.075,0.778,0.478,-0.462
422,-0.032,-0.014,0.051,-0.033,1.003,0.081,0.768,0.49,-0.48
423,-0.042,-0.004,0.056,-0.026,0.998,0.078,0.756,0.501,-0.469
424,-0.045,0.009,0.06,-0.024,0.997,0.076,0.783,0.498,-0.475
425,-0.049,0.022,0.069,-0.023,0.993,0.072,0.783,0.478,-0.504
426,-0.047,0.039,0.084,-0.02,0.987,0.072,0.784,0.489,-0.487
427,-0.05,0.082,0.103,-0.018,0.983,0.08,0.771,0.496,-0.486
428,-0.058,0.121,0.123,-0.033,0.992,0.07,0.768,0.495,-0.481
429,-0.051,0.165,0.129,-0.033,0.992,0.07,0.811,0.495,-0.474
430,-0.045,0.154,0.125,-0.055,0.996,0.049,0.81,0.505,-0.478
431,-0.031,0.148,0.107,-0.078,0.983,0.036,0.807,0.501,-0.487
432,0.014,0.203,0.047,-0.122,0.968,0.056,0.789,0.508,-0.451
433,0.059,0.254,0.023,-0.144,0.989,0.083,0.804,0.514,-0.451
434,0.062,0.279,0.044,-0.158,1.052,0.117,0.781,0.492,-0.475
435,0.025,0.233,0.071,-0.225,1.073,0.123,0.781,0.492,-0.475
436,0.01,0.163,0.076,-0.267,1.037,0.114,0.804,0.495,-0.487
437,-0.018,0.161,0.077,-0.256,0.993,0.126,0.799,0.495,-0.456
438,-0.072,0.189,0.063,-0.225,0.982,0.122,0.804,0.487,-0.445
439,-0.119,0.201,0.051,-0.194,0.999,0.097,0.808,0.475,-0.468
440,-0.164,0.206,0.036,-0.201,0.999,0.073,0.819,0.487,-0.46
441,-0.189,0.177,0.028,-0.226,0.978,0.052,0.802,0.495,-0.465
442,-0.202,0.163,0.04,-0.235,0.956,0.048,0.814,0.474,-0.426
443,-0.208,0.208,0.05,-0.227,0.958,0.071,0.82,0.487,-0.456
444,-0.18,0.235,0.046,-0.192,0.97,0.082,0.819,0.487,-0.429
445,-0.143,0.259,0.035,-0.169,0.973,0.086,0.817,0.48,-0.427
446,-0.14,0.205,0.009,-0.169,0.973,0.086,0.826,0.483,-0.414
447,-0.149,0.161,-0.02,-0.192,0.957,0.085,0.816,0.496,-0.424
448,-0.167,0.125,-0.047,-0.207,0.949,0.076,0.825,0.483,-0.415
449,-0.182,0.091,-0.077,-0.201,0.949,0.064,0.828,0.486,-0.4
450,-0.193,0.07,-0.104,-0.195,0.963,0.072,0.81,0.502,-0.412
451,-0.198,0.095,-0.118,-0.201,0.97,0.077,0.81,0.502,-0.412
452,-0.207,0.144,-0.118,-0.22,0.978,0.069,0.819,0.493,-0.417
453,-0.217,0.158,-0.119,-0.238,0.977,0.049,0.811,0.501,-0.418
454,-0.226,0.169,-0.126,-0.239,0.982,0.033,0.817,0.505,-0.393
455,-0.205,0.188,-0.147,-0.243,1.024,0.046,0.823,0.499,-0.381
456,-0.166,0.203,-0.168,-0.249,1.053,0.078,0.81,0.501,-0.388
457,-0.154,0.18,-0.172,-0.267,1.054,0.089,0.82,0.49,-0.369
458,-0.159,0.128,-0.174,-0.295,1.05,0.073,0.825,0.502,-0.379
459,-0.108,0.091,-0.164,-0.316,1.055,0.092,0.805,0.495,-0.384
460,-0.02,0.075,-0.174,-0.343,1.105,0.132,0.805,0.493,-0.379
461,0.093,0.084,-0.189,-0.36,1.145,0.173,0.807,0.502,-0.357
462,0.231,0.053,-0.162,-0.346,1.151,0.174,0.81,0.501,-0.372
463,0.381,-0.091,-0.107,-0.289,1.196,0.017,0.804,0.517,-0.372
464,0.542,-0.343,-0.039,-0.289,1.196,0.017,0.802,0.504,-0.376
465,0.73,-0.499,0.002,-0.26,1.188,-0.084,0.796,0.51,-0.396
466,0.936,-0.585,0.028,-0.181,1.133,-0.137,0.792,0.493,-0.396
467,1.02,-0.669,0.076,-0.021,1.059,-0.143,0.792,0.493,-0.396
468,1.121,-0.551,0.126,0.116,1.037,-0.089,0.793,0.504,-0.412
469,1.208,-0.183,0.178,0.177,1.081,0.001,0.789,0.481,-0.432
470,1.227,0.026,0.221,0.143,1.155,0.091,0.796,0.484,-0.465
471,1.156,0.008,0.207,0.049,1.206,0.108,0.79,0.45,-0.472
472,1.017,-0.35,0.198,-0.034,1.156,0.062,0.775,0.447,-0.477
473,0.913,-0.71,0.179,-0.116,1.047,0.036,0.781,0.462,-0.481
474,0.764,-0.816,0.238,-0.181,0.988,0.096,0.771,0.441,-0.498
475,0.696,-0.917,0.294,-0.219,1.009,0.187,0.783,0.447,-0.523
476,0.57,-0.954,0.312,-0.177,1.02,0.226,0.769,0.424,-0.567
477,0.499,-0.954,0.266,-0.079,0.97,0.264,0.744,0.418,-0.543
478,0.414,-1.082,0.226,0.001,0.904,0.263,0.754,0.4,-0.57
479,0.37,-1.114,0.128,0.058,0.865,0.196,0.732,0.397,-0.576
480,0.336,-1.102,-0.015,0.133,0.765,0.191,0.715,0.414,-0.577
481,0.217,-0.774,-0.117,0.163,0.709,0.283,0.715,0.414,-0.577
482,-0.007,-0.287,-0.092,0.163,0.709,0.283,0.717,0.4,-0.594
483,-0.201,-0.078,-0.011,0.131,0.707,0.356,0.717,0.4,-0.594
484,-0.261,-0.102,0.05,0.046,0.709,0.372,0.684,0.397,-0.585
485,-0.279,-0.165,0.016,-0.037,0.724,0.399,0.678,0.406,-0.585
486,-0.314,-0.186,-0.017,-0.088,0.709,0.428,0.703,0.406,-0.6
487,-0.364,-0.214,-0.028,-0.084,0.681,0.418,0.703,0.406,-0.6
488,-0.396,-0.191,0.008,-0.071,0.682,0.406,0.703,0.411,-0.589
489,-0.448,-0.131,0.07,-0.007,0.76,0.431,0.694,0.43,-0.586
490,-0.506,-0.072,0.149,0.045,0.82,0.508,0.672,0.447,-0.591
491,-0.392,-0.142,0.161,0.038,0.85,0.611,0.696,0.417,-0.594
492,-0.06,-0.139,0.074,-0.035,1.006,0.671,0.682,0.427,-0.559
493,0.045,0.079,0.078,-0.133,1.241,0.622,0.691,0.441,-0.589
494,-0.141,-0.142,0.124,-0.109,1.36,0.592,0.7,0.426,-0.58
495,-0.086,-0.679,0.044,-0.059,1.156,0.752,0.688,0.436,-0.58
496,0.123,-0.794,0.012,-0.021,0.714,0.824,0.676,0.432,-0.576
497,0.046,-0.015,0.158,0.128,0.649,0.533,0.678,0.436,-0.577
498,-0.29,0.781,0.071,0.22,1.806,-0.066,0.67,0.427,-0.564
499,0.046,0.463,0.035,0.22,1.806,-0.066,0.676,0.445,-0.582
500,0.153,0.415,0.014,-0.015,1.564,0.078,0.691,0.426,-0.568
501,0.277,0.358,-0.077,-0.027,0.843,0.039,0.69,0.447,-0.579
502,0.008,0.48,-0.032,0.054,0.555,0.011,0.69,0.447,-0.579
503,-0.477,1.174,0.035,-0.062,0.698,-0.005,0.703,0.427,-0.598
504,-0.535,0.903,0.177,-0.215,1.05,-0.217,0.7,0.453,-0.568
505,-0.399,0.635,0.275,-0.221,1.247,-0.086,0.7,0.453,-0.568
506,-0.056,0.819,0.098,-0.064,1.071,0.201,0.715,0.453,-0.565
507,-0.063,1.095,0.0,0.086,0.862,0.284,0.729,0.451,-0.55
508,-0.299,1.195,0.05,0.026,0.851,0.178,0.727,0.453,-0.562
509,-0.476,1.03,0.116,-0.212,0.933,-0.009,0.76,0.466,-0.538
510,-0.596,0.891,0.15,-0.347,0.915,-0.037,0.772,0.46,-0.529
511,-0.618,0.651,0.127,-0.349,0.866,0.027,0.784,0.474,-0.519
512,-0.625,0.466,0.066,-0.325,0.875,0.084,0.801,0.477,-0.514
513,-0.569,0.347,-0.04,-0.293,0.883,0.104,0.789,0.489,-0.508
514,-0.462,0.308,-0.138,-0.273,0.892,0.075,0.793,0.474,-0.493
515,-0.475,0.314,-0.194,-0.22,0.892,0.072,0.781,0.483,-0.483
516,-0.532,0.332,-0.23,-0.196,0.913,0.079,0.781,0.483,-0.483
517,-0.597,0.311,-0.249,-0.209,0.873,0.089,0.784,0.496,-0.486
518,-0.685,0.264,-0.293,-0.223,0.873,0.089,0.795,0.514,-0.46
519,-0.723,0.255,-0.348,-0.224,0.886,0.104,0.804,0.532,-0.468
520,-0.674,0.279,-0.387,-0.213,0.916,0.121,0.78,0.526,-0.453
521,-0.567,0.335,-0.386,-0.228,0.946,0.131,0.796,0.525,-0.448
522,-0.438,0.352,-0.344,-0.262,0.972,0.101,0.771,0.529,-0.439
523,-0.31,0.345,-0.269,-0.275,0.995,0.063,0.765,0.549,-0.409
524,-0.195,0.31,-0.212,-0.242,1.027,0.071,0.766,0.556,-0.426
525,-0.128,0.202,-0.167,-0.251,1.043,0.098,0.768,0.565,-0.418
526,-0.081,0.159,-0.142,-0.274,1.04,0.148,0.765,0.558,-0.408
527,0.116,0.121,-0.121,-0.283,1.109,0.202,0.768,0.574,-0.399
528,0.263,-0.057,-0.001,-0.372,1.206,0.096,0.759,0.564,-0.391
529,0.429,-0.379,0.09,-0.519,1.229,-0.055,0.741,0.583,-0.405
530,0.823,-0.618,0.107,-0.566,1.285,-0.16,0.739,0.564,-0.415
531,1.172,-0.675,0.153,-0.248,1.41,-0.259,0.747,0.561,-0.456
532,1.137,-0.759,0.227,0.143,1.401,-0.231,0.739,0.556,-0.457
533,1.183,-0.583,0.249,0.222,1.329,-0.098,0.739,0.556,-0.457
534,1.211,-0.123,0.314,0.097,1.295,0.008,0.747,0.529,-0.495
535,1.127,0.157,0.278,0.097,1.295,0.008,0.744,0.559,-0.519
536,1.227,0.019,0.085,0.038,1.181,-0.008,0.732,0.51,-0.513
537,0.972,-0.172,-0.058,0.02,1.126,0.008,0.729,0.495,-0.541
538,1.066,-0.702,0.001,-0.132,1.138,-0.003,0.754,0.505,-0.547
539,0.999,-0.958,0.177,-0.274,1.095,0.016,0.726,0.501,-0.588
540,0.851,-1.148,0.147,-0.217,0.975,0.121,0.709,0.475,-0.577
541,0.896,-1.206,-0.005,-0.05,0.88,0.14,0.702,0.456,-0.606
542,0.723,-0.992,0.0,0.044,0.841,0.13,0.687,0.453,-0.592
543,0.511,-0.87,0.039,0.086,0.816,0.163,0.678,0.451,-0.601
544,0.353,-0.844,0.004,0.107,0.79,0.184,0.67,0.451,-0.639
545,0.214,-0.734,-0.084,0.115,0.713,0.178,0.654,0.426,-0.634
546,-0.043,-0.413,-0.091,0.125,0.619,0.164,0.642,0.432,-0.633
547,-0.384,-0.018,-0.065,0.174,0.536,0.203,0.63,0.45,-0.63
548,-0.455,0.091,-0.063,0.177,0.496,0.267,0.61,0.445,-0.613
549,-0.473,0.039,-0.049,0.072,0.516,0.343,0.628,0.456,-0.619
550,-0.522,-0.068,-0.027,-0.061,0.556,0.438,0.628,0.456,-0.619
551,-0.539,-0.174,0.008,-0.163,0.64,0.566,0.616,0.466,-0.592
552,-0.525,-0.18,0.114,-0.158,0.787,0.665,0.616,0.466,-0.592
553,-0.368,-0.313,0.242,-0.158,0.787,0.665,0.628,0.478,-0.588
554,-0.013,-0.452,0.329,-0.156,0.97,0.748,0.636,0.465,-0.571
555,0.147,-0.208,0.311,-0.176,1.175,0.73,0.636,0.465,-0.571
556,-0.078,-0.037,0.291,-0.059,1.283,0.611,0.639,0.469,-0.573
557,-0.051,-0.613,0.149,0.049,1.229,0.614,0.645,0.466,-0.556
558,0.34,-1.057,0.043,0.0,1.092,0.758,0.636,0.472,-0.561
559,0.1,-0.196,0.042,0.022,1.172,0.681,0.631,0.477,-0.577
560,0.056,0.186,0.05,0.104,1.465,0.264,0.621,0.471,-0.543
561,0.085,0.161,-0.035,0.191,1.352,0.032,0.642,0.46,-0.568
562,0.291,0.082,-0.099,0.232,0.887,-0.114,0.634,0.457,-0.559
563,0.156,0.272,0.13,0.192,0.803,-0.088,0.649,0.463,-0.559
564,-0.483,1.2,0.119,0.097,0.936,0.22,0.639,0.463,-0.553
565,-0.538,1.25,0.017,-0.11,1.028,0.052,0.648,0.448,-0.54
566,-0.296,0.568,0.058,-0.294,1.262,-0.131,0.663,0.46,-0.547
567,-0.228,0.514,0.079,-0.155,1.247,0.117,0.663,0.46,-0.547
568,-0.262,0.746,0.01,0.106,0.782,0.205,0.67,0.462,-0.529
569,-0.216,0.83,-0.036,-0.05,0.884,0.132,0.67,0.463,-0.51
570,-0.241,0.904,0.034,-0.05,0.884,0.132,0.67,0.463,-0.51
571,-0.514,0.834,0.177,-0.234,0.943,0.072,0.708,0.453,-0.517
572,-0.757,0.744,0.239,-0.338,0.842,0.003,0.696,0.463,-0.513
573,-0.793,0.654,0.152,-0.371,0.769,0.023,0.723,0.454,-0.499
574,-0.676,0.452,0.066,-0.333,0.829,0.097,0.745,0.474,-0.483
575,-0.581,0.375,-0.03,-0.276,0.874,0.14,0.726,0.489,-0.436
576,-0.504,0.399,-0.113,-0.214,0.868,0.151,0.754,0.477,-0.436
577,-0.547,0.459,-0.171,-0.184,0.862,0.139,0.747,0.487,-0.444
578,-0.597,0.513,-0.226,-0.18,0.854,0.13,0.75,0.487,-0.423
579,-0.692,0.448,-0.296,-0.173,0.832,0.13,0.75,0.487,-0.418
580,-0.771,0.413,-0.359,-0.184,0.815,0.1,0.736,0.478,-0.396
581,-0.735,0.406,-0.403,-0.209,0.843,0.096,0.748,0.504,-0.394
582,-0.609,0.396,-0.4,-0.2,0.89,0.117,0.762,0.502,-0.369
583,-0.487,0.419,-0.352,-0.215,0.948,0.095,0.735,0.511,-0.366
584,-0.373,0.455,-0.284,-0.239,1.009,0.089,0.735,0.511,-0.366
585,-0.258,0.418,-0.231,-0.256,1.077,0.146,0.735,0.514,-0.354
586,-0.207,0.29,-0.194,-0.286,1.051,0.162,0.738,0.517,-0.351
587,-0.164,0.239,-0.177,-0.296,1.077,0.241,0.724,0.514,-0.342
588,-0.021,0.308,-0.175,-0.296,1.077,0.241,0.739,0.517,-0.336
589,0.163,0.237,-0.203,-0.338,1.126,0.3,0.736,0.514,-0.325
590,0.371,-0.032,-0.097,-0.455,1.119,0.119,0.739,0.505,-0.363
591,0.623,-0.61,0.039,-0.56,1.164,-0.121,0.736,0.504,-0.325
592,1.001,-0.949,0.195,-0.568,1.242,-0.249,0.739,0.514,-0.327
593,1.267,-0.947,0.338,-0.248,1.353,-0.309,0.738,0.507,-0.342
594,1.219,-0.981,0.389,0.217,1.395,-0.186,0.751,0.501,-0.364
595,1.245,-0.616,0.354,0.317,1.425,-0.038,0.747,0.499,-0.391
596,1.182,-0.084,0.32,0.228,1.539,-0.002,0.744,0.466,-0.432
597,1.131,0.123,0.233,0.089,1.479,-0.003,0.769,0.475,-0.438
598,1.187,0.066,0.039,-0.025,1.272,0.017,0.759,0.471,-0.424
599,1.123,-0.321,0.056,-0.142,1.093,0.093,0.754,0.457,-0.465
600,1.023,-0.655,0.238,-0.295,1.061,0.086,0.75,0.426,-0.469
601,0.805,-0.972,0.298,-0.305,1.069,0.083,0.75,0.426,-0.469
602,0.818,-1.433,0.079,-0.137,0.913,0.103,0.748,0.427,-0.513
603,0.641,-1.509,0.012,0.042,0.689,0.177,0.763,0.429,-0.522
604,0.498,-1.283,0.05,0.047,0.717,0.244,0.75,0.429,-0.534
605,0.417,-1.054,0.063,0.047,0.717,0.244,0.738,0.412,-0.555
606,0.3,-0.999,0.045,0.087,0.719,0.229,0.724,0.409,-0.574
607,0.05,-0.781,0.029,0.164,0.655,0.174,0.705,0.408,-0.57
608,-0.281,-0.38,0.037,0.214,0.555,0.148,0.687,0.412,-0.579
609,-0.486,-0.084,0.022,0.189,0.491,0.198,0.703,0.43,-0.586
610,-0.497,-0.049,0.013,0.118,0.515,0.266,0.699,0.423,-0.558
611,-0.499,-0.108,0.01,0.031,0.592,0.355,0.718,0.424,-0.58
612,-0.565,-0.128,-0.004,-0.048,0.631,0.435,0.706,0.433,-0.577
613,-0.609,-0.142,0.036,-0.104,0.678,0.48,0.705,0.439,-0.559
614,-0.566,-0.214,0.135,-0.134,0.847,0.581,0.705,0.439,-0.559
615,-0.179,-0.32,0.203,-0.131,1.047,0.718,0.682,0.448,-0.552
616,0.242,-0.13,0.245,-0.2,1.274,0.773,0.702,0.439,-0.559
617,-0.088,0.296,0.251,-0.176,1.407,0.739,0.696,0.451,-0.564
618,-0.268,-0.319,0.1,0.06,1.345,0.653,0.735,0.439,-0.567
619,-0.103,-1.007,-0.034,0.088,0.987,0.608,0.706,0.441,-0.561
620,-0.097,-0.959,0.07,-0.031,0.403,0.597,0.702,0.46,-0.564
621,-0.223,-0.154,0.251,0.352,1.137,0.06,0.703,0.426,-0.543
622,-0.737,1.1,-0.018,0.332,1.913,-0.192,0.687,0.441,-0.562
623,-0.095,0.28,-0.165,0.332,1.913,-0.192,0.7,0.462,-0.546
624,0.064,0.121,-0.158,0.097,1.793,0.058,0.699,0.457,-0.526
625,0.368,0.351,-0.308,0.094,0.955,0.116,0.688,0.457,-0.552
626,0.418,0.15,-0.12,0.172,0.471,-0.23,0.691,0.463,-0.558
627,-0.304,1.138,0.158,0.028,0.574,-0.041,0.711,0.457,-0.531
628,-0.85,1.426,0.208,-0.161,0.69,-0.032,0.715,0.45,-0.564
629,-0.658,0.507,0.266,-0.326,1.169,-0.184,0.739,0.46,-0.541
630,-0.113,0.404,0.147,-0.306,1.367,0.124,0.73,0.498,-0.513
631,0.076,0.677,0.015,-0.059,1.055,0.329,0.744,0.474,-0.519
632,-0.196,1.008,0.018,0.097,0.812,0.231,0.769,0.465,-0.511
633,-0.49,1.043,0.079,-0.007,0.729,0.017,0.769,0.465,-0.511
634,-0.63,1.009,0.182,-0.199,0.808,-0.09,0.753,0.469,-0.496
635,-0.709,0.941,0.203,-0.277,0.912,0.003,0.777,0.469,-0.511
636,-0.697,0.595,0.128,-0.251,0.867,0.088,0.774,0.48,-0.469
637,-0.637,0.442,0.002,-0.282,0.865,0.049,0.774,0.48,-0.469
638,-0.516,0.385,-0.128,-0.221,0.923,0.075,0.805,0.498,-0.442
639,-0.501,0.415,-0.195,-0.187,0.887,0.112,0.805,0.492,-0.423
640,-0.534,0.441,-0.24,-0.187,0.887,0.112,0.796,0.498,-0.418
641,-0.574,0.366,-0.286,-0.197,0.841,0.119,0.808,0.508,-0.412
642,-0.614,0.317,-0.338,-0.205,0.86,0.129,0.792,0.504,-0.394
643,-0.646,0.274,-0.377,-0.194,0.843,0.144,0.792,0.523,-0.385
644,-0.62,0.317,-0.389,-0.166,0.844,0.151,0.796,0.517,-0.385
645,-0.561,0.396,-0.38,-0.175,0.89,0.154,0.795,0.537,-0.364
646,-0.482,0.452,-0.331,-0.229,0.939,0.131,0.78,0.528,-0.352
647,-0.338,0.482,-0.268,-0.241,1.005,0.116,0.798,0.546,-0.345
648,-0.2,0.324,-0.221,-0.25,1.099,0.122,0.801,0.537,-0.339
649,-0.068,0.203,-0.198,-0.257,1.119,0.153,0.787,0.553,-0.34
650,0.163,0.286,-0.203,-0.22,1.134,0.208,0.787,0.553,-0.34
651,0.382,0.285,-0.153,-0.243,1.198,0.182,0.781,0.532,-0.334
652,0.52,-0.154,-0.009,-0.336,1.199,-0.017,0.778,0.555,-0.331
653,0.788,-0.661,0.194,-0.528,1.216,-0.186,0.765,0.546,-0.36
654,1.207,-0.802,0.32,-0.539,1.308,-0.281,0.783,0.537,-0.352
655,1.219,-0.961,0.392,-0.098,1.411,-0.233,0.786,0.529,-0.369
656,1.16,-0.85,0.307,0.155,1.482,-0.007,0.762,0.519,-0.403
657,1.209,-0.312,0.25,0.099,1.478,0.028,0.777,0.522,-0.418
658,1.123,0.027,0.18,0.099,1.478,0.028,0.792,0.492,-0.435
659,1.146,0.042,0.047,0.015,1.276,0.01,0.793,0.495,-0.468
660,1.076,-0.067,-0.033,-0.033,1.105,0.057,0.802,0.486,-0.502
661,0.98,-0.417,0.126,-0.126,1.092,0.098,0.796,0.478,-0.508
662,0.803,-0.728,0.28,-0.277,1.135,0.072,0.784,0.477,-0.511
663,0.699,-1.116,0.147,-0.243,1.068,0.11,0.784,0.477,-0.511
664,0.685,-1.374,-0.026,-0.08,0.885,0.111,0.774,0.432,-0.514
665,0.55,-1.251,0.028,-0.008,0.784,0.107,0.769,0.435,-0.535
666,0.41,-1.073,0.076,0.067,0.76,0.204,0.756,0.451,-0.555
667,0.317,-1.029,0.025,0.122,0.719,0.229,0.745,0.417,-0.567
668,0.119,-0.915,-0.021,0.127,0.662,0.169,0.729,0.423,-0.579
669,-0.164,-0.613,0.0,0.145,0.573,0.125,0.729,0.414,-0.595
670,-0.396,-0.228,0.065,0.152,0.517,0.14,0.723,0.423,-0.595
671,-0.412,-0.048,0.077,0.13,0.513,0.23,0.706,0.415,-0.589
672,-0.399,-0.032,0.066,0.09,0.551,0.307,0.718,0.411,-0.592
673,-0.451,-0.064,0.053,0.042,0.606,0.345,0.717,0.429,-0.576
674,-0.497,-0.051,0.053,-0.095,0.729,0.482,0.708,0.427,-0.589
675,-0.49,-0.119,0.105,-0.095,0.729,0.482,0.694,0.432,-0.579
676,-0.359,-0.339,0.149,-0.095,0.932,0.639,0.712,0.441,-0.571
677,-0.024,-0.399,0.172,-0.161,1.095,0.735,0.727,0.436,-0.577
678,0.037,-0.049,0.185,-0.266,1.151,0.738,0.712,0.423,-0.571
679,-0.219,-0.124,0.232,-0.208,1.123,0.772,0.715,0.423,-0.567
680,0.065,-0.974,0.149,-0.128,1.038,0.853,0.715,0.423,-0.567
681,0.403,-0.919,0.271,-0.056,0.88,0.762,0.715,0.424,-0.58
682,-0.421,0.871,0.287,0.157,1.141,0.34,0.696,0.417,-0.573
683,-0.162,0.366,-0.039,0.212,1.761,-0.272,0.72,0.415,-0.582
684,0.366,-0.237,-0.282,0.079,1.627,-0.075,0.708,0.439,-0.582
685,0.62,-0.007,-0.304,0.171,0.852,0.148,0.727,0.423,-0.576
686,0.35,0.359,0.046,0.296,0.56,0.039,0.708,0.426,-0.573
687,-0.704,1.741,0.213,0.201,0.689,0.205,0.714,0.417,-0.585
688,-0.693,1.463,0.18,-0.081,0.94,-0.16,0.738,0.399,-0.57
689,-0.364,0.641,0.263,-0.344,1.391,-0.192,0.751,0.432,-0.55
690,-0.13,0.822,0.154,-0.268,1.334,0.268,0.762,0.414,-0.546
691,-0.066,0.9,-0.051,-0.037,0.923,0.306,0.763,0.405,-0.535
692,-0.151,0.811,-0.076,-0.143,0.769,0.044,0.772,0.414,-0.538
693,-0.385,0.853,0.013,-0.143,0.769,0.044,0.81,0.421,-0.526
694,-0.709,0.877,0.148,-0.238,0.801,-0.035,0.81,0.421,-0.526
695,-0.858,0.811,0.197,-0.266,0.838,-0.001,0.78,0.424,-0.502
696,-0.9,0.644,0.144,-0.266,0.844,0.062,0.801,0.423,-0.492
697,-0.737,0.471,0.013,-0.245,0.883,0.09,0.82,0.418,-0.457
698,-0.582,0.455,-0.149,-0.212,0.894,0.101,0.813,0.435,-0.453
699,-0.59,0.465,-0.238,-0.161,0.876,0.079,0.838,0.433,-0.438
700,-0.656,0.41,-0.286,-0.141,0.853,0.071,0.829,0.436,-0.439
701,-0.717,0.35,-0.328,-0.18,0.837,0.101,0.823,0.453,-0.421
702,-0.742,0.336,-0.373,-0.215,0.852,0.11,0.822,0.444,-0.411
703,-0.73,0.34,-0.417,-0.215,0.861,0.133,0.799,0.456,-0.39
704,-0.643,0.357,-0.443,-0.203,0.892,0.154,0.799,0.457,-0.373
705,-0.531,0.39,-0.413,-0.215,0.911,0.136,0.798,0.466,-0.357
706,-0.408,0.424,-0.329,-0.272,0.928,0.092,0.801,0.471,-0.342
707,-0.271,0.399,-0.233,-0.308,0.969,0.075,0.799,0.487,-0.361
708,-0.187,0.194,-0.157,-0.36,1.022,0.105,0.799,0.487,-0.361
709,-0.117,0.043,-0.109,-0.244,1.109,0.206,0.801,0.484,-0.334
710,0.14,0.182,-0.128,-0.208,1.253,0.132,0.801,0.484,-0.334
711,0.296,0.155,-0.002,-0.208,1.253,0.132,0.798,0.475,-0.334
712,0.474,-0.242,0.095,-0.267,1.273,0.003,0.792,0.463,-0.346
713,0.793,-0.643,0.233,-0.46,1.298,-0.14,0.792,0.463,-0.346
714,1.138,-0.8,0.265,-0.413,1.384,-0.317,0.807,0.487,-0.349
715,1.162,-1.029,0.24,0.008,1.395,-0.303,0.799,0.466,-0.364
716,1.178,-0.884,0.208,0.189,1.368,-0.138,0.799,0.441,-0.397
717,1.204,-0.293,0.252,0.175,1.432,-0.034,0.795,0.447,-0.444
718,1.123,0.142,0.182,0.126,1.429,0.009,0.801,0.427,-0.427
719,1.188,0.37,0.034,0.104,1.24,0.025,0.789,0.424,-0.451
720,1.088,0.028,-0.07,0.092,1.137,0.039,0.787,0.409,-0.456
721,1.048,-0.54,0.067,-0.108,1.14,0.004,0.792,0.393,-0.459
722,1.003,-0.905,0.198,-0.32,1.117,0.017,0.813,0.406,-0.487
723,0.913,-1.381,0.037,-0.298,1.029,0.127,0.79,0.39,-0.511
724,0.879,-1.424,-0.149,-0.15,0.822,0.132,0.778,0.382,-0.528
725,0.685,-1.033,-0.102,0.013,0.758,0.152,0.766,0.357,-0.552
726,0.546,-0.804,-0.033,0.12,0.808,0.224,0.747,0.352,-0.553
727,0.38,-0.725,0.007,0.183,0.711,0.212,0.747,0.352,-0.553
728,0.143,-0.626,0.007,0.183,0.711,0.212,0.745,0.357,-0.57
729,-0.177,-0.438,-0.004,0.181,0.601,0.178,0.745,0.357,-0.57
730,-0.481,-0.157,-0.009,0.157,0.515,0.169,0.727,0.345,-0.562
731,-0.565,0.025,0.001,0.109,0.484,0.21,0.726,0.342,-0.582
732,-0.559,0.055,0.04,0.034,0.523,0.294,0.73,0.352,-0.573
733,-0.595,-0.031,0.048,-0.035,0.554,0.402,0.742,0.349,-0.552
734,-0.651,-0.128,0.028,-0.09,0.57,0.49,0.751,0.355,-0.561
735,-0.602,-0.279,0.081,-0.123,0.666,0.559,0.721,0.372,-0.553
736,-0.317,-0.48,0.199,-0.126,0.871,0.65,0.742,0.363,-0.544
737,0.133,-0.411,0.275,-0.179,1.111,0.708,0.744,0.393,-0.54
738,0.046,0.136,0.359,-0.187,1.274,0.692,0.726,0.37,-0.541
739,-0.213,-0.028,0.237,-0.073,1.224,0.681,0.742,0.384,-0.559
740,0.077,-0.834,-0.023,-0.058,0.988,0.737,0.738,0.355,-0.538
741,0.534,-1.195,-0.052,-0.044,0.632,0.693,0.735,0.372,-0.558
742,0.045,0.068,0.054,0.191,0.756,0.355,0.735,0.372,-0.558
743,-0.074,0.186,-0.08,0.389,1.545,-0.123,0.736,0.358,-0.546
744,0.08,0.118,0.101,0.116,1.127,0.135,0.72,0.372,-0.553
745,0.368,0.315,-0.175,0.18,0.431,-0.231,0.711,0.349,-0.555
746,0.487,0.184,-0.147,0.18,0.431,-0.231,0.706,0.366,-0.561
747,-0.337,0.918,0.011,0.119,0.607,0.032,0.732,0.339,-0.571
748,-0.715,1.425,0.004,-0.005,0.843,0.003,0.724,0.355,-0.574
749,-0.631,0.746,0.212,-0.237,1.366,-0.155,0.727,0.37,-0.561
750,-0.438,0.683,0.317,-0.281,1.457,0.103,0.747,0.375,-0.538
751,-0.121,1.041,0.107,-0.103,1.077,0.327,0.748,0.358,-0.549
752,-0.022,1.127,-0.062,0.01,0.833,0.258,0.772,0.382,-0.54
753,-0.179,1.022,-0.056,-0.026,0.767,0.105,0.784,0.372,-0.502
754,-0.389,0.965,0.077,-0.166,0.821,0.004,0.78,0.36,-0.52
755,-0.672,1.121,0.209,-0.283,0.844,0.017,0.804,0.373,-0.507
756,-0.732,0.942,0.189,-0.266,0.81,0.061,0.814,0.372,-0.481
757,-0.662,0.729,0.105,-0.204,0.831,0.056,0.82,0.379,-0.487
758,-0.559,0.636,-0.034,-0.193,0.886,0.047,0.82,0.379,-0.487
759,-0.48,0.576,-0.143,-0.182,0.856,0.088,0.817,0.378,-0.463
760,-0.476,0.581,-0.2,-0.177,0.853,0.132,0.837,0.372,-0.45
761,-0.525,0.555,-0.242,-0.234,0.839,0.107,0.832,0.4,-0.465
762,-0.586,0.433,-0.28,-0.236,0.812,0.136,0.813,0.393,-0.45
763,-0.646,0.375,-0.324,-0.251,0.831,0.16,0.828,0.376,-0.427
764,-0.674,0.332,-0.361,-0.251,0.831,0.16,0.835,0.415,-0.409
765,-0.611,0.337,-0.386,-0.245,0.874,0.163,0.831,0.403,-0.409
766,-0.506,0.369,-0.389,-0.231,0.915,0.155,0.802,0.414,-0.385
767,-0.41,0.427,-0.351,-0.241,0.949,0.112,0.811,0.42,-0.378
768,-0.285,0.481,-0.289,-0.236,0.997,0.096,0.81,0.439,-0.37
769,-0.21,0.362,-0.217,-0.262,1.068,0.106,0.826,0.424,-0.375
770,-0.161,0.223,-0.155,-0.3,1.069,0.142,0.823,0.426,-0.379
771,-0.004,0.257,-0.142,-0.288,1.066,0.205,0.823,0.42,-0.357
772,0.219,0.265,-0.185,-0.289,1.154,0.251,0.82,0.438,-0.363
773,0.382,-0.007,-0.118,-0.366,1.172,0.106,0.808,0.424,-0.369
774,0.609,-0.498,0.056,-0.452,1.195,-0.082,0.801,0.433,-0.384
775,1.032,-0.726,0.214,-0.469,1.281,-0.199,0.792,0.414,-0.382
776,1.255,-0.821,0.355,-0.162,1.368,-0.296,0.792,0.414,-0.382
777,1.131,-1.015,0.354,0.219,1.338,-0.163,0.799,0.394,-0.409
778,1.201,-0.597,0.34,0.246,1.353,-0.006,0.786,0.387,-0.433
779,1.16,-0.045,0.295,0.081,1.458,0.011,0.786,0.388,-0.45
780,1.138,0.235,0.191,0.056,1.217,0.019,0.778,0.367,-0.448
781,1.174,0.24,-0.023,0.056,1.217,0.019,0.795,0.379,-0.457
782,1.208,-0.282,-0.058,-0.021,1.082,0.047,0.793,0.363,-0.447
783,1.064,-0.494,0.191,-0.218,1.134,0.053,0.79,0.334,-0.489
784,0.916,-0.762,0.186,-0.289,1.167,0.102,0.783,0.336,-0.486
785,0.927,-1.255,-0.056,-0.152,0.987,0.142,0.783,0.336,-0.492
786,0.744,-1.335,-0.128,-0.037,0.839,0.117,0.768,0.328,-0.493
787,0.515,-1.001,-0.082,0.061,0.711,0.172,0.759,0.327,-0.504
788,0.385,-0.784,-0.079,0.128,0.679,0.259,0.759,0.327,-0.504
789,0.267,-0.733,-0.128,0.098,0.72,0.245,0.744,0.324,-0.544
790,-0.02,-0.558,-0.14,0.129,0.6,0.209,0.73,0.301,-0.535
791,-0.371,-0.239,-0.11,0.163,0.491,0.192,0.732,0.324,-0.559
792,-0.595,0.042,-0.048,0.184,0.441,0.215,0.732,0.319,-0.556
793,-0.63,0.092,-0.007,0.135,0.477,0.273,0.717,0.322,-0.555
794,-0.615,0.035,0.007,0.027,0.568,0.341,0.711,0.318,-0.535
795,-0.613,-0.05,0.005,-0.059,0.582,0.419,0.73,0.328,-0.528
796,-0.628,-0.099,0.039,-0.088,0.638,0.446,0.708,0.342,-0.517
797,-0.539,-0.141,0.163,-0.094,1.044,0.648,0.741,0.345,-0.535
798,-0.224,-0.267,0.254,-0.094,1.044,0.648,0.732,0.336,-0.523
799,0.151,-0.21,0.257,-0.111,1.221,0.735,0.744,0.36,-0.522
800,0.0,0.115,0.261,-0.116,1.259,0.736,0.715,0.343,-0.529
801,-0.216,-0.095,0.156,-0.045,1.156,0.686,0.742,0.349,-0.537
802,-0.015,-0.749,-0.015,-0.03,0.898,0.686,0.729,0.36,-0.513
803,0.302,-0.891,-0.011,-0.002,0.613,0.631,0.697,0.358,-0.526
804,-0.044,0.235,0.109,0.211,0.822,0.336,0.697,0.358,-0.526
805,-0.208,0.487,-0.052,0.376,1.568,-0.06,0.693,0.358,-0.532
806,0.284,0.0,0.025,0.181,1.995,0.1,0.706,0.334,-0.526
807,0.303,0.366,-0.165,-0.034,1.265,0.215,0.711,0.357,-0.525
808,0.492,0.186,-0.212,0.033,0.522,-0.131,0.709,0.36,-0.528
809,-0.189,0.536,-0.032,0.078,0.562,-0.035,0.709,0.36,-0.528
810,-0.686,1.28,0.027,0.008,0.782,0.032,0.726,0.334,-0.517
811,-0.64,0.858,0.189,-0.147,1.21,-0.109,0.715,0.379,-0.472
812,-0.401,0.721,0.231,-0.186,1.412,0.049,0.756,0.364,-0.489
813,-0.083,1.087,0.07,-0.049,1.197,0.297,0.754,0.363,-0.472
814,-0.009,1.096,-0.042,0.021,0.924,0.309,0.777,0.382,-0.484
815,-0.098,1.025,-0.079,-0.204,0.737,-0.04,0.771,0.369,-0.466
816,-0.648,1.114,0.07,-0.204,0.737,-0.04,0.786,0.366,-0.456
817,-0.779,0.984,0.123,-0.335,0.783,-0.082,0.786,0.366,-0.456
818,-0.724,0.791,0.107,-0.341,0.875,0.04,0.78,0.373,-0.45
819,-0.646,0.704,0.058,-0.241,0.891,0.17,0.796,0.376,-0.441
820,-0.555,0.604,-0.077,-0.171,0.846,0.132,0.817,0.381,-0.417
821,-0.552,0.65,-0.171,-0.173,0.846,0.105,0.798,0.37,-0.399
822,-0.567,0.612,-0.224,-0.189,0.864,0.11,0.804,0.384,-0.405
823,-0.595,0.528,-0.267,-0.203,0.818,0.134,0.807,0.385,-0.393
824,-0.662,0.319,-0.3,-0.236,0.795,0.087,0.813,0.403,-0.391
825,-0.704,0.229,-0.341,-0.231,0.803,0.084,0.796,0.39,-0.378
826,-0.658,0.273,-0.367,-0.2,0.842,0.143,0.807,0.412,-0.367
827,-0.564,0.333,-0.375,-0.184,0.901,0.133,0.787,0.4,-0.349
828,-0.467,0.376,-0.36,-0.206,0.954,0.109,0.783,0.396,-0.364
829,-0.351,0.407,-0.299,-0.241,1.012,0.079,0.792,0.399,-0.36
830,-0.224,0.33,-0.215,-0.239,1.084,0.084,0.78,0.414,-0.333
831,-0.166,0.173,-0.153,-0.233,1.106,0.127,0.766,0.436,-0.328
832,-0.104,0.187,-0.133,-0.176,1.104,0.255,0.772,0.405,-0.319
833,0.097,0.317,-0.145,-0.176,1.104,0.255,0.784,0.391,-0.322
834,0.315,0.258,-0.128,-0.249,1.16,0.192,0.793,0.414,-0.325
835,0.489,-0.172,-0.021,-0.333,1.171,-0.02,0.793,0.414,-0.325
836,0.755,-0.616,0.152,-0.505,1.264,-0.15,0.762,0.429,-0.31
837,1.137,-0.728,0.252,-0.512,1.366,-0.234,0.775,0.439,-0.318
838,1.168,-0.911,0.289,-0.066,1.38,-0.205,0.766,0.42,-0.345
839,1.125,-0.929,0.238,0.177,1.356,-0.042,0.756,0.409,-0.364
840,1.148,-0.415,0.228,0.107,1.405,0.027,0.759,0.408,-0.375
841,1.103,-0.147,0.16,0.054,1.382,0.059,0.778,0.403,-0.409
842,1.107,0.003,0.032,-0.005,1.23,0.069,0.768,0.393,-0.411
843,1.047,-0.292,-0.052,-0.048,1.097,0.079,0.784,0.39,-0.418
844,0.933,-0.603,0.129,-0.152,1.052,0.032,0.768,0.37,-0.421
845,0.894,-0.775,0.27,-0.276,1.131,0.004,0.763,0.376,-0.421
846,0.88,-1.278,0.105,-0.218,1.126,0.108,0.757,0.358,-0.448
847,0.823,-1.494,-0.062,-0.068,0.929,0.107,0.753,0.369,-0.468
848,0.655,-1.28,-0.036,0.006,0.792,0.118,0.76,0.376,-0.487
849,0.491,-0.951,0.034,0.07,0.793,0.214,0.738,0.349,-0.49
850,0.34,-0.82,0.064,0.119,0.767,0.217,0.739,0.358,-0.505
851,0.191,-0.818,0.017,0.119,0.767,0.217,0.741,0.343,-0.498
852,-0.028,-0.645,-0.021,0.087,0.653,0.13,0.718,0.339,-0.505
853,-0.318,-0.328,0.025,0.101,0.56,0.149,0.718,0.339,-0.505
854,-0.43,-0.187,0.051,0.124,0.568,0.23,0.711,0.333,-0.505
855,-0.388,-0.212,0.041,0.087,0.603,0.296,0.727,0.331,-0.523
856,-0.422,-0.253,0.03,0.005,0.581,0.383,0.696,0.349,-0.507
857,-0.533,-0.273,0.042,-0.066,0.558,0.421,0.711,0.354,-0.516
858,-0.621,-0.309,0.1,-0.103,0.61,0.468,0.717,0.36,-0.516
859,-0.53,-0.384,0.204,-0.092,0.759,0.577,0.706,0.373,-0.507
860,-0.181,-0.499,0.236,-0.097,0.94,0.682,0.703,0.36,-0.507
861,0.192,-0.311,0.26,-0.178,1.102,0.723,0.703,0.372,-0.498
862,-0.084,0.028,0.338,-0.191,1.197,0.681,0.696,0.355,-0.507
863,-0.186,-0.403,0.258,-0.069,1.176,0.66,0.696,0.376,-0.483
864,0.27,-1.087,0.087,-0.002,0.996,0.708,0.702,0.363,-0.505
865,0.283,-0.494,0.144,0.128,0.879,0.587,0.702,0.363,-0.505
866,-0.214,0.606,0.035,0.328,1.398,0.205,0.697,0.36,-0.525
867,0.183,0.09,-0.034,0.161,1.349,0.097,0.675,0.352,-0.508
868,0.269,0.073,-0.147,0.078,0.676,0.001,0.675,0.352,-0.508
869,0.546,0.011,-0.108,0.078,0.676,0.001,0.691,0.345,-0.505
870,-0.14,0.521,0.096,0.036,0.7,0.071,0.691,0.345,-0.505
871,-0.685,1.246,0.055,-0.094,0.792,0.099,0.694,0.346,-0.516
872,-0.6,0.625,0.13,-0.289,1.128,-0.19,0.709,0.358,-0.514
873,-0.46,0.239,0.24,-0.29,1.372,-0.006,0.747,0.361,-0.498
874,-0.27,0.557,0.134,-0.081,1.153,0.271,0.736,0.357,-0.486
875,-0.196,0.716,-0.019,0.065,0.899,0.292,0.727,0.376,-0.496
876,-0.217,0.728,-0.025,0.048,0.858,0.226,0.751,0.376,-0.484
877,-0.31,0.77,0.081,-0.103,0.94,0.094,0.72,0.373,-0.484
878,-0.59,0.84,0.177,-0.241,0.891,0.05,0.736,0.384,-0.469
879,-0.725,0.768,0.162,-0.27,0.767,0.049,0.762,0.366,-0.46
880,-0.751,0.506,0.124,-0.247,0.765,0.048,0.757,0.367,-0.442
881,-0.688,0.452,0.046,-0.216,0.832,0.094,0.762,0.384,-0.453
882,-0.633,0.436,-0.065,-0.172,0.841,0.102,0.762,0.384,-0.453
883,-0.623,0.426,-0.129,-0.15,0.828,0.052,0.768,0.382,-0.442
884,-0.642,0.455,-0.17,-0.154,0.857,0.048,0.79,0.354,-0.438
885,-0.664,0.392,-0.199,-0.174,0.832,0.063,0.762,0.39,-0.409
886,-0.711,0.312,-0.226,-0.191,0.836,0.073,0.778,0.4,-0.409
887,-0.737,0.274,-0.272,-0.191,0.836,0.073,0.79,0.396,-0.412
888,-0.696,0.269,-0.315,-0.193,0.881,0.124,0.778,0.391,-0.415
889,-0.599,0.314,-0.336,-0.179,0.936,0.164,0.787,0.393,-0.39
890,-0.462,0.357,-0.325,-0.183,0.986,0.153,0.774,0.42,-0.369
891,-0.341,0.398,-0.258,-0.206,1.014,0.101,0.774,0.409,-0.385
892,-0.231,0.375,-0.17,-0.225,1.034,0.077,0.751,0.402,-0.357
893,-0.186,0.203,-0.111,-0.309,1.079,0.101,0.777,0.414,-0.378
894,-0.164,0.084,-0.069,-0.34,1.08,0.151,0.757,0.402,-0.355
895,0.057,0.155,-0.062,-0.257,1.133,0.199,0.769,0.412,-0.358
896,0.231,0.095,0.023,-0.28,1.235,0.129,0.777,0.423,-0.351
897,0.354,-0.218,0.134,-0.36,1.232,0.001,0.772,0.426,-0.351
898,0.676,-0.602,0.172,-0.506,1.232,-0.049,0.772,0.426,-0.351
899,1.064,-0.817,0.205,-0.429,1.319,-0.182,0.769,0.405,-0.384
900,1.154,-1.022,0.276,-0.048,1.342,-0.254,0.766,0.4,-0.375
901,1.116,-0.981,0.266,0.124,1.265,-0.132,0.777,0.388,-0.408
902,1.164,-0.465,0.312,0.096,1.36,0.008,0.768,0.399,-0.417
903,1.108,-0.074,0.296,0.07,1.287,0.039,0.748,0.381,-0.436
904,1.173,0.219,0.19,0.07,1.287,0.039,0.772,0.369,-0.432
905,1.136,0.192,-0.025,0.043,1.149,0.087,0.769,0.376,-0.462
906,0.987,-0.414,0.101,-0.126,1.066,0.04,0.763,0.342,-0.484
907,1.014,-0.835,0.252,-0.332,1.133,-0.038,0.766,0.345,-0.505
908,1.053,-1.37,0.001,-0.3,1.089,0.03,0.765,0.339,-0.486
909,0.962,-1.296,-0.142,-0.04,0.89,0.086,0.754,0.321,-0.513
910,0.795,-0.984,-0.109,0.109,0.862,0.197,0.742,0.325,-0.519
911,0.694,-0.805,-0.089,0.111,0.897,0.269,0.745,0.297,-0.547
912,0.565,-0.742,-0.135,0.105,0.856,0.219,0.73,0.295,-0.558
913,0.31,-0.695,-0.206,0.127,0.723,0.215,0.733,0.291,-0.559
914,-0.039,-0.553,-0.212,0.13,0.568,0.193,0.733,0.291,-0.559
915,-0.375,-0.282,-0.151,0.08,0.485,0.21,0.705,0.283,-0.561
916,-0.532,-0.112,-0.094,0.042,0.488,0.265,0.697,0.295,-0.556
917,-0.551,-0.131,-0.035,0.031,0.544,0.324,0.711,0.318,-0.565
918,-0.595,-0.24,-0.004,0.011,0.571,0.43,0.691,0.324,-0.556
919,-0.648,-0.315,0.032,-0.028,0.574,0.534,0.696,0.309,-0.57
920,-0.62,-0.375,0.095,-0.103,0.834,0.623,0.666,0.319,-0.552
921,-0.39,-0.524,0.177,-0.103,0.834,0.623,0.676,0.318,-0.535
922,0.019,-0.618,0.212,-0.083,1.009,0.658,0.682,0.318,-0.547
923,0.14,-0.119,0.285,-0.057,1.173,0.643,0.672,0.322,-0.555
924,-0.335,0.189,0.406,0.064,1.265,0.654,0.663,0.336,-0.546
925,-0.144,-0.453,0.247,0.112,1.15,0.747,0.658,0.321,-0.555
926,0.588,-1.006,-0.035,0.042,0.849,0.732,0.657,0.312,-0.555
927,0.225,-0.275,-0.035,0.199,0.843,0.456,0.657,0.312,-0.555
928,0.109,0.004,-0.135,0.281,1.43,0.027,0.657,0.318,-0.565
929,0.132,0.112,0.008,0.14,1.837,0.162,0.657,0.316,-0.58
930,0.319,0.136,-0.13,0.034,1.301,0.17,0.657,0.325,-0.567
931,0.239,0.137,-0.047,-0.043,0.768,-0.069,0.642,0.319,-0.579
932,-0.309,0.438,0.03,-0.064,0.719,0.136,0.657,0.303,-0.577
933,-0.511,0.575,0.065,-0.102,0.875,0.054,0.64,0.312,-0.574
934,-0.646,0.376,0.263,-0.145,1.206,-0.121,0.652,0.313,-0.568
935,-0.621,0.461,0.392,-0.103,1.275,0.0,0.651,0.327,-0.561
936,-0.332,0.75,0.23,-0.006,1.14,0.197,0.67,0.328,-0.568
937,-0.205,0.87,0.097,0.122,0.968,0.264,0.675,0.33,-0.538
938,-0.274,0.929,0.073,-0.098,0.912,0.032,0.663,0.334,-0.537
939,-0.458,1.009,0.118,-0.098,0.912,0.032,0.69,0.348,-0.555
940,-0.697,1.062,0.154,-0.25,0.871,-0.026,0.69,0.348,-0.555
941,-0.751,0.84,0.138,-0.29,0.794,0.022,0.703,0.334,-0.547
942,-0.672,0.672,0.104,-0.257,0.783,0.106,0.696,0.339,-0.534
943,-0.664,0.553,0.03,-0.225,0.79,0.131,0.699,0.358,-0.507
944,-0.623,0.499,-0.074,-0.217,0.82,0.066,0.699,0.358,-0.507
945,-0.584,0.533,-0.129,-0.218,0.879,0.05,0.727,0.351,-0.486
946,-0.585,0.511,-0.181,-0.18,0.886,0.1,0.732,0.36,-0.499
947,-0.593,0.455,-0.236,-0.157,0.856,0.088,0.712,0.373,-0.49
948,-0.639,0.367,-0.287,-0.184,0.855,0.077,0.697,0.373,-0.463
949,-0.632,0.326,-0.325,-0.206,0.869,0.098,0.715,0.375,-0.46
950,-0.561,0.338,-0.349,-0.187,0.905,0.136,0.714,0.384,-0.456
951,-0.472,0.338,-0.352,-0.185,0.942,0.15,0.696,0.37,-0.448
952,-0.421,0.343,-0.308,-0.228,0.953,0.113,0.7,0.388,-0.441
953,-0.352,0.352,-0.24,-0.246,0.978,0.076,0.7,0.388,-0.441
954,-0.274,0.244,-0.165,-0.261,1.044,0.072,0.706,0.4,-0.441
955,-0.25,0.105,-0.109,-0.202,1.094,0.126,0.688,0.394,-0.426
956,-0.189,0.116,-0.065,-0.15,1.162,0.134,0.688,0.394,-0.426
957,-0.025,0.2,-0.038,-0.15,1.162,0.134,0.709,0.412,-0.426
958,0.107,0.112,0.068,-0.239,1.249,0.071,0.709,0.411,-0.418
959,0.311,-0.168,0.114,-0.431,1.274,0.005,0.718,0.409,-0.406
960,0.67,-0.454,0.077,-0.524,1.294,-0.088,0.714,0.411,-0.417
961,1.013,-0.628,0.055,-0.267,1.352,-0.214,0.72,0.412,-0.403
962,1.123,-0.897,0.136,0.037,1.281,-0.214,0.723,0.417,-0.432
963,1.101,-0.961,0.186,0.065,1.157,-0.121,0.721,0.39,-0.441
964,1.162,-0.631,0.235,0.035,1.17,-0.014,0.711,0.385,-0.459
965,1.152,-0.196,0.234,0.04,1.27,0.087,0.714,0.387,-0.466
966,1.157,-0.059,0.115,0.059,1.266,0.12,0.724,0.364,-0.474
967,1.066,-0.203,-0.071,0.034,1.171,0.062,0.736,0.378,-0.513
968,0.945,-0.457,-0.042,-0.075,1.11,0.003,0.724,0.366,-0.534
969,0.952,-0.757,0.088,-0.2,1.091,0.027,0.736,0.351,-0.516
970,0.985,-1.054,0.127,-0.242,1.085,0.094,0.708,0.348,-0.543
971,0.9,-1.108,0.037,-0.133,0.972,0.154,0.715,0.333,-0.543
972,0.77,-1.016,-0.07,0.02,0.861,0.221,0.715,0.333,-0.543
973,0.66,-0.817,0.025,0.108,0.905,0.226,0.697,0.339,-0.547
974,0.506,-0.654,0.102,0.108,0.905,0.226,0.7,0.325,-0.553
975,0.401,-0.632,0.029,0.104,0.874,0.226,0.69,0.319,-0.552
976,0.149,-0.519,-0.083,0.109,0.716,0.194,0.682,0.303,-0.573
977,-0.179,-0.268,-0.125,0.117,0.573,0.211,0.682,0.303,-0.573
978,-0.428,-0.063,-0.07,0.092,0.523,0.26,0.676,0.331,-0.582
979,-0.514,-0.053,-0.018,0.063,0.542,0.299,0.669,0.334,-0.607
980,-0.514,-0.168,-0.015,0.029,0.552,0.336,0.676,0.327,-0.58
981,-0.534,-0.261,-0.025,-0.008,0.532,0.418,0.681,0.339,-0.559
982,-0.596,-0.266,0.028,-0.043,0.543,0.507,0.681,0.336,-0.574
983,-0.602,-0.281,0.16,-0.049,0.653,0.574,0.67,0.345,-0.573
984,-0.387,-0.345,0.278,-0.047,0.864,0.638,0.675,0.336,-0.549
985,0.033,-0.189,0.31,-0.093,1.11,0.666,0.669,0.342,-0.57
986,0.043,0.166,0.369,-0.122,1.313,0.646,0.672,0.345,-0.565
987,-0.164,-0.156,0.273,-0.07,1.299,0.676,0.672,0.351,-0.573
988,0.077,-0.914,0.013,-0.08,1.021,0.746,0.673,0.355,-0.564
989,0.296,-1.049,-0.065,-0.072,0.586,0.674,0.648,0.343,-0.57
990,0.168,-0.37,-0.033,0.15,0.508,0.297,0.648,0.343,-0.57
991,0.052,-0.048,-0.128,0.36,1.993,0.195,0.642,0.358,-0.564
992,-0.219,0.235,0.139,0.36,1.993,0.195,0.652,0.355,-0.573
993,0.109,0.188,-0.118,0.175,1.4,0.172,0.655,0.33,-0.564
994,0.45,-0.026,-0.214,0.078,0.779,-0.185,0.655,0.346,-0.55
995,-0.117,0.285,-0.082,0.036,0.71,-0.034,0.645,0.345,-0.567
996,-0.488,0.624,-0.051,-0.032,0.79,-0.085,0.649,0.355,-0.564
997,-0.651,0.487,0.148,-0.11,1.085,-0.21,0.658,0.351,-0.558
998,-0.609,0.403,0.321,-0.149,1.271,-0.04,0.648,0.327,-0.552
999,-0.292,0.679,0.237,-0.079,1.208,0.226,0.655,0.343,-0.553
1000,-0.057,0.814,0.082,0.023,1.039,0.337,0.681,0.373,-0.531
1001,-0.109,0.793,0.019,0.051,0.883,0.233,0.694,0.357,-0.508
1002,-0.308,0.816,0.047,-0.074,0.821,0.111,0.691,0.36,-0.504
1003,-0.471,0.841,0.109,-0.214,0.832,0.012,0.706,0.337,-0.531
1004,-0.522,0.801,0.162,-0.266,0.844,0.007,0.718,0.357,-0.492
1005,-0.558,0.611,0.152,-0.222,0.843,0.123,0.718,0.375,-0.501
1006,-0.537,0.474,0.091,-0.165,0.852,0.153,0.741,0.388,-0.474
1007,-0.475,0.493,0.041,-0.177,0.882,0.105,0.73,0.37,-0.474
1008,-0.448,0.525,-0.018,-0.198,0.865,0.138,0.739,0.384,-0.477
1009,-0.436,0.571,-0.079,-0.198,0.865,0.138,0.744,0.378,-0.468
1010,-0.443,0.522,-0.126,-0.175,0.845,0.165,0.754,0.388,-0.463
1011,-0.529,0.439,-0.172,-0.189,0.828,0.142,0.754,0.388,-0.463
1012,-0.634,0.319,-0.21,-0.218,0.84,0.106,0.751,0.394,-0.441
1013,-0.665,0.296,-0.261,-0.192,0.885,0.153,0.745,0.408,-0.424
1014,-0.642,0.313,-0.305,-0.152,0.936,0.205,0.745,0.408,-0.424
1015,-0.583,0.303,-0.322,-0.164,0.965,0.173,0.745,0.414,-0.409
1016,-0.516,0.286,-0.291,-0.214,0.966,0.114,0.747,0.411,-0.397
1017,-0.418,0.26,-0.224,-0.228,0.972,0.051,0.745,0.417,-0.4
1018,-0.297,0.156,-0.15,-0.248,1.045,0.047,0.766,0.423,-0.403
1019,-0.214,0.034,-0.1,-0.287,1.089,0.106,0.733,0.439,-0.399
1020,-0.177,0.03,-0.077,-0.236,1.051,0.17,0.756,0.463,-0.4
1021,-0.038,0.168,-0.072,-0.166,1.086,0.219,0.75,0.46,-0.375
1022,0.153,0.175,-0.079,-0.211,1.098,0.18,0.751,0.429,-0.384
1023,0.322,-0.107,-0.046,-0.315,1.096,0.017,0.751,0.466,-0.394
1024,0.534,-0.576,0.097,-0.455,1.237,-0.094,0.733,0.456,-0.391
1025,0.914,-0.779,0.165,-0.494,1.31,-0.21,0.757,0.453,-0.406
1026,1.178,-0.903,0.258,0.208,1.341,-0.176,0.739,0.439,-0.427
1027,1.121,-1.02,0.269,0.208,1.341,-0.176,0.732,0.435,-0.435
1028,1.102,-0.767,0.248,0.195,1.255,-0.065,0.741,0.442,-0.448
1029,1.091,-0.298,0.235,0.095,1.285,0.011,0.756,0.441,-0.463
1030,1.12,0.096,0.175,0.026,1.299,0.064,0.727,0.438,-0.472
1031,1.143,0.104,0.019,0.009,1.213,0.081,0.727,0.438,-0.472
1032,0.986,-0.123,0.037,-0.024,1.119,0.054,0.753,0.444,-0.501
1033,0.87,-0.439,0.17,-0.126,1.054,-0.008,0.751,0.411,-0.501
1034,0.896,-0.69,0.202,-0.181,1.077,0.017,0.745,0.403,-0.517
1035,0.847,-0.982,0.115,-0.122,1.049,0.105,0.757,0.394,-0.534
1036,0.737,-0.968,0.056,-0.045,0.909,0.162,0.742,0.4,-0.54
1037,0.688,-0.832,0.04,-0.004,0.846,0.221,0.705,0.379,-0.576
1038,0.514,-0.646,0.078,0.07,0.854,0.269,0.717,0.396,-0.588
1039,0.337,-0.632,0.079,0.11,0.851,0.273,0.715,0.375,-0.589
1040,0.194,-0.613,0.008,0.112,0.801,0.217,0.723,0.367,-0.591
1041,-0.037,-0.379,-0.042,0.123,0.701,0.169,0.709,0.372,-0.597
1042,-0.277,-0.142,-0.053,0.113,0.631,0.203,0.709,0.372,-0.597
1043,-0.349,-0.065,-0.049,0.007,0.648,0.303,0.706,0.384,-0.609
1044,-0.361,-0.074,-0.044,-0.035,0.662,0.343,0.693,0.357,-0.583
1045,-0.426,-0.081,-0.045,-0.035,0.662,0.343,0.688,0.376,-0.583
1046,-0.534,-0.038,0.011,-0.038,0.661,0.366,0.684,0.394,-0.586
1047,-0.601,0.019,0.12,-0.025,0.733,0.41,0.679,0.393,-0.594
1048,-0.469,0.014,0.185,-0.026,0.865,0.504,0.691,0.403,-0.589
1049,-0.109,-0.007,0.182,-0.075,1.021,0.579,0.688,0.424,-0.58
1050,0.138,0.115,0.185,-0.182,1.135,0.582,0.697,0.408,-0.576
1051,-0.032,0.207,0.218,-0.232,1.147,0.541,0.691,0.409,-0.568
1052,-0.233,-0.185,0.202,-0.173,1.107,0.575,0.702,0.423,-0.57
1053,-0.086,-0.692,0.064,-0.155,0.97,0.631,0.7,0.423,-0.556
1054,-0.035,-0.525,-0.025,-0.14,0.639,0.567,0.7,0.43,-0.562
1055,-0.039,-0.354,-0.082,0.038,0.528,0.312,0.708,0.426,-0.573
1056,-0.091,-0.307,-0.002,0.207,1.065,0.145,0.691,0.429,-0.571
1057,-0.121,-0.064,0.028,0.213,1.748,0.313,0.69,0.435,-0.571
1058,-0.157,0.067,0.121,0.068,1.875,0.328,0.69,0.435,-0.571
1059,-0.123,0.148,0.016,-0.003,1.301,0.113,0.675,0.435,-0.573
1060,0.04,0.047,-0.094,0.022,0.757,0.0,0.681,0.433,-0.559
1061,-0.067,-0.011,-0.073,-0.109,0.8,-0.01,0.676,0.442,-0.556
1062,-0.319,0.145,0.007,-0.109,0.8,-0.01,0.667,0.451,-0.568
1063,-0.452,0.266,0.126,-0.081,0.976,0.002,0.693,0.438,-0.573
1064,-0.406,0.371,0.196,-0.06,1.169,0.024,0.715,0.451,-0.573
1065,-0.221,0.485,0.132,-0.039,1.169,0.118,0.697,0.462,-0.564
1066,-0.081,0.478,0.027,0.012,1.033,0.198,0.705,0.43,-0.556
1067,-0.063,0.4,-0.026,-0.001,0.963,0.16,0.708,0.459,-0.538
1068,-0.127,0.329,-0.014,-0.106,0.964,0.068,0.705,0.447,-0.534
1069,-0.227,0.289,0.004,-0.196,0.957,0.034,0.73,0.451,-0.54
1070,-0.246,0.284,0.016,-0.218,0.92,0.072,0.726,0.468,-0.547
1071,-0.235,0.275,0.014,-0.2,0.916,0.107,0.738,0.468,-0.543
1072,-0.24,0.229,0.001,-0.18,0.925,0.129,0.739,0.469,-0.54
1073,-0.248,0.217,-0.01,-0.17,0.955,0.134,0.735,0.471,-0.517
1074,-0.226,0.219,-0.035,-0.165,0.971,0.146,0.736,0.46,-0.496
1075,-0.182,0.233,-0.052,-0.163,0.971,0.184,0.736,0.46,-0.496
1076,-0.132,0.235,-0.047,-0.146,0.984,0.199,0.744,0.463,-0.52
1077,-0.083,0.236,-0.042,-0.124,0.992,0.188,0.739,0.492,-0.517
1078,-0.039,0.234,-0.053,-0.123,0.981,0.184,0.727,0.483,-0.505
1079,-0.016,0.257,-0.062,-0.149,0.968,0.172,0.733,0.472,-0.531
1080,-0.018,0.257,-0.054,-0.149,0.968,0.172,0.754,0.478,-0.505
1081,-0.062,0.242,-0.035,-0.181,0.975,0.145,0.732,0.472,-0.504
1082,-0.118,0.17,-0.032,-0.192,0.977,0.105,0.756,0.493,-0.487
1083,-0.186,0.091,-0.041,-0.182,0.978,0.077,0.732,0.49,-0.498
1084,-0.238,0.0,-0.062,-0.175,0.99,0.074,0.745,0.496,-0.487
1085,-0.249,-0.05,-0.079,-0.17,0.998,0.081,0.75,0.474,-0.486
1086,-0.259,-0.038,-0.067,-0.152,1.017,0.094,0.766,0.478,-0.487
1087,-0.22,0.031,-0.039,-0.134,1.034,0.09,0.723,0.496,-0.475
1088,-0.142,0.202,-0.016,-0.134,1.039,0.08,0.721,0.487,-0.471
1089,-0.147,0.322,0.025,-0.115,1.035,0.054,0.726,0.508,-0.457
1090,-0.179,0.286,0.04,-0.083,1.013,0.01,0.726,0.508,-0.457
1091,-0.137,0.217,-0.007,-0.055,1.001,-0.018,0.736,0.508,-0.468
1092,-0.099,0.119,-0.071,-0.025,1.015,-0.001,0.735,0.507,-0.445
1093,-0.101,0.009,-0.112,-0.043,1.012,0.012,0.735,0.517,-0.453
1094,-0.105,-0.015,-0.121,-0.081,1.001,-0.02,0.759,0.505,-0.448
1095,-0.091,0.007,-0.113,-0.097,1.009,-0.028,0.754,0.513,-0.447
1096,-0.074,0.052,-0.094,-0.096,1.026,0.027,0.742,0.498,-0.444
1097,-0.07,0.104,-0.073,-0.096,1.026,0.027,0.735,0.522,-0.447
1098,-0.068,0.13,-0.063,-0.071,1.024,0.035,0.742,0.51,-0.435
1099,-0.06,0.123,-0.065,-0.057,1.017,0.037,0.738,0.514,-0.442
1100,-0.045,0.088,-0.079,-0.063,1.006,0.037,0.739,0.507,-0.441
1101,-0.035,0.053,-0.089,-0.085,0.993,0.03,0.742,0.525,-0.433
1102,-0.032,0.034,-0.093,-0.103,0.993,0.026,0.741,0.51,-0.457
1103,-0.025,0.037,-0.089,-0.105,1.003,0.035,0.736,0.498,-0.438
1104,-0.016,0.046,-0.078,-0.095,1.004,0.047,0.724,0.526,-0.441
1105,-0.008,0.041,-0.072,-0.082,1.007,0.054,0.724,0.526,-0.441
1106,0.005,0.023,-0.072,-0.08,1.012,0.053,0.727,0.501,-0.444
1107,0.014,-0.004,-0.074,-0.086,1.009,0.048,0.76,0.523,-0.444
1108,0.021,-0.024,-0.074,-0.088,1.011,0.051,0.741,0.499,-0.438
1109,0.018,-0.025,-0.072,-0.089,1.015,0.065,0.759,0.517,-0.42
1110,0.013,-0.03,-0.069,-0.09,1.013,0.07,0.732,0.519,-0.429
1111,0.009,-0.034,-0.067,-0.083,1.008,0.063,0.732,0.528,-0.433
1112,0.004,-0.038,-0.063,-0.071,1.001,0.056,0.747,0.504,-0.439
1113,0.003,-0.053,-0.062,-0.059,0.99,0.048,0.726,0.505,-0.454
1114,0.009,-0.06,-0.061,-0.048,0.988,0.073,0.736,0.519,-0.432
1115,0.014,-0.037,-0.053,-0.048,0.988,0.073,0.733,0.508,-0.457
1116,0.004,-0.005,-0.039,-0.056,1.002,0.089,0.741,0.522,-0.438
1117,-0.002,0.007,-0.03,-0.064,1.012,0.088,0.735,0.516,-0.435
1118,0.0,0.002,-0.028,-0.07,1.018,0.083,0.741,0.51,-0.429
1119,0.009,-0.005,-0.031,-0.068,1.024,0.088,0.751,0.508,-0.432
1120,0.012,-0.007,-0.034,-0.063,1.023,0.092,0.718,0.526,-0.421
1121,0.01,-0.011,-0.032,-0.059,1.018,0.095,0.718,0.526,-0.421
1122,0.01,-0.017,-0.025,-0.06,1.014,0.093,0.729,0.528,-0.433
1123,0.009,-0.008,-0.02,-0.063,1.012,0.085,0.75,0.514,-0.444
1124,0.008,-0.002,-0.022,-0.058,1.014,0.087,0.741,0.516,-0.433
1125,0.012,-0.003,-0.028,-0.051,1.011,0.086,0.721,0.52,-0.454
1126,0.013,-0.013,-0.032,-0.046,1.006,0.076,0.742,0.529,-0.436
1127,0.013,-0.016,-0.029,-0.049,1.007,0.075,0.73,0.511,-0.436
1128,0.007,-0.016,-0.023,-0.051,1.003,0.075,0.729,0.519,-0.459
1129,0.01,-0.008,-0.019,-0.049,1.003,0.073,0.742,0.543,-0.436
1130,0.012,-0.005,-0.019,-0.048,1.006,0.075,0.733,0.525,-0.46
1131,0.012,0.001,-0.023,-0.044,1.01,0.08,0.733,0.535,-0.444
1132,0.016,-0.002,-0.025,-0.044,1.007,0.08,0.732,0.51,-0.436
1133,0.016,0.009,-0.02,-0.046,1.007,0.074,0.732,0.523,-0.45
1134,0.016,0.016,-0.016,-0.05,1.008,0.077,0.73,0.502,-0.433
1135,0.02,0.016,-0.013,-0.051,1.011,0.08,0.745,0.52,-0.432
1136,0.023,0.02,-0.015,-0.05,1.01,0.087,0.727,0.51,-0.451
1137,0.021,0.028,-0.013,-0.052,1.012,0.087,0.727,0.51,-0.451
1138,0.018,0.03,-0.011,-0.056,1.011,0.083,0.735,0.517,-0.432
1139,0.018,0.027,-0.009,-0.056,1.011,0.085,0.723,0.507,-0.438
1140,0.018,0.03,-0.009,-0.055,1.014,0.085,0.739,0.525,-0.448
1141,0.017,0.027,-0.011,-0.056,1.009,0.081,0.733,0.511,-0.451
1142,0.014,0.024,-0.012,-0.056,1.003,0.082,0.744,0.513,-0.438
1143,0.009,0.025,-0.011,-0.056,1.002,0.081,0.723,0.517,-0.426
1144,0.006,0.024,-0.012,-0.063,1.003,0.081,0.714,0.525,-0.453
1145,0.007,0.018,-0.011,-0.066,1.003,0.078,0.736,0.525,-0.445
1146,0.006,0.021,-0.011,-0.064,1.003,0.078,0.727,0.513,-0.447
1147,0.007,0.018,-0.011,-0.065,1.005,0.081,0.742,0.522,-0.432
1148,0.011,0.017,-0.011,-0.065,1.006,0.08,0.729,0.504,-0.447
1149,0.011,0.015,-0.01,-0.062,1.006,0.079,0.748,0.508,-0.45
1150,0.01,0.012,-0.01,-0.062,1.006,0.079,0.732,0.522,-0.451
1151,0.013,0.009,-0.011,-0.066,1.007,0.084,0.73,0.516,-0.447
1152,0.014,0.01,-0.009,-0.068,1.007,0.089,0.73,0.516,-0.447
1153,0.013,0.007,-0.005,-0.068,1.008,0.088,0.741,0.513,-0.433
1154,0.011,0.0,-0.005,-0.07,1.005,0.086,0.742,0.511,-0.448
1155,0.007,0.0,-0.005,-0.068,1.004,0.088,0.738,0.516,-0.429
1156,0.009,-0.006,-0.009,-0.067,1.004,0.085,0.748,0.504,-0.45
1157,0.012,-0.009,-0.009,-0.068,1.005,0.085,0.727,0.52,-0.444
1158,0.012,-0.003,-0.006,-0.066,1.007,0.09,0.735,0.517,-0.454
1159,0.008,-0.004,-0.004,-0.065,1.007,0.087,0.732,0.507,-0.45
1160,0.009,-0.004,-0.005,-0.064,1.009,0.086,0.744,0.516,-0.451
1161,0.011,-0.003,-0.008,-0.064,1.007,0.086,0.733,0.51,-0.45
1162,0.012,-0.011,-0.008,-0.064,1.004,0.085,0.717,0.514,-0.456
1163,0.01,-0.008,-0.007,-0.068,1.005,0.089,0.735,0.529,-0.423
1164,0.005,-0.005,-0.005,-0.07,1.007,0.093,0.735,0.529,-0.423
1165,0.003,-0.007,-0.007,-0.067,1.007,0.095,0.709,0.522,-0.42
1166,0.004,-0.004,-0.004,-0.072,1.002,0.089,0.709,0.522,-0.42
1167,0.003,-0.006,-0.005,-0.073,0.999,0.087,0.735,0.522,-0.435
1168,0.007,-0.017,-0.006,-0.073,0.999,0.087,0.723,0.519,-0.433
1169,0.01,-0.013,-0.006,-0.072,1.003,0.09,0.723,0.519,-0.433
1170,0.009,-0.015,-0.009,-0.07,1.008,0.091,0.742,0.523,-0.445
1171,0.009,-0.017,-0.01,-0.069,1.006,0.091,0.723,0.511,-0.43
1172,0.009,-0.008,-0.009,-0.067,1.004,0.094,0.75,0.522,-0.435
1173,0.009,-0.011,-0.007,-0.068,1.005,0.09,0.751,0.516,-0.441
1174,0.013,-0.011,-0.007,-0.07,1.004,0.091,0.73,0.522,-0.448
1175,0.013,-0.009,-0.005,-0.071,1.004,0.092,0.736,0.517,-0.442
1176,0.011,-0.003,-0.004,-0.069,1.005,0.092,0.732,0.528,-0.447
1177,0.011,-0.004,-0.004,-0.069,1.006,0.093,0.727,0.507,-0.423
1178,0.014,-0.002,-0.006,-0.071,1.007,0.091,0.729,0.529,-0.439
1179,0.014,-0.008,-0.007,-0.07,1.008,0.091,0.753,0.529,-0.448
1180,0.011,-0.006,-0.007,-0.07,1.008,0.093,0.733,0.505,-0.438
1181,0.011,0.0,-0.007,-0.07,1.006,0.096,0.739,0.51,-0.456
1182,0.009,0.002,-0.006,-0.072,1.003,0.093,0.739,0.51,-0.456
1183,0.01,-0.002,-0.005,-0.074,1.003,0.091,0.73,0.508,-0.436
1184,0.011,-0.007,-0.004,-0.071,1.002,0.09,0.73,0.508,-0.436
1185,0.011,0.0,-0.004,-0.069,1.006,0.093,0.738,0.513,-0.441
1186,0.008,0.007,-0.007,-0.069,1.006,0.093,0.744,0.516,-0.456
1187,0.009,0.005,-0.009,-0.066,1.009,0.092,0.729,0.514,-0.43
1188,0.009,0.011,-0.009,-0.066,1.009,0.092,0.718,0.501,-0.45
1189,0.005,0.021,-0.011,-0.068,1.006,0.098,0.739,0.525,-0.451
1190,0.004,0.018,-0.014,-0.068,1.005,0.094,0.742,0.508,-0.438
1191,0.006,0.018,-0.012,-0.068,1.005,0.095,0.739,0.522,-0.447
1192,0.004,0.018,-0.014,-0.071,1.007,0.1,0.729,0.501,-0.436
1193,0.003,0.021,-0.016,-0.071,1.008,0.097,0.748,0.51,-0.444
1194,0.004,0.023,-0.017,-0.07,1.006,0.097,0.73,0.508,-0.444
1195,0.004,0.027,-0.016,-0.071,1.003,0.1,0.721,0.526,-0.451
1196,0.004,0.028,-0.016,-0.074,1.003,0.1,0.727,0.495,-0.436
1197,0.003,0.023,-0.016,-0.078,1.004,0.1,0.75,0.517,-0.447
1198,0.007,0.023,-0.017,-0.082,1.003,0.103,0.741,0.531,-0.424
1199,0.008,0.018,-0.018,-0.084,1.004,0.103,0.748,0.526,-0.441
1200,0.006,0.014,-0.019,-0.082,1.004,0.104,0.748,0.526,-0.441
1201,0.004,0.011,-0.017,-0.081,1.001,0.099,0.73,0.513,-0.441
1202,0.003,0.014,-0.015,-0.078,1.0,0.1,0.739,0.508,-0.445
1203,0.003,0.016,-0.013,-0.078,1.0,0.1,0.745,0.507,-0.439
1204,0.004,0.016,-0.016,-0.073,1.001,0.101,0.73,0.522,-0.448
1205,0.002,0.018,-0.015,-0.071,1.002,0.1,0.75,0.501,-0.433
1206,0.003,0.017,-0.015,-0.078,1.003,0.097,0.741,0.522,-0.442
1207,0.009,0.013,-0.015,-0.081,1.001,0.097,0.745,0.505,-0.45
1208,0.011,0.006,-0.014,-0.08,1.004,0.096,0.736,0.501,-0.441
1209,0.014,0.0,-0.014,-0.082,1.007,0.096,0.739,0.501,-0.456
1210,0.014,-0.006,-0.016,-0.08,1.009,0.097,0.757,0.529,-0.438
1211,0.008,-0.002,-0.018,-0.079,1.009,0.1,0.736,0.493,-0.444
1212,0.002,-0.004,-0.021,-0.076,1.004,0.1,0.747,0.519,-0.457
1213,-0.002,0.001,-0.023,-0.067,0.999,0.101,0.735,0.517,-0.441
1214,-0.004,0.005,-0.022,-0.061,1.001,0.095,0.735,0.523,-0.45
1215,-0.006,0.014,-0.018,-0.064,1.004,0.098,0.739,0.526,-0.444
1216,-0.002,0.011,-0.017,-0.071,1.007,0.103,0.739,0.526,-0.444
1217,0.0,0.006,-0.019,-0.075,1.007,0.097,0.738,0.523,-0.429
1218,0.002,0.003,-0.018,-0.076,1.007,0.1,0.735,0.51,-0.438
1219,0.002,0.003,-0.016,-0.077,1.007,0.104,0.73,0.508,-0.447
1220,0.0,0.0,-0.016,-0.077,1.003,0.097,0.745,0.507,-0.436
1221,0.0,-0.002,-0.016,-0.077,1.003,0.097,0.736,0.52,-0.438
1222,0.001,-0.007,-0.015,-0.078,1.002,0.096,0.723,0.508,-0.46
1223,0.002,-0.009,-0.014,-0.076,1.003,0.097,0.741,0.523,-0.45
1224,0.004,-0.011,-0.014,-0.073,1.003,0.095,0.744,0.531,-0.453
1225,0.008,-0.014,-0.015,-0.074,1.005,0.094,0.736,0.508,-0.454
1226,0.008,-0.013,-0.016,-0.076,1.005,0.098,0.723,0.511,-0.433
1227,0.004,-0.017,-0.016,-0.074,1.004,0.098,0.742,0.51,-0.435
1228,0.003,-0.019,-0.016,-0.072,1.007,0.097,0.739,0.522,-0.448
1229,0.004,-0.021,-0.016,-0.073,1.007,0.095,0.738,0.507,-0.45
1230,0.002,-0.022,-0.018,-0.071,1.004,0.097,0.739,0.52,-0.445
1231,0.003,-0.024,-0.018,-0.07,1.003,0.102,0.742,0.51,-0.453
1232,0.006,-0.027,-0.018,-0.069,1.002,0.102,0.736,0.517,-0.45
1233,0.005,-0.022,-0.018,-0.067,1.001,0.101,0.727,0.516,-0.45
1234,0.002,-0.025,-0.02,-0.067,0.999,0.099,0.741,0.517,-0.465
1235,0.0,-0.023,-0.022,-0.064,1.0,0.1,0.747,0.505,-0.445
1236,0.002,-0.017,-0.021,-0.066,1.004,0.1,0.747,0.505,-0.445
1237,0.004,-0.016,-0.021,-0.07,1.006,0.102,0.735,0.538,-0.442
1238,0.007,-0.016,-0.021,-0.07,1.008,0.099,0.73,0.522,-0.442
1239,0.008,-0.014,-0.021,-0.069,1.008,0.099,0.733,0.526,-0.444
1240,0.01,-0.014,-0.023,-0.069,1.008,0.096,0.739,0.523,-0.435
1241,0.008,-0.013,-0.023,-0.065,1.005,0.096,0.735,0.511,-0.426
1242,0.005,-0.009,-0.023,-0.063,1.002,0.099,0.735,0.513,-0.445
1243,0.005,-0.011,-0.022,-0.065,1.001,0.1,0.723,0.514,-0.454
1244,0.006,-0.016,-0.021,-0.067,1.005,0.1,0.718,0.52,-0.435
1245,0.005,-0.014,-0.019,-0.065,1.008,0.101,0.727,0.537,-0.442
1246,0.004,-0.014,-0.018,-0.061,1.006,0.101,0.75,0.517,-0.453
1247,0.003,-0.009,-0.018,-0.058,1.005,0.102,0.708,0.499,-0.438
1248,0.002,-0.006,-0.016,-0.061,1.004,0.102,0.733,0.507,-0.439
1249,0.002,-0.006,-0.016,-0.061,1.001,0.099,0.736,0.529,-0.435
1250,0.001,-0.009,-0.015,-0.055,1.004,0.097,0.735,0.531,-0.435
1251,0.002,-0.012,-0.016,-0.051,1.005,0.098,0.735,0.531,-0.435
1252,0.001,-0.01,-0.016,-0.05,1.008,0.101,0.736,0.532,-0.457
1253,0.0,-0.006,-0.018,-0.05,1.011,0.102,0.723,0.507,-0.438
1254,0.0,0.0,-0.018,-0.053,1.004,0.104,0.723,0.507,-0.438
1255,-0.001,0.007,-0.017,-0.052,0.999,0.099,0.724,0.522,-0.438
1256,-0.003,0.01,-0.016,-0.052,0.999,0.099,0.714,0.511,-0.445
1257,-0.001,0.009,-0.015,-0.053,0.998,0.1,0.726,0.516,-0.427
1258,-0.001,0.009,-0.012,-0.055,1.002,0.105,0.742,0.514,-0.444
1259,-0.001,0.014,-0.01,-0.056,1.004,0.107,0.726,0.508,-0.436
1260,0.0,0.01,-0.011,-0.055,1.006,0.103,0.726,0.508,-0.436
1261,-0.001,0.008,-0.011,-0.058,1.005,0.1,0.754,0.529,-0.453
1262,0.0,0.005,-0.01,-0.062,1.006,0.102,0.732,0.529,-0.444
1263,-0.001,0.003,-0.01,-0.065,1.008,0.1,0.718,0.516,-0.433
1264,-0.001,0.004,-0.011,-0.062,1.008,0.101,0.741,0.517,-0.442
1265,-0.001,-0.001,-0.011,-0.061,1.006,0.102,0.739,0.522,-0.45
1266,-0.001,0.0,-0.008,-0.062,1.003,0.099,0.727,0.519,-0.424
1267,-0.002,0.001,-0.006,-0.062,1.002,0.097,0.726,0.522,-0.441
1268,-0.002,-0.004,-0.007,-0.063,1.002,0.093,0.735,0.525,-0.456
1269,0.0,-0.009,-0.007,-0.062,1.005,0.093,0.745,0.504,-0.441
1270,0.004,-0.006,-0.007,-0.063,1.005,0.095,0.745,0.504,-0.441
1271,0.006,-0.006,-0.007,-0.063,1.005,0.097,0.733,0.507,-0.445
1272,0.004,-0.01,-0.007,-0.061,1.003,0.096,0.729,0.511,-0.465
1273,0.001,-0.01,-0.004,-0.063,1.006,0.097,0.73,0.537,-0.435
1274,0.0,-0.011,-0.005,-0.063,1.006,0.097,0.736,0.514,-0.423
1275,0.0,-0.008,-0.007,-0.062,1.007,0.097,0.726,0.511,-0.436
1276,0.002,-0.004,-0.008,-0.061,1.005,0.094,0.715,0.519,-0.447
1277,0.0,0.0,-0.007,-0.06,1.006,0.096,0.738,0.513,-0.445
1278,0.0,0.0,-0.007,-0.061,1.006,0.101,0.724,0.514,-0.445
1279,0.0,0.004,-0.005,-0.065,1.007,0.1,0.73,0.508,-0.435
1280,0.002,0.002,-0.006,-0.067,1.007,0.094,0.714,0.508,-0.43
1281,0.002,0.0,-0.006,-0.067,1.006,0.096,0.721,0.528,-0.439
1282,0.002,-0.002,-0.007,-0.069,1.005,0.099,0.745,0.511,-0.447
1283,0.001,-0.001,-0.007,-0.069,1.004,0.101,0.73,0.507,-0.456
1284,0.001,0.0,-0.006,-0.068,1.003,0.102,0.759,0.508,-0.435
1285,-0.001,0.001,-0.004,-0.068,1.003,0.098,0.747,0.495,-0.46
1286,0.0,-0.001,-0.005,-0.068,1.004,0.094,0.733,0.516,-0.45
1287,0.0,0.004,-0.004,-0.067,1.006,0.098,0.742,0.513,-0.448
1288,0.0,0.006,-0.005,-0.064,1.007,0.102,0.738,0.514,-0.454
1289,0.001,0.001,-0.005,-0.066,1.007,0.096,0.738,0.514,-0.454
1290,0.0,0.002,-0.004,-0.068,1.003,0.096,0.739,0.495,-0.438
1291,-0.002,0.004,-0.004,-0.068,1.003,0.096,0.732,0.511,-0.451
1292,-0.002,0.002,-0.006,-0.07,1.001,0.09,0.744,0.514,-0.454
1293,0.0,0.004,-0.008,-0.069,1.006,0.093,0.747,0.528,-0.439
1294,0.0,0.007,-0.009,-0.071,1.007,0.098,0.727,0.519,-0.454
1295,-0.001,0.007,-0.008,-0.068,1.005,0.098,0.751,0.519,-0.445
1296,-0.003,0.004,-0.008,-0.066,1.007,0.094,0.724,0.505,-0.447
1297,-0.003,0.004,-0.007,-0.069,1.005,0.096,0.735,0.531,-0.448
1298,-0.002,0.009,-0.008,-0.071,1.001,0.098,0.739,0.51,-0.465
1299,0.0,0.006,-0.008,-0.07,1.001,0.091,0.721,0.513,-0.445
1300,0.0,0.002,-0.007,-0.071,1.002,0.093,0.733,0.519,-0.453
1301,-0.001,0.002,-0.006,-0.074,1.005,0.097,0.75,0.529,-0.454
1302,-0.002,0.001,-0.007,-0.076,1.007,0.095,0.73,0.511,-0.439
1303,-0.002,-0.004,-0.009,-0.075,1.006,0.093,0.73,0.511,-0.439
1304,-0.003,-0.002,-0.01,-0.076,1.005,0.096,0.739,0.51,-0.448
1305,-0.004,-0.002,-0.009,-0.077,1.005,0.096,0.73,0.51,-0.454
1306,-0.003,0.001,-0.009,-0.072,1.007,0.095,0.733,0.514,-0.447
1307,-0.002,0.0,-0.01,-0.075,1.003,0.093,0.732,0.525,-0.442
1308,-0.002,-0.002,-0.011,-0.074,1.003,0.094,0.72,0.519,-0.46
1309,0.0,-0.004,-0.011,-0.074,1.003,0.094,0.72,0.523,-0.43
1310,0.001,0.0,-0.009,-0.073,1.005,0.094,0.733,0.508,-0.451
1311,0.0,-0.001,-0.01,-0.071,1.004,0.092,0.721,0.505,-0.444
1312,0.0,0.0,-0.01,-0.069,1.004,0.094,0.729,0.51,-0.439
1313,0.001,-0.002,-0.01,-0.071,1.003,0.093,0.717,0.501,-0.459
1314,0.001,-0.002,-0.011,-0.074,1.0,0.09,0.727,0.516,-0.462
1315,0.002,-0.003,-0.011,-0.074,1.002,0.092,0.726,0.517,-0.442
1316,0.002,-0.001,-0.011,-0.074,1.003,0.093,0.738,0.492,-0.436
1317,0.002,-0.002,-0.011,-0.073,1.005,0.094,0.739,0.511,-0.432
1318,0.003,-0.002,-0.009,-0.072,1.006,0.094,0.711,0.519,-0.436
1319,0.003,-0.002,-0.01,-0.071,1.004,0.094,0.747,0.532,-0.432
1320,0.003,-0.004,-0.011,-0.071,1.005,0.095,0.747,0.517,-0.448
1321,0.004,-0.006,-0.011,-0.072,1.004,0.095,0.735,0.504,-0.42
1322,0.004,-0.001,-0.012,-0.075,1.004,0.095,0.741,0.529,-0.445
1323,0.002,0.0,-0.013,-0.075,1.005,0.094,0.741,0.529,-0.445
1324,0.002,0.002,-0.014,-0.073,1.002,0.093,0.723,0.525,-0.424
1325,0.002,-0.001,-0.013,-0.072,1.003,0.094,0.723,0.525,-0.424
1326,0.004,-0.002,-0.012,-0.074,1.004,0.093,0.73,0.52,-0.442
1327,0.002,0.0,-0.011,-0.074,1.004,0.093,0.729,0.504,-0.43
1328,0.0,-0.006,-0.011,-0.075,1.005,0.093,0.733,0.492,-0.457
1329,0.004,-0.005,-0.013,-0.075,1.008,0.097,0.733,0.492,-0.457
1330,0.004,0.0,-0.014,-0.076,1.007,0.097,0.73,0.505,-0.459
1331,0.001,-0.004,-0.014,-0.072,1.006,0.093,0.718,0.528,-0.438
1332,0.003,-0.004,-0.013,-0.068,1.007,0.092,0.736,0.531,-0.451
