,Gyroscope X (deg/s),Gyroscope Y (deg/s),Gyroscope Z (deg/s),Accelerometer X (g),Accelerometer Y (g),Accelerometer Z (g),Magnetometer X (G),Magnetometer Y (G),Magnetometer Z (G)
0,0.0,-0.013,-0.014,-0.135,-0.979,0.059,0.427,-0.238,-0.477
1,0.0,-0.013,-0.014,-0.135,-0.979,0.059,0.426,-0.235,-0.478
2,0.0,-0.013,-0.014,-0.135,-0.979,0.059,0.426,-0.235,-0.478
3,0.0,-0.013,-0.014,-0.135,-0.979,0.059,0.426,-0.235,-0.478
4,0.0,-0.013,-0.014,-0.135,-0.979,0.059,0.426,-0.235,-0.478
5,0.0,-0.013,-0.014,-0.135,-0.979,0.059,0.426,-0.235,-0.478
6,0.0,-0.013,-0.014,-0.135,-0.979,0.059,0.426,-0.235,-0.478
7,0.0,-0.013,-0.014,-0.135,-0.979,0.059,0.426,-0.235,-0.478
8,0.0,-0.013,-0.014,-0.135,-0.979,0.059,0.426,-0.235,-0.478
9,0.0,-0.013,-0.014,-0.135,-0.979,0.059,0.426,-0.235,-0.478
10,0.0,-0.013,-0.014,-0.135,-0.979,0.059,0.426,-0.235,-0.478
11,0.0,-0.013,-0.014,-0.135,-0.979,0.059,0.426,-0.235,-0.478
12,0.0,-0.013,-0.014,-0.135,-0.979,0.059,0.426,-0.235,-0.478
13,0.0,-0.013,-0.014,-0.135,-0.979,0.059,0.426,-0.235,-0.478
14,0.0,-0.013,-0.014,-0.135,-0.979,0.059,0.426,-0.235,-0.478
15,0.0,-0.013,-0.014,-0.135,-0.979,0.059,0.426,-0.235,-0.478
16,0.0,-0.013,-0.014,-0.135,-0.979,0.059,0.426,-0.235,-0.478
17,0.0,-0.013,-0.014,-0.135,-0.979,0.059,0.426,-0.235,-0.478
18,0.0,-0.013,-0.014,-0.135,-0.979,0.059,0.426,-0.235,-0.478
19,0.0,-0.013,-0.014,-0.135,-0.979,0.059,0.426,-0.235,-0.478
20,0.0,-0.013,-0.014,-0.135,-0.979,0.059,0.426,-0.235,-0.478
21,0.0,-0.013,-0.014,-0.135,-0.979,0.059,0.426,-0.235,-0.478
22,0.0,-0.013,-0.014,-0.135,-0.979,0.059,0.426,-0.235,-0.478
23,0.0,-0.013,-0.014,-0.135,-0.979,0.059,0.426,-0.235,-0.478
24,0.0,-0.013,-0.014,-0.135,-0.979,0.059,0.426,-0.235,-0.478
25,0.0,-0.013,-0.014,-0.135,-0.979,0.059,0.426,-0.235,-0.478
26,0.0,-0.013,-0.014,-0.135,-0.979,0.059,0.426,-0.235,-0.478
27,0.0,-0.013,-0.014,-0.135,-0.979,0.059,0.426,-0.235,-0.478
28,0.0,-0.013,-0.014,-0.135,-0.979,0.059,0.426,-0.235,-0.478
29,0.0,-0.013,-0.014,-0.135,-0.979,0.059,0.426,-0.235,-0.478
30,0.0,-0.013,-0.014,-0.135,-0.979,0.059,0.426,-0.235,-0.478
31,0.0,-0.013,-0.014,-0.135,-0.979,0.059,0.426,-0.235,-0.478
32,0.0,-0.013,-0.014,-0.135,-0.979,0.059,0.426,-0.235,-0.478
33,0.0,-0.013,-0.014,-0.135,-0.979,0.059,0.426,-0.235,-0.478
34,0.0,-0.013,-0.014,-0.135,-0.979,0.059,0.426,-0.235,-0.478
35,0.0,-0.013,-0.014,-0.135,-0.979,0.059,0.426,-0.235,-0.478
36,0.0,-0.013,-0.014,-0.135,-0.979,0.059,0.426,-0.235,-0.478
37,0.0,-0.013,-0.014,-0.135,-0.979,0.059,0.426,-0.235,-0.478
38,0.0,-0.013,-0.014,-0.135,-0.979,0.059,0.426,-0.235,-0.478
39,0.0,-0.013,-0.014,-0.135,-0.979,0.059,0.426,-0.235,-0.478
40,0.0,-0.013,-0.014,-0.135,-0.979,0.059,0.426,-0.235,-0.478
41,0.0,-0.013,-0.014,-0.135,-0.979,0.059,0.426,-0.235,-0.478
42,0.0,-0.013,-0.014,-0.135,-0.979,0.059,0.426,-0.235,-0.478
43,0.0,-0.013,-0.014,-0.135,-0.979,0.059,0.426,-0.235,-0.478
44,0.0,-0.013,-0.014,-0.135,-0.979,0.059,0.426,-0.235,-0.478
45,0.0,-0.013,-0.014,-0.135,-0.979,0.059,0.426,-0.235,-0.478
46,0.0,-0.013,-0.014,-0.135,-0.979,0.059,0.426,-0.235,-0.478
47,0.0,-0.013,-0.014,-0.135,-0.979,0.059,0.426,-0.235,-0.478
48,0.0,-0.013,-0.014,-0.135,-0.979,0.059,0.426,-0.235,-0.478
49,0.0,-0.013,-0.014,-0.135,-0.979,0.059,0.426,-0.235,-0.478
50,0.0,-0.013,-0.014,-0.135,-0.979,0.059,0.426,-0.235,-0.478
51,0.0,-0.013,-0.014,-0.135,-0.979,0.059,0.426,-0.235,-0.478
52,0.0,-0.013,-0.014,-0.135,-0.979,0.059,0.426,-0.235,-0.478
53,0.0,-0.013,-0.014,-0.135,-0.979,0.059,0.426,-0.235,-0.478
54,0.004,-0.013,-0.011,-0.134,-0.973,0.06,0.426,-0.235,-0.478
55,0.005,-0.014,-0.013,-0.134,-0.973,0.06,0.457,-0.259,-0.469
56,0.007,-0.015,-0.011,-0.13,-0.969,0.063,0.457,-0.259,-0.469
57,0.007,-0.01,-0.011,-0.128,-0.971,0.056,0.429,-0.226,-0.475
58,0.002,-0.011,-0.009,-0.13,-0.975,0.059,0.426,-0.244,-0.492
59,-0.003,-0.006,-0.01,-0.131,-0.975,0.06,0.426,-0.231,-0.493
60,-0.008,-0.003,-0.009,-0.134,-0.978,0.059,0.451,-0.231,-0.483
61,-0.008,-0.009,-0.009,-0.137,-0.978,0.061,0.436,-0.241,-0.495
62,-0.007,-0.009,-0.009,-0.138,-0.972,0.059,0.426,-0.223,-0.465
63,-0.003,-0.011,-0.008,-0.134,-0.974,0.059,0.426,-0.223,-0.465
64,0.0,-0.014,-0.009,-0.134,-0.974,0.064,0.426,-0.232,-0.478
65,0.0,-0.014,-0.01,-0.136,-0.969,0.064,0.43,-0.232,-0.484
66,0.001,-0.017,-0.008,-0.13,-0.969,0.064,0.433,-0.231,-0.484
67,0.002,-0.007,-0.009,-0.128,-0.969,0.061,0.433,-0.231,-0.484
68,0.0,0.002,-0.011,-0.133,-0.97,0.062,0.433,-0.231,-0.484
69,0.0,0.001,-0.012,-0.132,-0.972,0.07,0.447,-0.238,-0.471
70,-0.002,0.0,-0.012,-0.129,-0.972,0.073,0.429,-0.24,-0.462
71,-0.002,-0.002,-0.008,-0.127,-0.973,0.071,0.439,-0.237,-0.487
72,-0.002,0.004,-0.008,-0.128,-0.973,0.067,0.429,-0.24,-0.49
73,-0.005,0.007,-0.009,-0.13,-0.973,0.066,0.432,-0.235,-0.489
74,-0.008,0.007,-0.011,-0.131,-0.976,0.067,0.436,-0.229,-0.468
75,-0.006,0.011,-0.011,-0.131,-0.976,0.067,0.418,-0.223,-0.493
76,-0.004,0.005,-0.009,-0.129,-0.975,0.064,0.45,-0.231,-0.493
77,-0.004,0.0,-0.007,-0.128,-0.972,0.064,0.435,-0.235,-0.486
78,-0.001,0.0,-0.007,-0.132,-0.972,0.061,0.43,-0.225,-0.486
79,-0.001,0.0,-0.007,-0.131,-0.975,0.061,0.444,-0.252,-0.481
80,0.002,-0.005,-0.007,-0.129,-0.972,0.061,0.433,-0.244,-0.466
81,0.004,-0.002,-0.004,-0.129,-0.97,0.06,0.438,-0.223,-0.501
82,0.003,0.0,-0.004,-0.128,-0.976,0.061,0.438,-0.223,-0.501
83,0.0,-0.004,-0.002,-0.128,-0.981,0.065,0.427,-0.238,-0.487
84,0.0,-0.006,-0.002,-0.127,-0.98,0.07,0.439,-0.24,-0.513
85,0.0,0.0,-0.005,-0.125,-0.976,0.068,0.427,-0.238,-0.486
86,0.001,0.003,-0.007,-0.125,-0.968,0.065,0.439,-0.231,-0.495
87,0.002,0.011,-0.01,-0.125,-0.966,0.063,0.429,-0.244,-0.475
88,0.004,0.011,-0.009,-0.125,-0.971,0.063,0.432,-0.217,-0.484
89,0.004,0.007,-0.007,-0.124,-0.977,0.067,0.447,-0.244,-0.496
90,0.005,0.002,-0.005,-0.126,-0.98,0.07,0.427,-0.228,-0.471
91,0.008,0.003,-0.004,-0.127,-0.979,0.068,0.447,-0.217,-0.478
92,0.009,0.004,-0.005,-0.126,-0.977,0.063,0.45,-0.237,-0.498
93,0.004,0.004,-0.005,-0.122,-0.974,0.063,0.45,-0.237,-0.498
94,0.003,0.005,-0.005,-0.121,-0.972,0.065,0.433,-0.229,-0.499
95,0.003,0.0,-0.005,-0.122,-0.976,0.061,0.423,-0.235,-0.481
96,0.0,0.0,-0.005,-0.124,-0.977,0.06,0.429,-0.232,-0.466
97,0.0,-0.002,-0.004,-0.126,-0.978,0.059,0.439,-0.219,-0.49
98,-0.002,-0.007,-0.004,-0.128,-0.978,0.061,0.442,-0.222,-0.48
99,-0.007,-0.008,-0.006,-0.13,-0.976,0.063,0.426,-0.223,-0.453
100,-0.014,-0.001,-0.009,-0.131,-0.974,0.059,0.427,-0.237,-0.468
101,-0.011,0.0,-0.012,-0.128,-0.973,0.063,0.435,-0.237,-0.49
102,-0.006,0.004,-0.011,-0.123,-0.974,0.066,0.411,-0.229,-0.477
103,-0.002,0.003,-0.009,-0.121,-0.973,0.06,0.409,-0.217,-0.478
104,0.0,0.005,-0.011,-0.125,-0.969,0.062,0.448,-0.24,-0.486
105,0.0,0.006,-0.011,-0.126,-0.97,0.064,0.448,-0.24,-0.486
106,0.0,0.011,-0.011,-0.124,-0.974,0.06,0.436,-0.229,-0.475
107,0.0,0.007,-0.012,-0.129,-0.975,0.061,0.436,-0.229,-0.475
108,-0.002,-0.001,-0.011,-0.132,-0.975,0.067,0.418,-0.234,-0.475
109,-0.001,-0.001,-0.009,-0.126,-0.974,0.065,0.418,-0.234,-0.475
110,-0.001,0.007,-0.012,-0.125,-0.971,0.068,0.414,-0.216,-0.484
111,0.0,0.005,-0.012,-0.125,-0.971,0.068,0.427,-0.232,-0.468
112,0.002,0.0,-0.011,-0.123,-0.973,0.071,0.439,-0.219,-0.487
113,0.004,0.003,-0.011,-0.122,-0.977,0.067,0.451,-0.234,-0.499
114,0.002,0.006,-0.012,-0.124,-0.975,0.066,0.435,-0.232,-0.48
115,0.003,0.002,-0.011,-0.123,-0.973,0.069,0.439,-0.223,-0.484
116,0.004,0.004,-0.011,-0.123,-0.974,0.067,0.453,-0.231,-0.484
117,0.002,0.006,-0.011,-0.123,-0.975,0.068,0.417,-0.226,-0.475
118,0.004,0.0,-0.009,-0.122,-0.978,0.072,0.441,-0.228,-0.49
119,0.004,-0.002,-0.007,-0.121,-0.978,0.071,0.444,-0.226,-0.493
120,0.003,0.0,-0.007,-0.123,-0.977,0.067,0.444,-0.226,-0.493
121,0.004,0.0,-0.007,-0.126,-0.978,0.068,0.442,-0.229,-0.489
122,0.002,0.002,-0.007,-0.125,-0.977,0.071,0.423,-0.243,-0.495
123,0.005,0.0,-0.004,-0.121,-0.977,0.071,0.439,-0.244,-0.477
124,0.004,0.004,-0.004,-0.119,-0.978,0.067,0.42,-0.246,-0.471
125,0.004,0.005,-0.007,-0.121,-0.972,0.064,0.436,-0.229,-0.474
126,0.001,0.007,-0.008,-0.123,-0.971,0.066,0.438,-0.237,-0.495
127,0.005,0.004,-0.01,-0.126,-0.979,0.066,0.415,-0.244,-0.477
128,0.007,0.008,-0.011,-0.126,-0.979,0.066,0.444,-0.216,-0.469
129,0.008,0.008,-0.009,-0.123,-0.976,0.063,0.435,-0.234,-0.483
130,0.008,0.003,-0.005,-0.121,-0.975,0.065,0.414,-0.244,-0.475
131,0.007,0.005,-0.005,-0.119,-0.975,0.067,0.442,-0.252,-0.471
132,0.004,0.011,-0.008,-0.119,-0.976,0.064,0.444,-0.243,-0.48
133,0.004,0.011,-0.009,-0.119,-0.975,0.062,0.412,-0.231,-0.474
134,0.005,0.018,-0.009,-0.118,-0.974,0.06,0.435,-0.226,-0.492
135,0.002,0.016,-0.009,-0.12,-0.974,0.059,0.453,-0.223,-0.471
136,0.001,0.012,-0.007,-0.122,-0.976,0.061,0.453,-0.223,-0.471
137,0.002,0.016,-0.009,-0.12,-0.976,0.062,0.444,-0.226,-0.498
138,0.001,0.021,-0.011,-0.12,-0.975,0.058,0.43,-0.232,-0.487
139,0.002,0.014,-0.009,-0.122,-0.975,0.063,0.438,-0.243,-0.477
140,0.002,0.011,-0.008,-0.119,-0.975,0.065,0.439,-0.223,-0.483
141,0.002,0.021,-0.01,-0.117,-0.974,0.058,0.424,-0.241,-0.49
142,0.002,0.023,-0.011,-0.121,-0.973,0.059,0.421,-0.231,-0.487
143,0.002,0.021,-0.01,-0.125,-0.972,0.062,0.435,-0.237,-0.489
144,0.002,0.022,-0.009,-0.123,-0.978,0.063,0.438,-0.234,-0.475
145,0.002,0.019,-0.009,-0.123,-0.976,0.063,0.445,-0.232,-0.486
146,0.002,0.019,-0.009,-0.123,-0.976,0.063,0.435,-0.232,-0.484
147,0.001,0.021,-0.01,-0.121,-0.976,0.062,0.429,-0.225,-0.478
148,0.003,0.021,-0.009,-0.118,-0.975,0.062,0.439,-0.244,-0.48
149,0.006,0.026,-0.009,-0.117,-0.975,0.06,0.433,-0.235,-0.495
150,0.004,0.026,-0.011,-0.118,-0.975,0.061,0.436,-0.225,-0.502
151,0.002,0.023,-0.011,-0.121,-0.972,0.064,0.444,-0.229,-0.475
152,0.001,0.025,-0.009,-0.119,-0.973,0.064,0.444,-0.229,-0.475
153,0.0,0.028,-0.009,-0.115,-0.979,0.061,0.459,-0.237,-0.501
154,0.002,0.026,-0.009,-0.112,-0.98,0.058,0.426,-0.238,-0.477
155,0.001,0.025,-0.01,-0.113,-0.976,0.058,0.429,-0.22,-0.495
156,-0.001,0.023,-0.011,-0.118,-0.975,0.057,0.444,-0.241,-0.471
157,-0.001,0.023,-0.011,-0.12,-0.978,0.056,0.424,-0.237,-0.477
158,-0.001,0.016,-0.011,-0.121,-0.977,0.054,0.447,-0.232,-0.48
159,-0.002,0.016,-0.013,-0.124,-0.976,0.053,0.439,-0.222,-0.489
160,-0.002,0.012,-0.015,-0.127,-0.976,0.058,0.438,-0.22,-0.483
161,0.0,0.007,-0.016,-0.127,-0.975,0.061,0.442,-0.24,-0.496
162,-0.001,0.004,-0.016,-0.125,-0.979,0.058,0.447,-0.231,-0.489
163,-0.001,0.002,-0.015,-0.125,-0.979,0.058,0.432,-0.244,-0.477
164,-0.004,0.0,-0.016,-0.127,-0.976,0.063,0.43,-0.241,-0.474
165,-0.004,-0.002,-0.016,-0.129,-0.976,0.063,0.438,-0.232,-0.48
166,-0.004,0.004,-0.018,-0.129,-0.979,0.061,0.438,-0.232,-0.48
167,-0.004,0.005,-0.016,-0.126,-0.98,0.063,0.439,-0.238,-0.492
168,-0.002,0.003,-0.014,-0.12,-0.977,0.066,0.43,-0.243,-0.474
169,-0.004,0.009,-0.014,-0.118,-0.972,0.064,0.423,-0.246,-0.493
170,-0.007,0.019,-0.015,-0.123,-0.972,0.068,0.43,-0.238,-0.487
171,-0.001,0.015,-0.013,-0.121,-0.974,0.073,0.432,-0.231,-0.492
172,0.0,0.017,-0.011,-0.118,-0.972,0.067,0.436,-0.228,-0.481
173,0.0,0.017,-0.01,-0.121,-0.969,0.066,0.442,-0.232,-0.48
174,0.0,0.013,-0.011,-0.125,-0.972,0.072,0.439,-0.235,-0.483
175,0.001,0.011,-0.014,-0.129,-0.977,0.071,0.424,-0.247,-0.483
176,0.002,0.008,-0.016,-0.132,-0.975,0.068,0.444,-0.231,-0.499
177,0.003,0.007,-0.014,-0.132,-0.971,0.064,0.448,-0.223,-0.489
178,0.009,0.002,-0.013,-0.131,-0.971,0.063,0.435,-0.237,-0.496
179,0.011,0.0,-0.012,-0.13,-0.97,0.065,0.439,-0.241,-0.501
180,0.007,-0.002,-0.011,-0.129,-0.976,0.065,0.436,-0.252,-0.477
181,0.008,-0.011,-0.011,-0.129,-0.976,0.065,0.426,-0.222,-0.487
182,0.006,-0.007,-0.011,-0.127,-0.977,0.063,0.439,-0.256,-0.469
183,0.002,-0.002,-0.011,-0.126,-0.973,0.06,0.439,-0.256,-0.469
184,0.003,0.0,-0.012,-0.126,-0.974,0.062,0.441,-0.222,-0.474
185,0.007,-0.003,-0.01,-0.128,-0.975,0.064,0.441,-0.229,-0.489
186,0.008,-0.002,-0.007,-0.129,-0.973,0.065,0.421,-0.223,-0.459
187,0.009,-0.005,-0.004,-0.128,-0.974,0.065,0.433,-0.234,-0.472
188,0.006,0.002,-0.007,-0.126,-0.974,0.069,0.433,-0.229,-0.468
189,0.002,0.01,-0.009,-0.127,-0.975,0.067,0.424,-0.226,-0.471
190,0.0,0.007,-0.005,-0.124,-0.974,0.067,0.414,-0.241,-0.471
191,0.006,0.005,-0.003,-0.122,-0.974,0.068,0.424,-0.219,-0.474
192,0.007,0.014,-0.007,-0.126,-0.976,0.068,0.432,-0.232,-0.477
193,0.005,0.016,-0.007,-0.124,-0.975,0.065,0.429,-0.219,-0.496
194,0.003,0.013,-0.005,-0.117,-0.972,0.066,0.447,-0.25,-0.484
195,0.005,0.016,-0.004,-0.119,-0.974,0.067,0.417,-0.228,-0.474
196,0.009,0.014,-0.006,-0.124,-0.977,0.068,0.432,-0.222,-0.483
197,0.01,0.014,-0.007,-0.122,-0.975,0.067,0.441,-0.223,-0.481
198,0.008,0.024,-0.009,-0.122,-0.975,0.067,0.43,-0.232,-0.487
199,0.009,0.025,-0.008,-0.121,-0.971,0.059,0.43,-0.232,-0.487
200,0.01,0.03,-0.007,-0.117,-0.969,0.059,0.46,-0.226,-0.498
201,0.011,0.029,-0.004,-0.117,-0.972,0.063,0.436,-0.243,-0.484
202,0.011,0.026,-0.003,-0.121,-0.975,0.065,0.435,-0.235,-0.495
203,0.013,0.028,-0.004,-0.122,-0.973,0.062,0.432,-0.232,-0.499
204,0.011,0.035,-0.004,-0.122,-0.971,0.056,0.436,-0.234,-0.478
205,0.012,0.042,-0.004,-0.124,-0.971,0.053,0.427,-0.22,-0.466
206,0.016,0.037,-0.003,-0.125,-0.975,0.057,0.427,-0.22,-0.466
207,0.02,0.036,-0.003,-0.126,-0.975,0.059,0.456,-0.232,-0.495
208,0.018,0.037,-0.003,-0.127,-0.971,0.057,0.448,-0.232,-0.478
209,0.018,0.039,-0.001,-0.124,-0.966,0.057,0.441,-0.231,-0.468
210,0.011,0.057,-0.002,-0.124,-0.967,0.058,0.423,-0.243,-0.487
211,0.007,0.067,0.0,-0.124,-0.968,0.058,0.447,-0.223,-0.48
212,0.002,0.072,0.004,-0.12,-0.96,0.062,0.436,-0.234,-0.474
213,-0.004,0.074,0.009,-0.121,-0.96,0.07,0.459,-0.235,-0.496
214,-0.004,0.06,0.014,-0.124,-0.969,0.082,0.448,-0.22,-0.51
215,0.004,0.053,0.017,-0.139,-0.983,0.086,0.438,-0.231,-0.493
216,0.02,0.028,0.019,-0.139,-0.983,0.086,0.441,-0.223,-0.487
217,0.037,0.004,0.023,-0.144,-0.981,0.087,0.423,-0.229,-0.472
218,0.049,-0.007,0.026,-0.143,-0.969,0.071,0.423,-0.229,-0.472
219,0.056,-0.005,0.026,-0.151,-0.958,0.054,0.444,-0.228,-0.487
220,0.059,-0.022,0.027,-0.154,-0.956,0.052,0.45,-0.226,-0.484
221,0.063,-0.03,0.028,-0.15,-0.957,0.052,0.426,-0.22,-0.475
222,0.059,-0.042,0.03,-0.149,-0.952,0.047,0.459,-0.232,-0.477
223,0.061,-0.055,0.036,-0.149,-0.945,0.047,0.429,-0.243,-0.49
224,0.057,-0.06,0.042,-0.144,-0.948,0.047,0.427,-0.241,-0.471
225,0.057,-0.063,0.048,-0.134,-0.961,0.056,0.451,-0.228,-0.478
226,0.063,-0.078,0.051,-0.129,-0.969,0.064,0.429,-0.241,-0.481
227,0.077,-0.117,0.059,-0.136,-0.96,0.055,0.43,-0.225,-0.475
228,0.1,-0.148,0.082,-0.137,-0.959,0.049,0.433,-0.223,-0.483
229,0.135,-0.196,0.102,-0.12,-0.963,0.052,0.433,-0.225,-0.478
230,0.145,-0.211,0.097,-0.104,-0.964,0.048,0.429,-0.232,-0.477
231,0.135,-0.218,0.079,-0.1,-0.962,0.043,0.436,-0.237,-0.463
232,0.116,-0.261,0.065,-0.087,-0.959,0.048,0.436,-0.237,-0.463
233,0.118,-0.315,0.067,-0.029,-1.011,0.069,0.426,-0.225,-0.471
234,0.13,-0.338,0.083,-0.029,-1.011,0.069,0.414,-0.24,-0.444
235,0.14,-0.333,0.094,0.024,-1.023,0.082,0.415,-0.228,-0.447
236,0.13,-0.276,0.081,0.057,-1.007,0.09,0.415,-0.25,-0.429
237,0.126,-0.231,0.068,0.081,-0.99,0.069,0.418,-0.241,-0.439
238,0.131,-0.189,0.066,0.084,-0.998,0.053,0.409,-0.234,-0.433
239,0.153,-0.185,0.068,0.053,-1.016,0.068,0.402,-0.253,-0.45
240,0.138,-0.17,0.042,0.022,-1.03,0.071,0.405,-0.238,-0.435
241,0.112,-0.144,0.018,0.021,-1.025,0.054,0.39,-0.235,-0.469
242,0.095,-0.113,0.012,0.04,-1.005,0.03,0.396,-0.243,-0.442
243,0.079,-0.111,0.014,0.044,-0.999,0.027,0.399,-0.24,-0.414
244,0.053,-0.064,-0.001,0.018,-1.006,0.029,0.394,-0.228,-0.429
245,0.03,-0.053,-0.024,-0.027,-1.007,0.034,0.39,-0.244,-0.399
246,0.039,-0.109,-0.03,-0.043,-0.998,0.06,0.384,-0.253,-0.432
247,0.06,-0.151,-0.037,-0.012,-0.982,0.061,0.384,-0.235,-0.411
248,0.109,-0.128,-0.051,0.018,-0.963,0.03,0.384,-0.235,-0.411
249,0.149,-0.07,-0.082,0.015,-0.946,0.01,0.409,-0.247,-0.424
250,0.197,-0.073,-0.103,0.035,-0.94,0.03,0.403,-0.253,-0.405
251,0.226,-0.085,-0.117,0.035,-0.94,0.03,0.402,-0.232,-0.412
252,0.236,-0.07,-0.133,0.039,-0.941,0.015,0.4,-0.244,-0.417
253,0.231,-0.048,-0.146,0.03,-0.946,0.019,0.39,-0.243,-0.4
254,0.244,-0.051,-0.157,0.022,-0.945,0.036,0.391,-0.267,-0.411
255,0.251,-0.099,-0.148,0.025,-0.959,0.061,0.402,-0.243,-0.4
256,0.236,-0.129,-0.141,0.031,-0.968,0.063,0.42,-0.25,-0.394
257,0.231,-0.114,-0.16,0.033,-0.95,0.035,0.408,-0.247,-0.406
258,0.247,-0.081,-0.168,0.036,-0.951,0.022,0.399,-0.252,-0.402
259,0.256,-0.089,-0.194,0.02,-0.986,0.05,0.411,-0.259,-0.388
260,0.263,-0.124,-0.209,0.018,-1.037,0.103,0.415,-0.25,-0.369
261,0.274,-0.113,-0.229,0.051,-1.027,0.093,0.412,-0.258,-0.373
262,0.275,-0.1,-0.24,0.079,-0.995,0.077,0.427,-0.267,-0.388
263,0.223,-0.079,-0.247,0.103,-1.043,0.117,0.436,-0.27,-0.369
264,0.108,-0.068,-0.266,0.109,-1.123,0.176,0.421,-0.268,-0.364
265,-0.06,-0.051,-0.269,0.1,-1.166,0.246,0.438,-0.27,-0.342
266,-0.268,0.06,-0.215,0.109,-1.176,0.201,0.438,-0.27,-0.342
267,-0.512,0.294,-0.127,0.131,-1.208,0.074,0.447,-0.258,-0.334
268,-0.815,0.486,-0.056,0.075,-1.2,-0.093,0.438,-0.279,-0.366
269,-1.092,0.501,0.022,-0.129,-1.139,-0.063,0.448,-0.27,-0.378
270,-1.288,0.394,0.13,-0.129,-1.139,-0.063,0.432,-0.283,-0.381
271,-1.369,0.259,0.198,-0.273,-1.093,-0.046,0.432,-0.283,-0.381
272,-1.343,-0.023,0.22,-0.347,-1.11,0.009,0.457,-0.264,-0.453
273,-1.309,-0.308,0.157,-0.373,-1.15,0.071,0.439,-0.238,-0.444
274,-1.331,-0.375,0.077,-0.376,-1.124,-0.01,0.445,-0.246,-0.477
275,-1.279,-0.108,0.021,-0.334,-1.049,-0.07,0.453,-0.226,-0.508
276,-1.172,0.289,0.045,-0.233,-0.98,-0.056,0.439,-0.222,-0.499
277,-1.147,0.436,0.123,-0.109,-1.011,-0.033,0.475,-0.21,-0.535
278,-1.143,0.606,0.226,-0.03,-1.11,0.086,0.426,-0.186,-0.541
279,-1.068,0.76,0.295,-0.054,-1.102,0.127,0.453,-0.184,-0.567
280,-0.959,0.802,0.334,-0.141,-0.99,0.152,0.457,-0.175,-0.592
281,-0.894,0.839,0.325,-0.25,-0.912,0.223,0.451,-0.154,-0.597
282,-0.835,0.891,0.27,-0.303,-0.865,0.204,0.451,-0.154,-0.597
283,-0.753,0.888,0.201,-0.309,-0.784,0.189,0.48,-0.144,-0.601
284,-0.584,0.771,0.134,-0.285,-0.728,0.213,0.484,-0.139,-0.625
285,-0.261,0.542,0.123,-0.207,-0.646,0.293,0.507,-0.147,-0.631
286,-0.03,0.441,0.177,-0.211,-0.59,0.304,0.484,-0.126,-0.633
287,0.177,0.362,0.128,-0.211,-0.59,0.304,0.505,-0.126,-0.645
288,0.31,0.275,0.095,-0.188,-0.558,0.342,0.505,-0.126,-0.645
289,0.445,0.226,0.098,-0.121,-0.556,0.395,0.537,-0.135,-0.628
290,0.496,0.235,0.085,-0.09,-0.571,0.417,0.534,-0.133,-0.64
291,0.505,0.254,0.079,-0.041,-0.625,0.43,0.529,-0.133,-0.634
292,0.545,0.251,0.115,-0.035,-0.649,0.47,0.511,-0.15,-0.634
293,0.562,0.242,0.199,-0.066,-0.68,0.534,0.519,-0.15,-0.639
294,0.469,0.271,0.248,-0.079,-0.754,0.603,0.525,-0.169,-0.634
295,0.274,0.158,0.23,-0.091,-0.884,0.676,0.517,-0.162,-0.609
296,0.119,-0.082,0.29,-0.131,-1.101,0.705,0.52,-0.18,-0.63
297,0.069,0.176,0.31,-0.193,-1.301,0.613,0.519,-0.16,-0.636
298,-0.217,0.683,0.121,-0.194,-1.171,0.632,0.517,-0.171,-0.615
299,-0.128,0.753,-0.053,-0.177,-0.597,0.777,0.534,-0.151,-0.616
300,-0.011,0.355,0.048,-0.191,-0.242,0.66,0.538,-0.168,-0.637
301,0.417,-0.564,0.163,-0.28,-0.726,0.301,0.562,-0.163,-0.621
302,-0.114,-0.223,0.123,-0.551,-1.585,-0.028,0.562,-0.163,-0.621
303,-0.289,-0.246,0.105,-0.212,-0.973,0.261,0.54,-0.184,-0.625
304,-0.039,-0.373,-0.202,-0.212,-0.973,0.261,0.546,-0.174,-0.637
305,-0.392,-0.238,-0.243,-0.357,-0.158,-0.026,0.531,-0.172,-0.66
306,0.548,-1.137,0.056,-0.095,-0.528,0.225,0.519,-0.171,-0.643
307,0.951,-1.006,0.086,0.112,-0.885,-0.212,0.534,-0.18,-0.654
308,0.522,-0.245,0.185,0.15,-1.329,-0.387,0.538,-0.184,-0.637
309,0.41,-0.487,0.203,0.111,-1.445,0.116,0.514,-0.201,-0.631
310,0.518,-0.8,0.088,-0.13,-0.997,0.37,0.51,-0.201,-0.628
311,0.645,-0.94,0.046,-0.311,-0.698,0.235,0.504,-0.199,-0.616
312,0.781,-1.073,0.137,-0.196,-0.76,0.078,0.487,-0.21,-0.618
313,0.924,-1.068,0.23,-0.009,-0.917,0.035,0.492,-0.214,-0.594
314,0.967,-0.896,0.198,0.1,-0.966,-0.026,0.471,-0.228,-0.595
315,0.868,-0.529,0.057,0.148,-0.917,-0.073,0.46,-0.237,-0.543
316,0.678,-0.268,-0.023,0.098,-0.882,-0.017,0.438,-0.244,-0.541
317,0.62,-0.122,-0.116,0.058,-0.874,0.024,0.438,-0.265,-0.52
318,0.544,-0.093,-0.209,0.034,-0.852,-0.001,0.448,-0.268,-0.525
319,0.499,-0.191,-0.248,-0.014,-0.87,0.036,0.448,-0.268,-0.525
320,0.559,-0.153,-0.252,0.005,-0.906,0.008,0.444,-0.261,-0.501
321,0.565,-0.039,-0.275,0.005,-0.899,0.019,0.45,-0.286,-0.505
322,0.574,-0.06,-0.273,0.005,-0.921,0.019,0.459,-0.298,-0.495
323,0.576,-0.15,-0.261,-0.002,-0.921,0.093,0.451,-0.292,-0.48
324,0.536,-0.199,-0.301,-0.012,-0.93,0.108,0.475,-0.28,-0.481
325,0.485,-0.263,-0.347,-0.023,-0.939,0.103,0.478,-0.306,-0.462
326,0.439,-0.326,-0.353,0.011,-0.978,0.121,0.492,-0.295,-0.457
327,0.427,-0.347,-0.28,0.094,-1.027,0.092,0.484,-0.297,-0.447
328,0.38,-0.254,-0.205,0.112,-1.069,0.066,0.468,-0.324,-0.451
329,0.291,-0.032,-0.173,0.127,-1.104,0.06,0.478,-0.318,-0.423
330,0.272,0.203,-0.187,0.202,-1.079,0.035,0.502,-0.319,-0.426
331,0.222,0.177,-0.185,0.188,-1.07,0.092,0.487,-0.315,-0.43
332,0.027,-0.019,-0.117,0.092,-1.175,0.242,0.51,-0.327,-0.414
333,-0.168,-0.092,0.0,0.087,-1.292,0.228,0.507,-0.325,-0.412
334,-0.448,0.016,0.031,0.195,-1.317,0.085,0.493,-0.327,-0.414
335,-0.862,0.257,-0.004,0.205,-1.31,-0.025,0.52,-0.307,-0.438
336,-1.21,0.296,0.026,0.0,-1.318,-0.127,0.52,-0.307,-0.438
337,-1.363,0.429,0.078,-0.285,-1.214,-0.146,0.504,-0.313,-0.441
338,-1.429,0.345,0.158,-0.387,-1.119,0.024,0.523,-0.304,-0.45
339,-1.505,-0.134,0.21,-0.305,-1.204,0.11,0.516,-0.283,-0.487
340,-1.418,-0.378,0.168,-0.305,-1.204,0.11,0.522,-0.261,-0.502
341,-1.343,-0.272,0.065,-0.256,-1.216,0.001,0.501,-0.255,-0.526
342,-1.139,0.086,0.034,-0.269,-1.108,-0.089,0.525,-0.246,-0.531
343,-1.159,0.411,0.067,-0.146,-1.026,-0.122,0.498,-0.246,-0.564
344,-1.284,0.499,0.137,0.013,-1.074,-0.009,0.517,-0.235,-0.549
345,-1.306,0.695,0.14,-0.012,-1.076,0.146,0.513,-0.223,-0.567
346,-1.211,0.832,0.1,-0.12,-0.972,0.168,0.526,-0.196,-0.583
347,-1.033,0.689,0.11,-0.186,-0.826,0.181,0.529,-0.184,-0.601
348,-0.908,0.816,0.194,-0.18,-0.77,0.19,0.544,-0.171,-0.612
349,-0.852,1.041,0.161,-0.172,-0.793,0.129,0.534,-0.156,-0.631
350,-0.638,0.955,0.047,-0.216,-0.702,0.119,0.552,-0.168,-0.63
351,-0.162,0.656,-0.053,-0.271,-0.531,0.177,0.547,-0.153,-0.625
352,0.317,0.373,-0.047,-0.273,-0.454,0.196,0.564,-0.135,-0.627
353,0.499,0.242,-0.001,-0.221,-0.486,0.238,0.564,-0.135,-0.627
354,0.487,0.219,0.022,-0.165,-0.541,0.35,0.574,-0.127,-0.618
355,0.574,0.221,0.044,-0.128,-0.531,0.43,0.576,-0.147,-0.606
356,0.67,0.198,0.109,-0.041,-0.533,0.504,0.565,-0.168,-0.607
357,0.684,0.217,0.161,-0.041,-0.533,0.504,0.588,-0.159,-0.583
358,0.651,0.254,0.265,-0.008,-0.663,0.582,0.573,-0.166,-0.597
359,0.519,0.318,0.368,-0.011,-0.826,0.701,0.58,-0.165,-0.57
360,0.165,0.178,0.406,-0.052,-1.018,0.843,0.565,-0.189,-0.571
361,0.135,-0.156,0.459,-0.132,-1.308,0.948,0.573,-0.177,-0.583
362,-0.103,0.435,0.277,-0.264,-1.478,0.785,0.564,-0.171,-0.573
363,-0.447,0.982,-0.002,-0.324,-1.131,0.732,0.553,-0.189,-0.568
364,-0.24,0.352,-0.051,-0.386,-0.746,0.767,0.579,-0.171,-0.571
365,0.051,-0.459,-0.085,-0.464,-1.195,0.351,0.562,-0.172,-0.57
366,-0.217,-0.296,-0.061,-0.476,-1.718,0.023,0.562,-0.16,-0.55
367,0.079,-0.536,-0.186,-0.356,-1.14,0.145,0.58,-0.163,-0.565
368,-0.32,-0.385,-0.237,-0.289,-0.439,0.092,0.559,-0.172,-0.561
369,0.44,-0.91,0.063,-0.188,-0.602,0.113,0.558,-0.151,-0.58
370,1.054,-1.267,0.13,0.022,-0.875,0.026,0.558,-0.151,-0.58
371,0.557,-0.584,0.207,0.122,-1.234,-0.246,0.543,-0.157,-0.561
372,0.376,-0.555,0.23,0.119,-1.419,-0.005,0.505,-0.189,-0.538
373,0.503,-0.854,0.089,-0.285,-0.635,0.287,0.505,-0.189,-0.538
374,0.564,-0.958,-0.059,-0.19,-0.75,0.125,0.517,-0.166,-0.547
375,0.624,-1.012,-0.013,-0.19,-0.75,0.125,0.495,-0.193,-0.538
376,0.909,-1.135,0.192,0.016,-0.94,0.046,0.502,-0.19,-0.522
377,0.998,-0.984,0.238,0.176,-0.883,-0.086,0.478,-0.214,-0.49
378,0.879,-0.616,0.148,0.203,-0.806,-0.125,0.462,-0.208,-0.483
379,0.786,-0.291,0.056,0.125,-0.854,0.021,0.468,-0.231,-0.462
380,0.667,-0.238,-0.062,0.031,-0.906,0.107,0.451,-0.223,-0.465
381,0.563,-0.227,-0.171,-0.013,-0.873,0.099,0.453,-0.214,-0.436
382,0.513,-0.228,-0.232,0.01,-0.862,0.07,0.459,-0.22,-0.445
383,0.544,-0.206,-0.259,0.039,-0.889,0.057,0.46,-0.235,-0.403
384,0.577,-0.099,-0.289,0.067,-0.869,0.025,0.442,-0.237,-0.417
385,0.612,-0.019,-0.328,0.057,-0.87,0.0,0.478,-0.243,-0.408
386,0.679,-0.056,-0.37,0.028,-0.902,0.065,0.478,-0.243,-0.408
387,0.674,-0.149,-0.407,0.01,-0.909,0.141,0.448,-0.247,-0.411
388,0.607,-0.235,-0.42,0.002,-0.921,0.204,0.454,-0.232,-0.37
389,0.539,-0.262,-0.382,0.055,-0.956,0.197,0.48,-0.256,-0.39
390,0.453,-0.282,-0.279,0.122,-0.989,0.118,0.468,-0.243,-0.373
391,0.313,-0.253,-0.2,0.133,-1.048,0.133,0.468,-0.258,-0.348
392,0.301,-0.121,-0.193,0.139,-1.08,0.128,0.483,-0.258,-0.36
393,0.236,-0.043,-0.183,0.139,-1.08,0.128,0.483,-0.243,-0.349
394,0.008,-0.134,-0.22,0.046,-1.184,0.264,0.484,-0.261,-0.34
395,-0.231,-0.08,-0.086,0.053,-1.275,0.234,0.472,-0.255,-0.327
396,-0.603,0.254,0.02,0.228,-1.334,0.012,0.484,-0.253,-0.349
397,-1.073,0.541,0.049,0.373,-1.384,-0.14,0.481,-0.256,-0.373
398,-1.456,0.616,0.044,0.205,-1.373,-0.244,0.474,-0.256,-0.366
399,-1.568,0.688,0.084,-0.281,-1.23,-0.247,0.493,-0.252,-0.417
400,-1.542,0.317,0.217,-0.549,-1.148,-0.094,0.468,-0.264,-0.432
401,-1.466,-0.333,0.308,-0.519,-1.285,0.109,0.468,-0.264,-0.432
402,-1.45,-0.653,0.242,-0.444,-1.368,0.133,0.457,-0.265,-0.45
403,-1.414,-0.639,0.102,-0.37,-1.267,0.048,0.457,-0.234,-0.462
404,-1.137,-0.092,0.058,-0.254,-1.047,-0.033,0.436,-0.229,-0.48
405,-1.309,0.49,0.186,0.03,-1.026,-0.148,0.45,-0.217,-0.499
406,-1.335,0.829,0.214,0.16,-1.147,-0.039,0.448,-0.189,-0.505
407,-1.229,1.249,0.167,0.013,-1.005,0.088,0.441,-0.217,-0.543
408,-1.036,1.19,0.156,-0.131,-0.765,0.073,0.442,-0.18,-0.544
409,-0.824,1.036,0.236,-0.228,-0.721,0.265,0.465,-0.181,-0.586
410,-0.685,1.038,0.284,-0.228,-0.721,0.265,0.463,-0.15,-0.597
411,-0.514,0.956,0.229,-0.242,-0.704,0.221,0.474,-0.147,-0.619
412,-0.276,0.759,0.158,-0.285,-0.589,0.215,0.49,-0.132,-0.615
413,0.108,0.535,0.076,-0.281,-0.437,0.198,0.498,-0.138,-0.625
414,0.436,0.268,0.054,-0.24,-0.407,0.2,0.501,-0.142,-0.628
415,0.606,0.114,0.072,-0.203,-0.456,0.258,0.501,-0.142,-0.628
416,0.703,0.115,0.094,-0.157,-0.482,0.353,0.495,-0.139,-0.609
417,0.813,0.149,0.114,-0.095,-0.472,0.43,0.496,-0.165,-0.609
418,0.805,0.193,0.134,-0.009,-0.538,0.49,0.501,-0.148,-0.618
419,0.647,0.179,0.227,0.048,-0.737,0.55,0.495,-0.183,-0.585
420,0.415,0.16,0.35,0.02,-0.948,0.663,0.505,-0.175,-0.579
421,0.102,0.181,0.402,-0.041,-1.131,0.837,0.504,-0.205,-0.585
422,0.097,0.023,0.434,-0.08,-1.238,0.924,0.495,-0.187,-0.565
423,0.146,0.254,0.362,-0.127,-1.237,0.798,0.498,-0.178,-0.591
424,-0.133,0.815,0.074,-0.088,-0.998,0.726,0.499,-0.175,-0.58
425,-0.078,0.924,-0.031,-0.022,-0.433,0.72,0.504,-0.192,-0.592
426,0.098,-0.183,0.236,-0.391,-1.034,0.115,0.499,-0.202,-0.582
427,0.419,-0.874,0.121,-0.391,-1.896,0.115,0.517,-0.205,-0.573
428,-0.483,0.056,0.149,-0.73,-1.896,-0.244,0.499,-0.169,-0.582
429,0.145,-0.392,-0.062,-0.398,-1.439,0.14,0.463,-0.18,-0.574
430,-0.382,-0.405,-0.35,-0.296,-0.483,0.156,0.486,-0.19,-0.577
431,0.047,-0.848,-0.131,-0.41,-0.367,-0.026,0.486,-0.19,-0.577
432,0.98,-1.414,-0.056,-0.108,-0.633,-0.104,0.486,-0.198,-0.598
433,0.779,-0.735,0.064,0.001,-0.982,-0.325,0.478,-0.199,-0.562
434,0.541,-0.665,0.201,0.195,-1.516,-0.007,0.459,-0.204,-0.564
435,0.415,-1.005,0.011,0.101,-1.321,0.397,0.445,-0.199,-0.553
436,0.499,-1.162,-0.167,-0.178,-0.764,0.355,0.444,-0.213,-0.541
437,0.828,-1.174,-0.029,-0.145,-0.608,0.048,0.423,-0.214,-0.538
438,0.901,-0.98,0.14,0.094,-0.829,-0.137,0.432,-0.216,-0.523
439,0.893,-0.84,0.204,0.273,-0.985,-0.155,0.418,-0.231,-0.498
440,0.842,-0.451,0.137,0.173,-0.917,-0.062,0.397,-0.247,-0.477
441,0.728,-0.252,0.038,0.074,-0.882,-0.022,0.384,-0.231,-0.454
442,0.581,-0.328,-0.108,0.055,-0.892,0.06,0.391,-0.241,-0.451
443,0.466,-0.358,-0.212,0.003,-0.874,0.133,0.388,-0.243,-0.447
444,0.469,-0.389,-0.246,0.071,-0.895,0.058,0.391,-0.259,-0.424
445,0.514,-0.273,-0.254,0.071,-0.895,0.058,0.402,-0.274,-0.426
446,0.559,-0.133,-0.291,0.093,-0.861,0.032,0.402,-0.259,-0.435
447,0.61,-0.069,-0.35,0.074,-0.862,0.048,0.402,-0.259,-0.435
448,0.651,-0.086,-0.4,0.044,-0.853,0.107,0.387,-0.262,-0.412
449,0.613,-0.102,-0.433,0.037,-0.859,0.168,0.403,-0.283,-0.403
450,0.559,-0.163,-0.434,0.049,-0.922,0.19,0.411,-0.279,-0.355
451,0.471,-0.235,-0.381,0.098,-0.977,0.166,0.42,-0.274,-0.358
452,0.343,-0.312,-0.325,0.11,-1.02,0.151,0.432,-0.282,-0.366
453,0.235,-0.192,-0.289,0.097,-1.079,0.146,0.399,-0.294,-0.357
454,0.139,-0.053,-0.294,0.076,-1.101,0.162,0.418,-0.294,-0.363
455,-0.062,-0.105,-0.304,0.013,-1.099,0.218,0.423,-0.28,-0.334
456,-0.24,-0.101,-0.172,0.036,-1.177,0.173,0.442,-0.288,-0.331
457,-0.588,0.161,-0.063,0.147,-1.295,-0.023,0.435,-0.295,-0.349
458,-1.042,0.454,0.072,0.292,-1.367,-0.165,0.436,-0.291,-0.361
459,-1.4,0.45,0.172,0.198,-1.416,-0.158,0.433,-0.301,-0.373
460,-1.439,0.432,0.281,-0.195,-1.376,-0.092,0.433,-0.301,-0.373
461,-1.411,0.076,0.361,-0.422,-1.426,0.129,0.423,-0.258,-0.436
462,-1.419,-0.488,0.385,-0.394,-1.453,0.124,0.423,-0.258,-0.436
463,-1.473,-0.568,0.302,-0.394,-1.453,0.124,0.433,-0.247,-0.474
464,-1.232,-0.308,0.186,-0.246,-1.27,-0.006,0.412,-0.249,-0.462
465,-1.19,0.158,0.204,-0.155,-1.044,-0.079,0.394,-0.222,-0.492
466,-1.294,0.73,0.241,0.063,-1.075,-0.077,0.409,-0.222,-0.51
467,-1.302,1.193,0.165,0.186,-1.133,-0.038,0.021,-0.211,-0.526
468,-1.333,1.563,0.08,-0.016,-0.929,-0.017,0.409,-0.178,-0.555
469,-1.21,1.471,0.097,-0.216,-0.737,0.108,0.421,-0.187,-0.588
470,-0.882,1.183,0.217,-0.272,-0.648,0.223,0.453,-0.139,-0.621
471,-0.688,1.049,0.268,-0.257,-0.684,0.234,0.444,-0.144,-0.63
472,-0.506,0.989,0.287,-0.281,-0.718,0.191,0.454,-0.132,-0.639
473,-0.156,0.813,0.199,-0.254,-0.59,0.124,0.489,-0.135,-0.643
474,0.168,0.5,0.135,-0.226,-0.492,0.139,0.489,-0.135,-0.643
475,0.36,0.319,0.096,-0.175,-0.49,0.238,0.456,-0.12,-0.645
476,0.463,0.303,0.079,-0.148,-0.485,0.351,0.478,-0.129,-0.637
477,0.594,0.274,0.053,-0.144,-0.464,0.398,0.483,-0.124,-0.64
478,0.701,0.237,0.049,-0.089,-0.454,0.421,0.477,-0.132,-0.624
479,0.758,0.172,0.113,-0.059,-0.695,0.562,0.478,-0.138,-0.622
480,0.784,0.167,0.239,-0.097,-0.894,0.728,0.487,-0.154,-0.636
481,0.546,0.25,0.368,-0.097,-0.894,0.728,0.49,-0.168,-0.607
482,0.191,0.007,0.445,-0.033,-1.169,0.914,0.477,-0.145,-0.601
483,0.198,-0.203,0.516,-0.015,-1.431,0.901,0.466,-0.163,-0.597
484,-0.128,0.522,0.233,-0.057,-1.415,0.714,0.441,-0.168,-0.609
485,-0.19,1.103,-0.114,-0.076,-0.78,0.718,0.462,-0.163,-0.606
486,0.147,0.42,-0.051,-0.074,-0.142,0.682,0.486,-0.154,-0.594
487,0.245,-0.41,0.064,-0.222,-0.413,0.29,0.499,-0.157,-0.597
488,-0.121,0.204,-0.168,-0.745,-1.404,-0.251,0.499,-0.157,-0.597
489,0.042,-0.149,0.072,-0.462,-1.993,0.208,0.474,-0.162,-0.591
490,0.186,-0.571,-0.14,-0.086,-1.086,0.236,0.472,-0.142,-0.595
491,-0.247,-0.378,-0.208,-0.391,-0.29,-0.16,0.498,-0.159,-0.571
492,0.55,-1.127,0.03,-0.222,-0.521,0.021,0.466,-0.144,-0.595
493,1.09,-1.239,0.08,-0.006,-0.734,-0.249,0.477,-0.139,-0.573
494,0.805,-0.589,0.27,0.117,-1.22,-0.267,0.459,-0.153,-0.559
495,0.506,-0.686,0.223,0.226,-1.481,0.043,0.454,-0.156,-0.553
496,0.419,-1.003,0.028,-0.09,-0.995,0.329,0.43,-0.172,-0.546
497,0.602,-1.276,-0.054,-0.18,-0.703,0.036,0.403,-0.169,-0.523
498,0.8,-1.33,0.042,-0.18,-0.703,0.036,0.415,-0.187,-0.504
499,0.808,-1.201,0.143,0.089,-0.936,-0.112,0.4,-0.195,-0.493
500,0.76,-0.834,0.16,0.23,-1.011,-0.157,0.394,-0.186,-0.472
501,0.687,-0.464,0.094,0.178,-0.942,-0.086,0.382,-0.174,-0.474
502,0.573,-0.346,-0.023,0.127,-0.905,0.013,0.382,-0.174,-0.474
503,0.451,-0.387,-0.126,0.103,-0.924,0.101,0.385,-0.202,-0.466
504,0.422,-0.451,-0.19,0.07,-0.911,0.101,0.39,-0.19,-0.454
505,0.517,-0.366,-0.224,0.043,-0.86,0.087,0.36,-0.223,-0.441
506,0.574,-0.315,-0.288,0.038,-0.835,0.093,0.373,-0.204,-0.427
507,0.606,-0.209,-0.351,0.068,-0.849,0.081,0.388,-0.19,-0.408
508,0.645,-0.102,-0.406,0.076,-0.844,0.043,0.382,-0.205,-0.415
509,0.711,-0.08,-0.455,0.043,-0.817,0.051,0.369,-0.208,-0.402
510,0.694,-0.165,-0.474,0.03,-0.841,0.138,0.387,-0.216,-0.403
511,0.614,-0.271,-0.432,0.074,-0.923,0.202,0.39,-0.225,-0.385
512,0.499,-0.357,-0.329,0.12,-1.016,0.188,0.396,-0.228,-0.366
513,0.342,-0.329,-0.248,0.104,-1.097,0.173,0.414,-0.238,-0.352
514,0.259,-0.182,-0.224,0.099,-1.145,0.156,0.393,-0.235,-0.349
515,0.123,-0.134,-0.265,-0.048,-1.102,0.26,0.393,-0.235,-0.349
516,-0.091,-0.252,-0.333,-0.048,-1.102,0.26,0.409,-0.222,-0.352
517,-0.364,-0.183,-0.143,-0.031,-1.167,0.189,0.414,-0.214,-0.358
518,-0.767,0.131,-0.006,0.133,-1.277,-0.023,0.417,-0.226,-0.336
519,-1.122,0.435,0.155,0.365,-1.394,-0.164,0.393,-0.223,-0.376
520,-1.341,0.588,0.307,0.243,-1.431,-0.225,0.423,-0.202,-0.381
521,-1.346,0.61,0.375,-0.179,-1.393,-0.155,0.409,-0.201,-0.402
522,-1.455,0.242,0.371,-0.396,-1.381,-0.092,0.411,-0.211,-0.403
523,-1.416,-0.408,0.312,-0.401,-1.454,0.001,0.391,-0.18,-0.435
524,-1.408,-0.66,0.257,-0.381,-1.375,0.078,0.406,-0.171,-0.468
525,-1.159,-0.331,0.173,-0.313,-1.159,-0.053,0.387,-0.186,-0.471
526,-1.127,0.129,0.26,-0.262,-1.016,-0.144,0.378,-0.175,-0.465
527,-1.136,0.573,0.4,-0.024,-1.104,-0.136,0.397,-0.159,-0.483
528,-1.237,1.093,0.312,0.153,-1.169,-0.079,0.388,-0.15,-0.498
529,-1.297,1.492,0.189,-0.023,-0.976,-0.022,0.384,-0.13,-0.505
530,-1.183,1.458,0.137,-0.191,-0.778,0.073,0.403,-0.118,-0.543
531,-0.945,1.243,0.184,-0.226,-0.686,0.203,0.417,-0.091,-0.544
532,-0.742,1.145,0.189,-0.236,-0.72,0.23,0.4,-0.088,-0.577
533,-0.503,1.077,0.134,-0.236,-0.72,0.23,0.426,-0.082,-0.586
534,-0.188,0.94,0.088,-0.256,-0.586,0.148,0.426,-0.082,-0.586
535,0.087,0.637,0.069,-0.212,-0.506,0.098,0.424,-0.079,-0.565
536,0.269,0.427,0.084,-0.149,-0.526,0.181,0.439,-0.076,-0.574
537,0.375,0.366,0.09,-0.138,-0.501,0.315,0.447,-0.084,-0.585
538,0.489,0.35,0.073,-0.13,-0.487,0.412,0.456,-0.061,-0.594
539,0.667,0.275,0.077,-0.082,-0.485,0.433,0.469,-0.081,-0.595
540,0.756,0.195,0.101,-0.042,-0.508,0.434,0.448,-0.069,-0.574
541,0.73,0.204,0.176,-0.034,-0.64,0.504,0.454,-0.087,-0.594
542,0.575,0.322,0.282,-0.066,-0.818,0.636,0.457,-0.108,-0.576
543,0.235,0.267,0.321,-0.07,-0.986,0.796,0.466,-0.105,-0.55
544,0.2,-0.174,0.42,-0.026,-1.204,0.906,0.471,-0.106,-0.585
545,0.056,0.21,0.388,-0.056,-1.345,0.71,0.457,-0.093,-0.57
546,-0.373,0.924,0.114,-0.115,-1.196,0.653,0.433,-0.099,-0.574
547,-0.319,0.367,0.007,-0.214,-0.814,0.848,0.46,-0.106,-0.589
548,0.223,-0.495,0.017,-0.288,-1.139,0.421,0.486,-0.102,-0.589
549,-0.295,0.028,-0.062,-0.391,-1.245,0.15,0.486,-0.102,-0.589
550,-0.186,-0.203,-0.203,-0.311,-0.55,0.223,0.492,-0.099,-0.594
551,-0.517,-0.227,-0.224,-0.311,-0.55,0.223,0.475,-0.087,-0.568
552,0.362,-0.899,0.162,-0.257,-0.545,0.037,0.475,-0.087,-0.568
553,1.149,-1.446,0.232,-0.056,-0.776,0.022,0.462,-0.096,-0.601
554,0.677,-0.662,0.292,0.126,-1.218,-0.329,0.477,-0.084,-0.592
555,0.507,-0.513,0.282,0.167,-1.549,-0.063,0.445,-0.081,-0.588
556,0.557,-0.9,0.082,-0.076,-1.088,0.273,0.436,-0.094,-0.567
557,0.611,-0.988,-0.042,-0.303,-0.691,0.245,0.429,-0.103,-0.547
558,0.658,-1.073,-0.023,-0.206,-0.715,0.058,0.417,-0.12,-0.553
559,0.852,-1.131,0.138,0.003,-0.895,-0.034,0.42,-0.12,-0.532
560,0.99,-0.975,0.204,0.148,-0.941,-0.12,0.396,-0.118,-0.529
561,0.992,-0.66,0.16,0.213,-0.884,-0.179,0.39,-0.117,-0.501
562,0.852,-0.265,0.044,0.193,-0.889,-0.127,0.39,-0.126,-0.492
563,0.678,-0.118,-0.107,0.134,-0.923,-0.019,0.39,-0.126,-0.492
564,0.559,-0.137,-0.207,0.047,-0.927,0.053,0.399,-0.127,-0.468
565,0.526,-0.197,-0.244,0.007,-0.906,0.051,0.384,-0.126,-0.484
566,0.548,-0.16,-0.256,0.028,-0.895,0.027,0.384,-0.121,-0.466
567,0.576,-0.114,-0.266,0.046,-0.875,0.033,0.397,-0.154,-0.472
568,0.635,-0.132,-0.268,0.022,-0.874,0.075,0.387,-0.153,-0.459
569,0.655,-0.161,-0.295,0.022,-0.874,0.075,0.394,-0.144,-0.432
570,0.609,-0.217,-0.331,-0.011,-0.885,0.123,0.397,-0.159,-0.429
571,0.537,-0.315,-0.34,-0.012,-0.925,0.159,0.402,-0.187,-0.444
572,0.436,-0.42,-0.311,0.032,-0.965,0.17,0.396,-0.169,-0.426
573,0.326,-0.494,-0.24,0.116,-0.978,0.13,0.405,-0.159,-0.441
574,0.219,-0.437,-0.172,0.207,-0.997,0.071,0.411,-0.172,-0.42
575,0.171,-0.172,-0.17,0.248,-1.007,0.044,0.39,-0.178,-0.418
576,0.112,-0.086,-0.149,0.201,-1.032,0.067,0.424,-0.166,-0.4
577,-0.101,-0.14,-0.078,0.095,-1.149,0.196,0.414,-0.187,-0.412
578,-0.352,-0.105,0.021,0.036,-1.253,0.229,0.43,-0.171,-0.381
579,-0.7,0.093,0.035,0.123,-1.326,0.112,0.412,-0.177,-0.403
580,-1.114,0.198,0.025,0.186,-1.413,-0.058,0.415,-0.169,-0.409
581,-1.397,0.366,0.077,-0.082,-1.375,-0.161,0.43,-0.144,-0.432
582,-1.439,0.359,0.157,-0.388,-1.274,-0.121,0.43,-0.144,-0.432
583,-1.402,-0.117,0.237,-0.413,-1.296,0.018,0.427,-0.159,-0.438
584,-1.412,-0.519,0.17,-0.346,-1.279,0.049,0.423,-0.163,-0.448
585,-1.467,-0.564,-0.006,-0.293,-1.177,-0.007,0.426,-0.133,-0.462
586,-1.425,-0.303,-0.133,-0.293,-1.177,-0.007,0.43,-0.147,-0.475
587,-1.188,0.115,-0.092,-0.097,-1.033,-0.223,0.426,-0.103,-0.493
588,-1.205,0.506,-0.015,0.025,-1.05,-0.207,0.414,-0.099,-0.495
589,-1.217,0.688,0.027,-0.017,-1.06,0.055,0.426,-0.099,-0.516
590,-1.101,0.828,0.018,-0.095,-0.947,0.152,0.412,-0.087,-0.535
591,-0.928,0.703,0.029,-0.15,-0.826,0.175,0.429,-0.085,-0.54
592,-0.765,0.598,0.064,-0.204,-0.7,0.218,0.418,-0.06,-0.562
593,-0.652,0.643,0.049,-0.226,-0.731,0.215,0.448,-0.069,-0.552
594,-0.486,0.701,0.021,-0.235,-0.729,0.172,0.45,-0.072,-0.567
595,-0.133,0.531,-0.048,-0.285,-0.575,0.162,0.442,-0.063,-0.592
596,0.335,0.288,-0.085,-0.276,-0.471,0.176,0.469,-0.046,-0.585
597,0.636,0.194,-0.078,-0.195,-0.477,0.229,0.469,-0.054,-0.573
598,0.715,0.163,-0.023,-0.135,-0.529,0.332,0.48,-0.076,-0.58
599,0.631,0.217,0.019,-0.071,-0.579,0.448,0.48,-0.076,-0.58
600,0.576,0.279,0.088,-0.008,-0.631,0.539,0.472,-0.088,-0.585
601,0.562,0.313,0.186,-0.014,-0.645,0.564,0.487,-0.07,-0.564
602,0.565,0.257,0.308,-0.156,-0.862,0.632,0.466,-0.085,-0.558
603,0.564,0.252,0.429,-0.232,-0.952,0.706,0.466,-0.09,-0.561
604,0.381,0.188,0.42,-0.232,-0.952,0.706,0.474,-0.103,-0.537
605,0.172,-0.157,0.333,-0.197,-1.067,0.809,0.487,-0.103,-0.574
606,0.102,-0.091,0.226,-0.188,-1.218,0.736,0.468,-0.105,-0.55
607,-0.284,0.598,-0.041,-0.237,-1.259,0.611,0.478,-0.106,-0.55
608,-0.326,0.77,-0.243,-0.283,-0.788,0.617,0.492,-0.111,-0.528
609,-0.09,0.08,-0.095,-0.401,-0.429,0.482,0.495,-0.085,-0.558
610,-0.147,-0.173,-0.079,-0.541,-0.98,0.125,0.49,-0.103,-0.567
611,-0.15,-0.431,0.043,-0.563,-1.643,0.115,0.478,-0.087,-0.561
612,0.249,-0.837,-0.014,-0.167,-1.509,0.222,0.48,-0.105,-0.564
613,-0.088,-0.399,-0.221,-0.036,-0.916,-0.049,0.48,-0.105,-0.564
614,0.234,-0.515,-0.177,-0.173,-0.702,-0.09,0.471,-0.097,-0.544
615,0.677,-0.99,-0.011,-0.043,-0.866,-0.012,0.463,-0.103,-0.54
616,0.751,-0.845,0.224,0.031,-1.087,-0.127,0.465,-0.102,-0.517
617,0.602,-0.763,0.302,0.064,-1.195,-0.094,0.454,-0.118,-0.507
618,0.449,-1.05,0.128,-0.051,-1.081,0.168,0.451,-0.114,-0.507
619,0.572,-1.299,0.06,-0.243,-0.85,0.329,0.429,-0.115,-0.508
620,0.739,-1.358,0.094,0.058,-0.901,-0.111,0.412,-0.102,-0.483
621,0.883,-1.338,0.17,0.058,-0.901,-0.111,0.429,-0.129,-0.477
622,0.865,-1.183,0.182,0.144,-0.957,-0.155,0.391,-0.115,-0.444
623,0.767,-0.926,0.094,0.17,-0.901,-0.088,0.394,-0.123,-0.462
624,0.646,-0.539,-0.05,0.13,-0.877,0.009,0.391,-0.145,-0.43
625,0.567,-0.422,-0.142,0.114,-0.886,0.026,0.372,-0.123,-0.421
626,0.506,-0.358,-0.189,0.122,-0.926,0.012,0.381,-0.159,-0.424
627,0.532,-0.312,-0.223,0.073,-0.907,0.062,0.394,-0.135,-0.417
628,0.606,-0.305,-0.223,0.06,-0.874,0.079,0.394,-0.135,-0.417
629,0.56,-0.226,-0.277,0.108,-0.898,0.115,0.379,-0.129,-0.391
630,0.548,-0.145,-0.314,0.082,-0.872,0.103,0.397,-0.144,-0.388
631,0.581,-0.146,-0.335,0.013,-0.861,0.08,0.393,-0.16,-0.381
632,0.574,-0.196,-0.35,-0.017,-0.893,0.12,0.414,-0.16,-0.366
633,0.527,-0.27,-0.347,0.009,-0.922,0.135,0.406,-0.174,-0.363
634,0.473,-0.309,-0.331,0.086,-0.965,0.134,0.403,-0.157,-0.354
635,0.405,-0.317,-0.285,0.129,-1.003,0.131,0.411,-0.157,-0.364
636,0.296,-0.297,-0.247,0.088,-1.048,0.146,0.405,-0.171,-0.337
637,0.214,-0.179,-0.238,0.052,-1.077,0.155,0.403,-0.16,-0.334
638,0.154,-0.059,-0.235,0.101,-1.078,0.189,0.42,-0.169,-0.348
639,0.046,-0.022,-0.193,0.101,-1.078,0.189,0.436,-0.178,-0.333
640,-0.153,-0.067,-0.156,0.087,-1.15,0.231,0.424,-0.174,-0.31
641,-0.427,0.126,-0.075,0.114,-1.219,0.087,0.424,-0.174,-0.31
642,-0.862,0.353,0.003,0.211,-1.337,-0.019,0.426,-0.196,-0.319
643,-1.269,0.513,0.06,0.182,-1.401,-0.064,0.426,-0.186,-0.342
644,-1.411,0.614,0.156,-0.081,-1.339,-0.128,0.42,-0.174,-0.345
645,-1.474,0.553,0.238,-0.277,-1.275,-0.078,0.46,-0.162,-0.354
646,-1.457,0.084,0.276,-0.308,-1.29,0.056,0.444,-0.156,-0.366
647,-1.479,-0.203,0.181,-0.324,-1.309,0.125,0.423,-0.159,-0.396
648,-1.4,-0.104,0.111,-0.28,-1.235,0.01,0.424,-0.144,-0.414
649,-1.233,0.214,0.041,-0.215,-1.053,-0.115,0.423,-0.132,-0.442
650,-1.208,0.444,0.162,-0.162,-0.988,-0.112,0.432,-0.111,-0.46
651,-1.183,0.669,0.308,0.024,-1.098,-0.054,0.427,-0.124,-0.477
652,-1.176,1.006,0.315,0.063,-1.068,0.056,0.429,-0.109,-0.477
653,-1.195,1.183,0.224,-0.101,-0.928,0.109,0.442,-0.096,-0.486
654,-1.017,1.066,0.232,-0.185,-0.808,0.161,0.453,-0.088,-0.517
655,-0.746,0.953,0.27,-0.175,-0.747,0.15,0.441,-0.084,-0.519
656,-0.641,0.999,0.25,-0.175,-0.747,0.15,0.435,-0.069,-0.535
657,-0.382,0.941,0.171,-0.164,-0.727,0.121,0.435,-0.069,-0.535
658,-0.03,0.806,0.104,-0.201,-0.614,0.124,0.46,-0.088,-0.549
659,0.271,0.618,0.065,-0.235,-0.517,0.136,0.468,-0.075,-0.553
660,0.394,0.45,0.046,-0.196,-0.52,0.209,0.477,-0.061,-0.543
661,0.424,0.378,0.053,-0.157,-0.555,0.329,0.486,-0.081,-0.534
662,0.577,0.296,0.045,-0.141,-0.525,0.421,0.486,-0.075,-0.559
663,0.668,0.23,0.027,-0.106,-0.506,0.46,0.483,-0.087,-0.541
664,0.644,0.213,0.077,-0.046,-0.613,0.478,0.504,-0.078,-0.519
665,0.584,0.317,0.165,-0.047,-0.778,0.568,0.49,-0.102,-0.522
666,0.361,0.455,0.217,-0.106,-0.912,0.704,0.498,-0.105,-0.525
667,-0.07,0.251,0.242,-0.089,-1.096,0.846,0.507,-0.082,-0.528
668,-0.014,-0.004,0.382,-0.09,-1.306,0.821,0.495,-0.099,-0.526
669,-0.021,0.412,0.308,-0.142,-1.317,0.57,0.505,-0.078,-0.541
670,-0.165,0.85,0.063,-0.2,-0.966,0.648,0.496,-0.096,-0.546
671,-0.172,0.73,0.03,-0.255,-0.462,0.818,0.502,-0.087,-0.544
672,0.122,-0.265,0.163,-0.304,-0.557,0.547,0.51,-0.067,-0.54
673,-0.102,-0.247,0.111,-0.381,-1.987,0.21,0.51,-0.067,-0.54
674,-0.034,-0.345,0.156,-0.226,-1.156,0.189,0.495,-0.099,-0.538
675,-0.072,-0.378,-0.08,-0.226,-1.156,0.189,0.495,-0.084,-0.532
676,-0.248,-0.322,-0.149,-0.265,-0.413,0.004,0.495,-0.084,-0.532
677,0.623,-1.034,0.004,-0.082,-0.593,0.071,0.483,-0.082,-0.547
678,0.799,-1.015,0.035,0.095,-0.877,-0.275,0.49,-0.096,-0.556
679,0.49,-0.374,0.184,0.138,-1.319,-0.297,0.459,-0.087,-0.519
680,0.471,-0.525,0.256,0.072,-1.408,0.147,0.459,-0.084,-0.532
681,0.556,-0.795,0.14,-0.094,-0.991,0.355,0.456,-0.082,-0.519
682,0.583,-0.88,0.038,-0.206,-0.716,0.234,0.459,-0.087,-0.508
683,0.695,-0.956,0.13,-0.121,-0.789,0.112,0.444,-0.088,-0.495
684,0.804,-0.931,0.221,0.068,-0.95,0.047,0.438,-0.109,-0.498
685,0.821,-0.732,0.207,0.143,-0.988,-0.015,0.43,-0.109,-0.483
686,0.733,-0.37,0.129,0.133,-0.913,-0.06,0.409,-0.118,-0.468
687,0.634,-0.144,0.028,0.11,-0.846,-0.007,0.436,-0.117,-0.478
688,0.584,-0.093,-0.072,0.06,-0.827,0.078,0.412,-0.114,-0.456
689,0.548,-0.078,-0.135,0.037,-0.849,0.066,0.412,-0.114,-0.456
690,0.538,-0.191,-0.147,0.054,-0.946,0.144,0.423,-0.139,-0.439
691,0.56,-0.255,-0.158,0.084,-0.931,0.114,0.411,-0.123,-0.442
692,0.595,-0.212,-0.198,0.084,-0.931,0.114,0.417,-0.144,-0.439
693,0.655,-0.144,-0.27,0.092,-0.874,0.055,0.418,-0.144,-0.426
694,0.667,-0.037,-0.343,0.068,-0.846,0.038,0.417,-0.139,-0.417
695,0.658,-0.072,-0.386,0.005,-0.87,0.091,0.408,-0.142,-0.408
696,0.619,-0.18,-0.383,-0.025,-0.921,0.161,0.424,-0.16,-0.421
697,0.56,-0.271,-0.326,0.019,-0.973,0.152,0.43,-0.157,-0.397
698,0.459,-0.361,-0.231,0.061,-1.012,0.121,0.444,-0.142,-0.391
699,0.319,-0.355,-0.189,0.086,-1.063,0.126,0.417,-0.162,-0.399
700,0.261,-0.198,-0.211,0.162,-1.101,0.118,0.418,-0.166,-0.376
701,0.194,-0.126,-0.221,0.169,-1.093,0.116,0.438,-0.16,-0.364
702,0.052,-0.231,-0.256,0.095,-1.131,0.217,0.441,-0.165,-0.403
703,-0.158,-0.223,-0.187,0.104,-1.168,0.251,0.426,-0.174,-0.375
704,-0.399,0.009,-0.137,0.215,-1.234,0.111,0.436,-0.159,-0.393
705,-0.829,0.333,-0.096,0.267,-1.331,-0.004,0.439,-0.151,-0.372
706,-1.264,0.52,-0.053,0.115,-1.318,-0.114,0.439,-0.151,-0.372
707,-1.418,0.701,0.064,-0.159,-1.271,-0.193,0.435,-0.16,-0.396
708,-1.475,0.54,0.263,-0.252,-1.271,0.013,0.435,-0.16,-0.396
709,-1.473,-0.017,0.338,-0.276,-1.353,0.1,0.45,-0.151,-0.439
710,-1.407,-0.404,0.275,-0.276,-1.353,0.1,0.435,-0.141,-0.456
711,-1.379,-0.331,0.14,-0.347,-1.309,0.055,0.435,-0.141,-0.456
712,-1.316,0.006,0.065,-0.341,-1.163,-0.001,0.448,-0.126,-0.498
713,-1.178,0.27,0.074,-0.226,-1.048,-0.021,0.414,-0.078,-0.495
714,-1.202,0.505,0.13,-0.014,-1.047,0.019,0.439,-0.076,-0.513
715,-1.254,0.893,0.133,0.068,-1.025,0.057,0.439,-0.085,-0.537
716,-1.206,1.11,0.154,-0.014,-0.916,0.083,0.439,-0.07,-0.532
717,-0.954,0.984,0.228,-0.078,-0.799,0.196,0.468,-0.043,-0.582
718,-0.79,1.005,0.319,-0.148,-0.76,0.269,0.456,-0.031,-0.571
719,-0.708,1.094,0.254,-0.194,-0.758,0.212,0.471,-0.022,-0.564
720,-0.497,1.01,0.129,-0.246,-0.659,0.159,0.498,-0.021,-0.574
721,-0.114,0.772,0.056,-0.288,-0.503,0.14,0.492,-0.01,-0.609
722,0.235,0.514,0.032,-0.271,-0.435,0.159,0.492,-0.013,-0.586
723,0.46,0.338,0.044,-0.228,-0.463,0.231,0.486,-0.019,-0.595
724,0.499,0.302,0.063,-0.177,-0.521,0.336,0.498,-0.027,-0.592
725,0.568,0.27,0.082,-0.119,-0.563,0.423,0.499,-0.007,-0.579
726,0.667,0.191,0.125,-0.028,-0.626,0.49,0.499,-0.007,-0.579
727,0.641,0.158,0.162,-0.028,-0.626,0.49,0.526,-0.051,-0.576
728,0.546,0.206,0.215,-0.012,-0.787,0.542,0.51,-0.051,-0.601
729,0.477,0.312,0.275,-0.081,-0.901,0.641,0.526,-0.043,-0.579
730,0.208,0.292,0.287,-0.14,-0.976,0.758,0.526,-0.043,-0.579
731,0.034,0.021,0.372,-0.121,-1.184,0.846,0.511,-0.066,-0.579
732,0.131,0.155,0.366,-0.098,-1.33,0.676,0.528,-0.048,-0.588
733,-0.197,0.697,0.067,-0.111,-1.105,0.597,0.526,-0.058,-0.571
734,-0.195,0.929,-0.146,-0.161,-0.555,0.74,0.526,-0.058,-0.571
735,0.037,0.361,0.007,-0.232,-0.274,0.632,0.537,-0.069,-0.586
736,0.113,-0.307,0.072,-0.344,-0.799,0.233,0.549,-0.057,-0.562
737,-0.299,0.117,0.03,-0.607,-1.633,-0.001,0.556,-0.066,-0.586
738,0.153,-0.219,0.013,-0.341,-1.764,0.298,0.528,-0.066,-0.591
739,-0.203,-0.217,-0.262,-0.198,-0.87,0.171,0.565,-0.051,-0.574
740,-0.049,-0.398,-0.199,-0.309,-0.421,-0.006,0.555,-0.048,-0.604
741,0.716,-0.954,-0.041,-0.018,-0.7,-0.007,0.546,-0.048,-0.6
742,0.822,-0.734,0.105,0.041,-0.929,-0.279,0.546,-0.048,-0.6
743,0.636,-0.352,0.329,0.084,-1.379,0.188,0.522,-0.051,-0.577
744,0.492,-0.623,0.279,-0.176,-0.974,0.428,0.526,-0.042,-0.588
745,0.473,-0.926,0.091,-0.176,-0.974,0.428,0.495,-0.06,-0.579
746,0.611,-1.052,0.023,-0.269,-0.688,0.283,0.51,-0.075,-0.558
747,0.704,-0.963,0.056,-0.132,-0.734,0.039,0.525,-0.06,-0.565
748,0.782,-0.915,0.157,0.021,-0.928,-0.066,0.486,-0.073,-0.571
749,0.735,-0.811,0.176,0.097,-0.987,-0.053,0.477,-0.106,-0.558
750,0.644,-0.551,0.123,0.081,-0.886,0.041,0.475,-0.1,-0.549
751,0.581,-0.344,0.056,0.075,-0.837,0.034,0.471,-0.097,-0.549
752,0.508,-0.299,-0.019,0.073,-0.853,0.029,0.471,-0.111,-0.528
753,0.488,-0.28,-0.059,0.088,-0.879,0.058,0.459,-0.109,-0.519
754,0.5,-0.304,-0.091,0.107,-0.889,0.078,0.459,-0.112,-0.523
755,0.532,-0.252,-0.119,0.092,-0.892,0.091,0.462,-0.118,-0.504
756,0.557,-0.205,-0.16,0.075,-0.905,0.077,0.468,-0.133,-0.51
757,0.616,-0.147,-0.221,0.055,-0.897,0.071,0.475,-0.141,-0.49
758,0.643,-0.103,-0.296,0.024,-0.876,0.072,0.466,-0.13,-0.486
759,0.627,-0.125,-0.342,0.001,-0.899,0.118,0.477,-0.133,-0.468
760,0.581,-0.163,-0.343,0.015,-0.95,0.157,0.487,-0.148,-0.474
761,0.525,-0.21,-0.286,0.101,-1.016,0.122,0.484,-0.159,-0.478
762,0.445,-0.274,-0.189,0.101,-1.016,0.122,0.484,-0.159,-0.478
763,0.317,-0.301,-0.147,0.088,-1.063,0.149,0.481,-0.165,-0.471
764,0.256,-0.225,-0.175,0.091,-1.089,0.157,0.471,-0.175,-0.46
765,0.226,-0.112,-0.177,0.098,-1.076,0.128,0.483,-0.154,-0.441
766,0.097,-0.149,-0.221,0.058,-1.089,0.174,0.486,-0.162,-0.436
767,-0.075,-0.105,-0.177,0.107,-1.164,0.199,0.486,-0.162,-0.442
768,-0.297,0.192,-0.025,0.266,-1.248,0.078,0.483,-0.153,-0.435
769,-0.64,0.491,-0.039,0.323,-1.266,-0.03,0.475,-0.151,-0.444
770,-1.073,0.636,-0.08,0.18,-1.293,-0.131,0.495,-0.166,-0.439
771,-1.39,0.752,-0.086,-0.141,-1.281,-0.214,0.501,-0.162,-0.451
772,-1.434,0.743,0.028,-0.385,-1.16,-0.181,0.499,-0.168,-0.475
773,-1.502,0.319,0.193,-0.385,-1.146,-0.066,0.489,-0.168,-0.492
774,-1.418,-0.273,0.215,-0.353,-1.258,0.082,0.48,-0.132,-0.49
775,-1.363,-0.626,0.112,-0.356,-1.289,0.127,0.508,-0.133,-0.517
776,-1.362,-0.52,0.099,-0.36,-1.195,0.055,0.474,-0.102,-0.54
777,-1.145,0.077,0.053,-0.267,-1.037,-0.083,0.465,-0.097,-0.553
778,-1.152,0.523,0.159,0.098,-1.037,0.022,0.465,-0.097,-0.553
779,-1.204,0.72,0.158,0.02,-1.001,0.203,0.453,-0.096,-0.565
780,-1.238,0.986,0.134,0.02,-1.001,0.203,0.468,-0.088,-0.574
781,-1.031,0.849,0.134,-0.094,-0.881,0.235,0.48,-0.067,-0.574
782,-0.802,0.772,0.189,-0.159,-0.781,0.255,0.492,-0.057,-0.589
783,-0.697,0.863,0.211,-0.185,-0.795,0.208,0.502,-0.051,-0.603
784,-0.606,0.896,0.115,-0.21,-0.776,0.172,0.508,-0.058,-0.622
785,-0.372,0.729,-0.004,-0.282,-0.634,0.221,0.52,-0.042,-0.613
786,-0.006,0.46,-0.076,-0.312,-0.503,0.253,0.523,-0.034,-0.624
787,0.371,0.23,-0.074,-0.289,-0.456,0.254,0.514,-0.034,-0.634
788,0.536,0.124,-0.032,-0.239,-0.486,0.277,0.505,-0.04,-0.616
789,0.538,0.136,0.006,-0.169,-0.581,0.351,0.534,-0.04,-0.621
790,0.623,0.135,0.03,-0.109,-0.623,0.448,0.535,-0.055,-0.622
791,0.707,0.146,0.058,-0.073,-0.626,0.494,0.513,-0.051,-0.621
792,0.655,0.203,0.113,-0.046,-0.732,0.531,0.537,-0.067,-0.603
793,0.552,0.266,0.227,-0.037,-0.891,0.621,0.534,-0.064,-0.606
794,0.404,0.278,0.328,-0.062,-0.965,0.715,0.534,-0.064,-0.606
795,0.172,0.114,0.321,-0.087,-1.0,0.776,0.538,-0.084,-0.592
796,0.072,-0.158,0.314,-0.198,-1.225,0.608,0.523,-0.081,-0.591
797,0.037,0.032,0.171,-0.257,-1.081,0.537,0.525,-0.093,-0.592
798,-0.131,0.567,-0.09,-0.257,-1.081,0.537,0.52,-0.099,-0.601
799,0.004,0.754,-0.247,-0.277,-0.632,0.613,0.501,-0.111,-0.565
800,0.225,0.351,-0.148,-0.288,-0.372,0.533,0.534,-0.082,-0.592
801,0.311,-0.16,0.012,-0.355,-0.716,0.308,0.537,-0.103,-0.589
802,0.639,-0.788,0.024,0.14,-0.806,-0.016,0.499,-0.102,-0.55
803,0.716,-0.346,0.185,0.206,-1.119,-0.225,0.498,-0.1,-0.577
804,0.512,-0.209,0.313,0.106,-1.279,-0.117,0.495,-0.105,-0.552
805,0.43,-0.578,0.261,-0.088,-1.139,0.306,0.496,-0.114,-0.559
806,0.427,-0.826,0.119,-0.284,-0.789,0.419,0.493,-0.096,-0.55
807,0.524,-0.987,0.121,-0.272,-0.701,0.21,0.477,-0.114,-0.51
808,0.644,-1.125,0.224,-0.112,-0.918,0.056,0.468,-0.1,-0.541
809,0.72,-1.037,0.28,0.083,-0.935,-0.035,0.46,-0.129,-0.517
810,0.693,-0.714,0.226,0.083,-0.935,-0.035,0.433,-0.13,-0.517
811,0.561,-0.441,0.1,0.08,-0.832,-0.022,0.433,-0.13,-0.517
812,0.477,-0.322,0.004,0.063,-0.833,0.02,0.447,-0.123,-0.486
813,0.458,-0.267,-0.025,0.07,-0.898,0.055,0.432,-0.147,-0.484
814,0.441,-0.257,-0.06,0.072,-0.942,0.063,0.432,-0.147,-0.484
815,0.434,-0.225,-0.088,0.039,-0.931,0.088,0.432,-0.147,-0.466
816,0.438,-0.188,-0.122,0.047,-0.915,0.098,0.468,-0.132,-0.457
817,0.461,-0.115,-0.175,0.079,-0.903,0.078,0.429,-0.165,-0.438
818,0.494,-0.065,-0.237,0.071,-0.884,0.081,0.435,-0.175,-0.442
819,0.569,-0.065,-0.284,0.04,-0.871,0.078,0.426,-0.16,-0.442
820,0.585,-0.102,-0.329,0.002,-0.884,0.107,0.429,-0.162,-0.445
821,0.574,-0.153,-0.336,-0.013,-0.935,0.156,0.448,-0.154,-0.42
822,0.53,-0.225,-0.312,0.034,-0.96,0.149,0.459,-0.178,-0.417
823,0.462,-0.318,-0.25,0.093,-0.975,0.103,0.474,-0.172,-0.417
824,0.294,-0.325,-0.198,0.069,-1.032,0.104,0.474,-0.172,-0.417
825,0.122,-0.163,-0.191,0.052,-1.1,0.144,0.441,-0.172,-0.406
826,0.053,-0.021,-0.209,-0.01,-1.052,0.19,0.448,-0.192,-0.393
827,-0.04,-0.08,-0.174,0.036,-1.105,0.276,0.453,-0.189,-0.414
828,-0.198,-0.156,-0.117,0.036,-1.105,0.276,0.447,-0.177,-0.411
829,-0.422,0.1,-0.067,0.209,-1.164,0.142,0.456,-0.195,-0.373
830,-0.765,0.519,-0.004,0.318,-1.233,-0.031,0.454,-0.201,-0.403
831,-1.205,0.723,0.013,0.26,-1.311,-0.105,0.454,-0.201,-0.39
832,-1.498,0.777,0.002,-0.095,-1.345,-0.115,0.471,-0.178,-0.408
833,-1.449,0.592,0.074,-0.427,-1.283,-0.071,0.459,-0.183,-0.46
834,-1.463,0.024,0.187,-0.415,-1.257,-0.001,0.466,-0.19,-0.457
835,-1.452,-0.503,0.098,-0.355,-1.277,0.084,0.454,-0.157,-0.486
836,-1.36,-0.482,0.043,-0.326,-1.24,0.107,0.438,-0.145,-0.508
837,-1.179,-0.119,0.036,-0.244,-1.132,0.037,0.447,-0.151,-0.52
838,-1.052,0.307,0.107,-0.079,-1.055,-0.058,0.447,-0.151,-0.52
839,-1.105,0.568,0.14,0.061,-1.084,-0.026,0.444,-0.136,-0.51
840,-1.191,0.76,0.116,0.009,-1.084,0.105,0.447,-0.138,-0.541
841,-1.198,0.853,0.095,-0.128,-0.986,0.146,0.448,-0.13,-0.552
842,-0.973,0.751,0.108,-0.188,-0.83,0.183,0.469,-0.129,-0.559
843,-0.751,0.765,0.144,-0.223,-0.715,0.226,0.469,-0.111,-0.595
844,-0.617,0.861,0.144,-0.277,-0.772,0.162,0.487,-0.114,-0.607
845,-0.474,0.799,0.065,-0.277,-0.772,0.162,0.475,-0.109,-0.618
846,-0.184,0.545,-0.028,-0.302,-0.644,0.169,0.489,-0.096,-0.639
847,0.193,0.32,-0.088,-0.293,-0.523,0.213,0.501,-0.085,-0.639
848,0.492,0.116,-0.063,-0.245,-0.49,0.254,0.499,-0.103,-0.634
849,0.557,0.039,-0.035,-0.194,-0.551,0.318,0.513,-0.094,-0.636
850,0.577,0.024,0.011,-0.13,-0.636,0.39,0.517,-0.103,-0.612
851,0.698,0.031,0.06,-0.076,-0.617,0.416,0.505,-0.13,-0.619
852,0.771,0.049,0.123,-0.051,-0.604,0.433,0.504,-0.132,-0.598
853,0.71,0.121,0.205,-0.041,-0.74,0.486,0.501,-0.132,-0.595
854,0.585,0.126,0.29,-0.053,-0.916,0.577,0.501,-0.132,-0.595
855,0.355,0.006,0.35,-0.076,-1.025,0.685,0.501,-0.132,-0.598
856,0.08,-0.186,0.366,-0.101,-1.103,0.761,0.502,-0.144,-0.577
857,0.002,-0.062,0.361,-0.111,-1.176,0.661,0.528,-0.156,-0.574
858,-0.088,0.369,0.218,-0.145,-1.133,0.499,0.51,-0.148,-0.582
859,-0.07,0.645,-0.002,-0.186,-0.843,0.521,0.492,-0.133,-0.577
860,0.078,0.354,-0.099,-0.197,-0.487,0.5,0.499,-0.157,-0.571
861,0.12,0.037,-0.022,-0.309,-1.061,0.162,0.501,-0.163,-0.594
862,0.005,-0.002,-0.029,-0.372,-1.729,0.281,0.522,-0.163,-0.591
863,-0.242,0.032,0.032,-0.372,-1.729,0.281,0.514,-0.151,-0.579
864,0.072,-0.156,0.078,-0.225,-1.68,0.323,0.493,-0.153,-0.591
865,0.138,-0.137,-0.032,-0.2,-0.947,0.169,0.51,-0.162,-0.568
866,0.049,-0.13,-0.058,-0.203,-0.548,0.144,0.492,-0.16,-0.586
867,0.244,-0.165,-0.014,0.035,-0.684,0.075,0.492,-0.16,-0.586
868,0.38,0.009,-0.036,0.155,-0.861,-0.118,0.507,-0.171,-0.588
869,0.317,0.27,0.018,0.103,-1.02,-0.151,0.51,-0.172,-0.571
870,0.319,0.162,0.166,0.007,-1.179,-0.013,0.511,-0.183,-0.571
871,0.351,-0.149,0.196,-0.097,-1.128,0.206,0.486,-0.187,-0.583
872,0.373,-0.331,0.171,-0.197,-0.928,0.297,0.496,-0.196,-0.583
873,0.372,-0.359,0.158,-0.179,-0.84,0.19,0.504,-0.172,-0.562
874,0.394,-0.302,0.136,-0.076,-0.895,0.061,0.505,-0.187,-0.55
875,0.371,-0.224,0.088,-0.002,-0.968,0.008,0.481,-0.189,-0.558
876,0.326,-0.153,0.03,0.0,-0.961,0.047,0.486,-0.205,-0.543
877,0.319,-0.107,0.017,-0.009,-0.933,0.112,0.493,-0.202,-0.532
878,0.324,-0.093,0.03,0.0,-0.94,0.125,0.493,-0.213,-0.54
879,0.312,-0.059,0.021,0.026,-0.958,0.061,0.478,-0.222,-0.513
880,0.296,-0.003,-0.006,0.026,-0.958,0.061,0.481,-0.202,-0.535
881,0.282,0.03,-0.018,0.04,-0.965,0.096,0.489,-0.223,-0.523
882,0.264,0.029,-0.023,0.035,-0.984,0.148,0.462,-0.213,-0.505
883,0.239,0.004,-0.046,0.01,-0.994,0.174,0.474,-0.222,-0.517
884,0.207,-0.053,-0.062,-0.025,-0.98,0.182,0.477,-0.234,-0.514
885,0.175,-0.147,-0.09,-0.049,-0.963,0.188,0.477,-0.234,-0.514
886,0.173,-0.223,-0.094,-0.051,-0.964,0.208,0.48,-0.223,-0.507
887,0.165,-0.27,-0.103,-0.04,-0.96,0.183,0.478,-0.213,-0.511
888,0.146,-0.269,-0.113,-0.017,-0.969,0.133,0.474,-0.238,-0.468
889,0.117,-0.246,-0.113,0.013,-0.987,0.121,0.483,-0.225,-0.502
890,0.077,-0.167,-0.119,0.042,-1.001,0.103,0.49,-0.249,-0.493
891,0.039,-0.046,-0.137,0.055,-1.005,0.078,0.483,-0.244,-0.492
892,0.032,0.028,-0.154,0.055,-1.0,0.07,0.481,-0.24,-0.499
893,0.053,0.057,-0.154,0.045,-1.011,0.085,0.489,-0.244,-0.477
894,0.079,0.023,-0.13,0.011,-1.013,0.101,0.475,-0.231,-0.471
895,0.044,-0.081,-0.107,-0.033,-0.985,0.101,0.468,-0.225,-0.472
896,-0.037,-0.157,-0.101,-0.079,-0.97,0.088,0.477,-0.255,-0.498
897,-0.112,-0.15,-0.104,-0.151,-0.992,0.073,0.487,-0.244,-0.472
898,-0.24,-0.046,-0.132,-0.151,-0.992,0.073,0.481,-0.247,-0.507
899,-0.389,0.064,-0.155,-0.149,-1.03,0.055,0.477,-0.235,-0.505
900,-0.532,0.152,-0.184,-0.143,-1.059,0.057,0.48,-0.223,-0.474
901,-0.561,0.18,-0.196,-0.142,-1.072,0.089,0.499,-0.231,-0.517
902,-0.643,0.24,-0.248,-0.135,-1.06,0.069,0.499,-0.231,-0.517
903,-0.596,0.294,-0.274,-0.166,-1.039,0.099,0.502,-0.235,-0.528
904,-0.504,0.27,-0.271,-0.228,-1.009,0.187,0.504,-0.234,-0.531
905,-0.391,0.234,-0.252,-0.256,-0.96,0.217,0.499,-0.22,-0.535
906,-0.219,0.112,-0.211,-0.236,-0.905,0.214,0.499,-0.22,-0.535
907,-0.044,0.002,-0.161,-0.205,-0.863,0.179,0.513,-0.219,-0.553
908,0.098,-0.014,-0.113,-0.204,-0.868,0.182,0.514,-0.204,-0.555
909,0.196,-0.038,-0.094,-0.224,-0.886,0.192,0.517,-0.225,-0.546
910,0.296,-0.1,-0.084,-0.247,-0.871,0.186,0.526,-0.231,-0.547
911,0.377,-0.137,-0.064,-0.251,-0.859,0.179,0.526,-0.229,-0.535
912,0.422,-0.148,-0.04,-0.242,-0.851,0.171,0.526,-0.213,-0.529
913,0.394,-0.123,-0.023,-0.236,-0.85,0.173,0.517,-0.246,-0.54
914,0.343,-0.112,0.002,-0.197,-0.9,0.22,0.522,-0.214,-0.513
915,0.322,-0.163,0.037,-0.197,-0.9,0.22,0.51,-0.235,-0.529
916,0.296,-0.172,0.056,-0.181,-0.905,0.232,0.51,-0.235,-0.529
917,0.273,-0.107,0.056,-0.187,-0.963,0.2,0.528,-0.232,-0.516
918,0.308,-0.051,0.063,-0.166,-1.017,0.145,0.529,-0.241,-0.505
919,0.357,-0.174,0.039,-0.149,-1.007,0.161,0.499,-0.247,-0.507
920,0.342,-0.154,-0.011,-0.183,-0.988,0.144,0.514,-0.25,-0.499
921,0.336,0.023,-0.018,-0.21,-0.961,0.058,0.516,-0.246,-0.507
922,0.308,-0.053,0.007,-0.213,-0.959,0.096,0.495,-0.249,-0.489
923,0.293,-0.149,0.029,-0.202,-0.983,0.17,0.495,-0.259,-0.474
924,0.273,-0.083,0.029,-0.194,-0.969,0.122,0.502,-0.267,-0.483
925,0.224,-0.098,0.036,-0.175,-0.938,0.04,0.502,-0.243,-0.49
926,0.186,-0.071,0.042,-0.129,-0.947,0.048,0.504,-0.255,-0.475
927,0.154,-0.007,0.038,-0.123,-0.977,0.051,0.495,-0.256,-0.475
928,0.135,-0.004,0.037,-0.141,-1.0,0.043,0.505,-0.271,-0.462
929,0.119,-0.062,0.041,-0.147,-0.993,0.081,0.505,-0.271,-0.462
930,0.122,-0.116,0.049,-0.16,-0.98,0.097,0.493,-0.271,-0.468
931,0.117,-0.144,0.053,-0.162,-0.983,0.088,0.511,-0.267,-0.456
932,0.111,-0.141,0.056,-0.136,-0.981,0.051,0.504,-0.259,-0.451
933,0.107,-0.124,0.051,-0.133,-0.98,0.043,0.487,-0.267,-0.454
934,0.09,-0.1,0.043,-0.133,-0.98,0.043,0.498,-0.283,-0.447
935,0.072,-0.1,0.039,-0.12,-0.978,0.048,0.493,-0.247,-0.439
936,0.067,-0.09,0.039,-0.111,-0.981,0.049,0.505,-0.267,-0.454
937,0.053,-0.08,0.034,-0.113,-0.988,0.046,0.489,-0.283,-0.448
938,0.046,-0.086,0.03,-0.117,-0.991,0.052,0.501,-0.258,-0.444
939,0.031,-0.067,0.025,-0.113,-0.985,0.048,0.493,-0.276,-0.459
940,0.026,-0.054,0.025,-0.102,-0.981,0.038,0.498,-0.255,-0.45
941,0.028,-0.039,0.024,-0.099,-0.977,0.032,0.487,-0.247,-0.451
942,0.031,-0.039,0.025,-0.1,-0.973,0.033,0.489,-0.238,-0.454
943,0.033,-0.037,0.025,-0.098,-0.978,0.04,0.484,-0.253,-0.442
944,0.032,-0.022,0.022,-0.091,-0.984,0.04,0.486,-0.273,-0.436
945,0.026,-0.005,0.017,-0.082,-0.984,0.032,0.486,-0.273,-0.436
946,0.02,0.011,0.011,-0.08,-0.985,0.029,0.477,-0.27,-0.447
947,0.016,0.014,0.011,-0.089,-0.983,0.031,0.48,-0.276,-0.436
948,0.011,0.014,0.014,-0.093,-0.981,0.031,0.474,-0.265,-0.466
949,0.01,0.015,0.011,-0.089,-0.987,0.021,0.483,-0.25,-0.441
950,0.007,0.03,0.002,-0.093,-0.981,0.018,0.495,-0.268,-0.46
951,0.0,0.039,-0.002,-0.093,-0.981,0.018,0.475,-0.256,-0.441
952,0.001,0.032,-0.003,-0.096,-0.98,0.024,0.489,-0.268,-0.438
953,0.002,0.028,-0.002,-0.097,-0.982,0.023,0.498,-0.276,-0.451
954,0.003,0.025,0.0,-0.096,-0.984,0.021,0.481,-0.25,-0.453
955,0.002,0.021,-0.001,-0.1,-0.982,0.026,0.46,-0.265,-0.453
956,0.001,0.007,-0.004,-0.108,-0.979,0.027,0.468,-0.27,-0.448
957,0.007,0.002,-0.006,-0.109,-0.982,0.028,0.499,-0.252,-0.454
958,0.006,0.007,-0.009,-0.106,-0.984,0.024,0.493,-0.264,-0.432
959,0.0,0.008,-0.01,-0.103,-0.979,0.023,0.492,-0.267,-0.447
960,-0.002,0.013,-0.009,-0.095,-0.98,0.03,0.484,-0.259,-0.436
961,-0.002,0.021,-0.007,-0.091,-0.984,0.034,0.502,-0.273,-0.438
962,-0.005,0.025,-0.009,-0.093,-0.981,0.033,0.502,-0.273,-0.438
963,-0.002,0.024,-0.012,-0.098,-0.978,0.033,0.478,-0.27,-0.447
964,0.001,0.029,-0.017,-0.106,-0.979,0.033,0.478,-0.253,-0.451
965,0.005,0.018,-0.018,-0.114,-0.978,0.033,0.477,-0.25,-0.445
966,0.009,0.004,-0.017,-0.109,-0.978,0.037,0.478,-0.255,-0.447
967,0.003,0.009,-0.018,-0.103,-0.979,0.036,0.493,-0.262,-0.427
968,0.0,0.004,-0.017,-0.106,-0.982,0.04,0.493,-0.255,-0.441
969,0.0,0.004,-0.018,-0.106,-0.982,0.04,0.484,-0.265,-0.448
970,-0.003,0.004,-0.023,-0.107,-0.98,0.036,0.486,-0.261,-0.448
971,0.002,-0.012,-0.018,-0.106,-0.979,0.04,0.477,-0.264,-0.436
972,0.005,-0.021,-0.015,-0.106,-0.977,0.048,0.495,-0.253,-0.442
973,0.007,-0.021,-0.014,-0.108,-0.975,0.048,0.496,-0.258,-0.451
974,0.011,-0.037,-0.007,-0.109,-0.977,0.048,0.471,-0.25,-0.442
975,0.011,-0.043,-0.004,-0.105,-0.975,0.048,0.489,-0.262,-0.444
976,0.007,-0.038,-0.007,-0.105,-0.973,0.04,0.489,-0.262,-0.444
977,0.004,-0.041,-0.005,-0.105,-0.974,0.037,0.48,-0.265,-0.442
978,-0.004,-0.044,-0.004,-0.101,-0.978,0.04,0.48,-0.265,-0.442
979,-0.009,-0.042,-0.002,-0.1,-0.979,0.036,0.487,-0.277,-0.439
980,-0.017,-0.035,-0.002,-0.1,-0.984,0.03,0.483,-0.255,-0.439
981,-0.023,-0.032,-0.005,-0.103,-0.987,0.04,0.483,-0.262,-0.43
982,-0.028,-0.028,-0.013,-0.108,-0.98,0.05,0.486,-0.274,-0.442
983,-0.025,-0.021,-0.018,-0.102,-0.973,0.044,0.471,-0.276,-0.439
984,-0.018,-0.011,-0.017,-0.096,-0.97,0.033,0.472,-0.27,-0.459
985,-0.009,-0.004,-0.018,-0.092,-0.97,0.023,0.478,-0.261,-0.451
986,0.004,0.002,-0.016,-0.092,-0.97,0.023,0.49,-0.267,-0.433
987,0.008,0.004,-0.015,-0.099,-0.969,0.025,0.499,-0.262,-0.454
988,0.005,-0.004,-0.011,-0.103,-0.97,0.037,0.483,-0.27,-0.472
989,0.001,0.0,-0.008,-0.099,-0.976,0.039,0.483,-0.27,-0.472
990,-0.002,-0.002,-0.003,-0.098,-0.985,0.037,0.475,-0.267,-0.43
991,-0.005,-0.004,-0.001,-0.1,-0.992,0.036,0.481,-0.271,-0.457
992,-0.007,-0.011,-0.003,-0.101,-0.994,0.037,0.489,-0.259,-0.438
993,-0.007,-0.004,-0.009,-0.101,-0.988,0.037,0.478,-0.277,-0.441
994,-0.007,0.004,-0.013,-0.102,-0.98,0.034,0.492,-0.28,-0.448
995,-0.003,0.007,-0.014,-0.099,-0.973,0.033,0.469,-0.27,-0.442
996,0.0,0.012,-0.01,-0.096,-0.969,0.026,0.486,-0.261,-0.445
997,0.004,0.018,-0.011,-0.098,-0.971,0.027,0.495,-0.259,-0.469
998,0.007,0.02,-0.014,-0.101,-0.973,0.033,0.477,-0.262,-0.448
999,0.009,0.022,-0.018,-0.104,-0.976,0.032,0.487,-0.265,-0.448
1000,0.012,0.024,-0.018,-0.106,-0.981,0.035,0.48,-0.258,-0.462
1001,0.021,0.028,-0.017,-0.104,-0.983,0.037,0.495,-0.255,-0.441
1002,0.022,0.029,-0.015,-0.097,-0.98,0.036,0.495,-0.255,-0.441
1003,0.015,0.033,-0.014,-0.079,-0.976,0.025,0.508,-0.255,-0.441
1004,0.009,0.048,-0.013,-0.079,-0.976,0.025,0.49,-0.28,-0.451
1005,0.007,0.073,-0.014,-0.078,-0.981,0.024,0.483,-0.265,-0.445
1006,0.002,0.076,-0.016,-0.089,-0.985,0.029,0.495,-0.271,-0.459
1007,-0.002,0.065,-0.018,-0.099,-0.983,0.037,0.49,-0.27,-0.465
1008,-0.006,0.052,-0.021,-0.106,-0.981,0.045,0.489,-0.244,-0.45
1009,-0.009,0.048,-0.024,-0.111,-0.979,0.044,0.493,-0.264,-0.451
1010,-0.011,0.043,-0.025,-0.112,-0.981,0.038,0.49,-0.27,-0.447
1011,-0.016,0.04,-0.028,-0.112,-0.983,0.041,0.496,-0.27,-0.444
1012,-0.016,0.039,-0.028,-0.109,-0.978,0.046,0.501,-0.262,-0.432
1013,-0.012,0.048,-0.028,-0.106,-0.976,0.043,0.49,-0.265,-0.439
1014,-0.008,0.043,-0.028,-0.109,-0.975,0.042,0.486,-0.256,-0.435
1015,-0.005,0.027,-0.026,-0.11,-0.976,0.048,0.486,-0.256,-0.435
1016,-0.003,0.016,-0.028,-0.11,-0.98,0.051,0.502,-0.252,-0.45
1017,-0.002,0.014,-0.026,-0.114,-0.978,0.052,0.49,-0.25,-0.444
1018,-0.002,0.007,-0.026,-0.117,-0.975,0.049,0.49,-0.255,-0.444
1019,-0.004,-0.002,-0.025,-0.117,-0.974,0.046,0.504,-0.264,-0.457
1020,-0.001,-0.002,-0.025,-0.111,-0.979,0.044,0.495,-0.27,-0.457
1021,0.0,0.002,-0.025,-0.109,-0.981,0.046,0.49,-0.276,-0.441
1022,-0.001,-0.002,-0.023,-0.109,-0.981,0.046,0.498,-0.268,-0.45
1023,-0.003,-0.007,-0.022,-0.106,-0.98,0.048,0.481,-0.267,-0.46
1024,-0.003,-0.004,-0.02,-0.105,-0.978,0.045,0.486,-0.244,-0.444
1025,-0.002,0.0,-0.018,-0.104,-0.978,0.045,0.486,-0.255,-0.45
1026,-0.004,-0.004,-0.017,-0.107,-0.976,0.048,0.487,-0.255,-0.459
1027,0.0,-0.016,-0.015,-0.109,-0.977,0.05,0.495,-0.276,-0.448
1028,0.003,-0.021,-0.014,-0.111,-0.979,0.049,0.49,-0.259,-0.445
1029,0.006,-0.019,-0.013,-0.113,-0.977,0.046,0.49,-0.259,-0.445
1030,0.003,-0.014,-0.014,-0.112,-0.977,0.044,0.495,-0.247,-0.435
1031,0.001,-0.014,-0.012,-0.11,-0.977,0.042,0.493,-0.265,-0.447
1032,0.0,-0.016,-0.008,-0.109,-0.978,0.048,0.498,-0.264,-0.435
1033,0.001,-0.023,-0.007,-0.111,-0.978,0.05,0.496,-0.264,-0.451
1034,0.002,-0.016,-0.011,-0.115,-0.979,0.042,0.499,-0.261,-0.462
1035,0.004,-0.016,-0.014,-0.114,-0.978,0.041,0.478,-0.255,-0.441
1036,0.007,-0.016,-0.014,-0.115,-0.975,0.044,0.504,-0.244,-0.441
1037,0.011,-0.025,-0.012,-0.117,-0.977,0.043,0.487,-0.261,-0.454
1038,0.017,-0.03,-0.009,-0.116,-0.979,0.033,0.504,-0.265,-0.456
1039,0.017,-0.032,-0.008,-0.116,-0.979,0.033,0.483,-0.265,-0.427
1040,0.012,-0.029,-0.011,-0.115,-0.974,0.033,0.493,-0.262,-0.454
1041,0.01,-0.029,-0.014,-0.117,-0.973,0.037,0.484,-0.253,-0.459
1042,0.009,-0.024,-0.014,-0.114,-0.976,0.038,0.504,-0.238,-0.454
1043,0.006,-0.016,-0.014,-0.11,-0.976,0.035,0.493,-0.255,-0.441
1044,0.004,-0.009,-0.012,-0.105,-0.975,0.033,0.484,-0.268,-0.456
1045,0.004,-0.006,-0.009,-0.104,-0.976,0.038,0.484,-0.268,-0.456
1046,0.004,-0.009,-0.011,-0.105,-0.976,0.044,0.502,-0.261,-0.454
1047,0.003,-0.003,-0.012,-0.105,-0.978,0.045,0.487,-0.256,-0.442
1048,-0.002,0.0,-0.012,-0.104,-0.98,0.043,0.49,-0.252,-0.475
1049,-0.005,0.004,-0.011,-0.102,-0.978,0.04,0.498,-0.259,-0.454
1050,-0.007,0.009,-0.011,-0.106,-0.976,0.037,0.481,-0.277,-0.454
1051,-0.005,0.012,-0.011,-0.108,-0.975,0.038,0.495,-0.262,-0.462
1052,-0.003,0.008,-0.011,-0.111,-0.978,0.044,0.484,-0.25,-0.445
1053,-0.002,0.004,-0.011,-0.115,-0.978,0.042,0.483,-0.267,-0.451
1054,-0.002,0.004,-0.012,-0.115,-0.978,0.037,0.504,-0.268,-0.442
1055,-0.004,0.001,-0.011,-0.117,-0.972,0.038,0.493,-0.27,-0.456
1056,-0.004,-0.001,-0.012,-0.118,-0.974,0.037,0.484,-0.267,-0.45
1057,-0.007,-0.002,-0.013,-0.118,-0.974,0.037,0.48,-0.261,-0.451
1058,-0.009,-0.005,-0.011,-0.114,-0.978,0.034,0.517,-0.267,-0.463
1059,-0.011,-0.014,-0.01,-0.114,-0.98,0.037,0.477,-0.262,-0.442
1060,-0.012,-0.018,-0.012,-0.112,-0.978,0.038,0.477,-0.262,-0.442
1061,-0.01,-0.014,-0.014,-0.113,-0.976,0.037,0.487,-0.271,-0.45
1062,-0.011,-0.011,-0.014,-0.112,-0.978,0.038,0.486,-0.256,-0.435
1063,-0.007,-0.011,-0.013,-0.112,-0.979,0.04,0.486,-0.256,-0.435
1064,-0.005,-0.014,-0.011,-0.113,-0.975,0.04,0.501,-0.255,-0.442
1065,-0.004,-0.014,-0.01,-0.113,-0.978,0.04,0.477,-0.27,-0.465
1066,-0.004,-0.013,-0.013,-0.111,-0.98,0.042,0.501,-0.258,-0.46
1067,-0.005,-0.007,-0.014,-0.108,-0.979,0.045,0.49,-0.255,-0.442
1068,-0.004,-0.005,-0.014,-0.105,-0.978,0.047,0.481,-0.28,-0.45
1069,-0.006,0.0,-0.016,-0.105,-0.975,0.044,0.492,-0.265,-0.453
1070,-0.005,-0.001,-0.015,-0.109,-0.976,0.043,0.499,-0.255,-0.426
1071,-0.001,-0.005,-0.015,-0.111,-0.978,0.047,0.487,-0.264,-0.454
1072,0.0,-0.008,-0.014,-0.114,-0.976,0.048,0.502,-0.267,-0.454
1073,0.0,-0.012,-0.015,-0.116,-0.974,0.05,0.49,-0.276,-0.429
1074,0.0,-0.012,-0.016,-0.116,-0.974,0.05,0.502,-0.271,-0.45
1075,-0.002,-0.014,-0.015,-0.111,-0.976,0.051,0.496,-0.25,-0.453
1076,0.0,-0.016,-0.015,-0.107,-0.978,0.053,0.496,-0.259,-0.444
1077,-0.001,-0.014,-0.016,-0.111,-0.975,0.05,0.486,-0.276,-0.454
1078,-0.002,-0.011,-0.016,-0.113,-0.975,0.05,0.486,-0.276,-0.454
1079,-0.002,-0.014,-0.015,-0.112,-0.98,0.055,0.493,-0.246,-0.448
1080,-0.002,-0.014,-0.014,-0.111,-0.978,0.054,0.495,-0.277,-0.457
1081,-0.003,-0.016,-0.013,-0.111,-0.977,0.051,0.484,-0.25,-0.462
1082,-0.003,-0.016,-0.015,-0.111,-0.976,0.05,0.493,-0.261,-0.454
1083,-0.003,-0.016,-0.017,-0.112,-0.974,0.051,0.499,-0.246,-0.442
1084,-0.002,-0.009,-0.018,-0.11,-0.973,0.05,0.492,-0.271,-0.457
1085,-0.001,-0.003,-0.017,-0.106,-0.975,0.047,0.48,-0.276,-0.438
1086,-0.002,-0.002,-0.016,-0.106,-0.977,0.048,0.493,-0.252,-0.448
1087,-0.004,-0.004,-0.015,-0.11,-0.975,0.048,0.501,-0.253,-0.447
1088,-0.007,-0.003,-0.015,-0.113,-0.977,0.048,0.501,-0.264,-0.432
1089,-0.01,-0.007,-0.016,-0.114,-0.98,0.049,0.49,-0.271,-0.448
1090,-0.014,-0.005,-0.018,-0.115,-0.978,0.047,0.499,-0.252,-0.45
1091,-0.016,-0.004,-0.02,-0.12,-0.976,0.047,0.499,-0.252,-0.45
1092,-0.016,-0.003,-0.02,-0.12,-0.976,0.047,0.487,-0.262,-0.456
1093,-0.013,-0.009,-0.019,-0.116,-0.977,0.049,0.484,-0.268,-0.45
1094,-0.007,-0.013,-0.018,-0.113,-0.975,0.052,0.504,-0.258,-0.45
1095,-0.003,-0.012,-0.018,-0.116,-0.975,0.052,0.489,-0.279,-0.453
1096,0.0,-0.012,-0.017,-0.115,-0.977,0.053,0.478,-0.262,-0.447
1097,0.001,-0.014,-0.015,-0.114,-0.979,0.055,0.498,-0.265,-0.468
1098,0.002,-0.016,-0.014,-0.111,-0.981,0.057,0.489,-0.267,-0.463
1099,-0.004,-0.017,-0.014,-0.111,-0.98,0.06,0.508,-0.265,-0.456
1100,-0.007,-0.016,-0.016,-0.112,-0.973,0.063,0.495,-0.267,-0.45
1101,-0.01,-0.009,-0.018,-0.109,-0.973,0.066,0.496,-0.256,-0.463
1102,-0.008,-0.003,-0.016,-0.106,-0.977,0.065,0.478,-0.258,-0.451
1103,-0.003,-0.001,-0.014,-0.105,-0.977,0.061,0.492,-0.265,-0.439
1104,-0.001,0.0,-0.013,-0.105,-0.977,0.063,0.474,-0.265,-0.435
1105,-0.003,0.0,-0.013,-0.105,-0.977,0.066,0.492,-0.268,-0.453
1106,-0.005,0.0,-0.011,-0.104,-0.974,0.062,0.492,-0.267,-0.465
1107,-0.004,0.0,-0.011,-0.104,-0.973,0.06,0.504,-0.271,-0.453
1108,0.0,0.0,-0.01,-0.11,-0.974,0.06,0.481,-0.253,-0.453
1109,-0.001,0.003,-0.01,-0.11,-0.974,0.06,0.474,-0.265,-0.438
1110,0.0,0.0,-0.012,-0.113,-0.98,0.063,0.474,-0.265,-0.438
1111,-0.002,-0.004,-0.012,-0.113,-0.979,0.063,0.504,-0.262,-0.462
1112,-0.001,-0.005,-0.011,-0.114,-0.974,0.056,0.502,-0.259,-0.448
1113,0.0,-0.002,-0.011,-0.116,-0.973,0.053,0.471,-0.255,-0.45
1114,0.0,-0.006,-0.009,-0.116,-0.976,0.06,0.498,-0.264,-0.444
1115,0.0,-0.006,-0.009,-0.111,-0.977,0.062,0.489,-0.271,-0.445
1116,-0.003,0.0,-0.009,-0.109,-0.977,0.056,0.483,-0.258,-0.45
1117,-0.004,0.0,-0.009,-0.11,-0.976,0.057,0.496,-0.256,-0.463
1118,-0.003,0.002,-0.009,-0.109,-0.978,0.059,0.493,-0.261,-0.45
1119,-0.004,0.005,-0.009,-0.111,-0.978,0.055,0.502,-0.265,-0.457
1120,-0.001,0.003,-0.009,-0.112,-0.975,0.057,0.493,-0.265,-0.459
1121,0.001,0.006,-0.011,-0.113,-0.973,0.057,0.504,-0.261,-0.462
1122,0.0,0.005,-0.012,-0.115,-0.973,0.054,0.475,-0.262,-0.466
1123,0.0,0.001,-0.011,-0.116,-0.975,0.056,0.501,-0.264,-0.448
1124,0.0,0.001,-0.011,-0.116,-0.975,0.055,0.501,-0.262,-0.456
1125,0.0,0.002,-0.011,-0.115,-0.976,0.052,0.475,-0.256,-0.448
1126,0.002,0.003,-0.012,-0.116,-0.976,0.055,0.475,-0.256,-0.448
1127,0.002,0.006,-0.013,-0.116,-0.976,0.055,0.516,-0.255,-0.459
1128,0.003,0.002,-0.012,-0.117,-0.975,0.058,0.516,-0.255,-0.459
1129,0.002,-0.001,-0.013,-0.116,-0.976,0.06,0.493,-0.256,-0.462
1130,0.002,-0.002,-0.013,-0.12,-0.974,0.057,0.495,-0.268,-0.451
1131,0.0,-0.002,-0.014,-0.122,-0.976,0.056,0.507,-0.253,-0.477
1132,0.001,-0.002,-0.014,-0.119,-0.977,0.058,0.489,-0.258,-0.444
1133,0.003,-0.002,-0.012,-0.117,-0.975,0.057,0.513,-0.25,-0.447
1134,0.004,-0.004,-0.012,-0.117,-0.978,0.057,0.48,-0.261,-0.462
1135,0.003,-0.006,-0.013,-0.116,-0.98,0.057,0.492,-0.253,-0.45
1136,0.003,-0.008,-0.014,-0.114,-0.977,0.06,0.496,-0.253,-0.46
1137,0.003,-0.01,-0.013,-0.112,-0.975,0.062,0.507,-0.259,-0.451
1138,0.003,-0.009,-0.011,-0.112,-0.977,0.06,0.483,-0.274,-0.448
1139,0.003,-0.008,-0.011,-0.108,-0.978,0.06,0.496,-0.264,-0.453
1140,0.002,-0.007,-0.011,-0.107,-0.975,0.061,0.484,-0.267,-0.445
1141,0.002,-0.007,-0.012,-0.108,-0.974,0.061,0.484,-0.267,-0.445
1142,0.001,-0.004,-0.012,-0.107,-0.976,0.062,0.501,-0.252,-0.469
1143,0.0,-0.002,-0.013,-0.112,-0.97,0.063,0.505,-0.259,-0.435
1144,-0.001,0.0,-0.012,-0.113,-0.974,0.063,0.487,-0.261,-0.445
1145,-0.002,0.003,-0.011,-0.113,-0.974,0.063,0.481,-0.268,-0.454
1146,-0.002,0.004,-0.011,-0.112,-0.976,0.06,0.498,-0.259,-0.46
1147,0.0,0.004,-0.012,-0.113,-0.976,0.06,0.483,-0.262,-0.444
1148,-0.001,0.004,-0.013,-0.116,-0.976,0.06,0.498,-0.252,-0.453
1149,-0.001,0.004,-0.014,-0.119,-0.974,0.059,0.502,-0.255,-0.456
1150,0.0,0.004,-0.013,-0.118,-0.974,0.058,0.481,-0.246,-0.447
1151,0.003,0.007,-0.009,-0.117,-0.975,0.059,0.507,-0.256,-0.445
1152,0.006,0.007,-0.006,-0.119,-0.974,0.062,0.489,-0.276,-0.453
1153,0.007,0.0,-0.009,-0.117,-0.974,0.063,0.492,-0.268,-0.435
1154,0.002,0.0,-0.011,-0.114,-0.974,0.06,0.496,-0.271,-0.469
1155,0.002,0.0,-0.011,-0.112,-0.976,0.059,0.496,-0.271,-0.469
1156,0.002,-0.002,-0.011,-0.11,-0.977,0.06,0.502,-0.259,-0.463
1157,0.0,0.002,-0.011,-0.109,-0.978,0.06,0.474,-0.243,-0.447
1158,0.0,0.002,-0.013,-0.111,-0.977,0.059,0.492,-0.274,-0.475
1159,0.0,0.004,-0.015,-0.111,-0.974,0.059,0.489,-0.258,-0.444
1160,0.002,0.004,-0.016,-0.111,-0.976,0.061,0.507,-0.27,-0.454
1161,0.004,0.0,-0.015,-0.116,-0.976,0.062,0.474,-0.267,-0.447
1162,0.007,-0.002,-0.013,-0.116,-0.976,0.062,0.499,-0.277,-0.45
1163,0.008,-0.007,-0.011,-0.116,-0.975,0.06,0.487,-0.259,-0.457
1164,0.007,-0.003,-0.011,-0.116,-0.973,0.06,0.489,-0.255,-0.444
1165,0.004,-0.003,-0.011,-0.115,-0.975,0.059,0.487,-0.271,-0.453
1166,0.003,-0.004,-0.011,-0.112,-0.975,0.061,0.48,-0.243,-0.43
1167,0.002,-0.003,-0.011,-0.114,-0.976,0.064,0.499,-0.271,-0.46
1168,0.002,-0.004,-0.011,-0.113,-0.976,0.065,0.484,-0.261,-0.469
1169,0.003,0.0,-0.011,-0.111,-0.977,0.061,0.481,-0.255,-0.459
1170,0.004,0.001,-0.01,-0.112,-0.977,0.058,0.481,-0.255,-0.459
1171,0.006,0.0,-0.01,-0.111,-0.976,0.059,0.499,-0.252,-0.451
1172,0.005,0.0,-0.01,-0.113,-0.975,0.058,0.478,-0.267,-0.469
1173,0.004,0.002,-0.011,-0.115,-0.976,0.056,0.487,-0.27,-0.457
1174,0.002,0.004,-0.013,-0.114,-0.977,0.057,0.484,-0.277,-0.447
1175,0.002,0.004,-0.013,-0.111,-0.974,0.058,0.481,-0.279,-0.472
1176,0.003,0.004,-0.013,-0.111,-0.976,0.058,0.496,-0.277,-0.477
1177,0.004,0.0,-0.011,-0.112,-0.977,0.059,0.484,-0.271,-0.45
1178,0.005,0.0,-0.011,-0.113,-0.974,0.058,0.501,-0.261,-0.454
1179,0.004,0.001,-0.013,-0.114,-0.975,0.056,0.486,-0.25,-0.444
1180,0.002,0.0,-0.011,-0.114,-0.975,0.056,0.501,-0.277,-0.444
1181,0.004,0.0,-0.011,-0.114,-0.977,0.055,0.507,-0.265,-0.46
1182,0.003,-0.004,-0.012,-0.115,-0.978,0.055,0.471,-0.265,-0.456
1183,0.002,-0.006,-0.011,-0.116,-0.975,0.058,0.501,-0.268,-0.454
1184,0.002,-0.003,-0.012,-0.113,-0.975,0.056,0.501,-0.27,-0.465
1185,0.002,-0.006,-0.011,-0.113,-0.976,0.056,0.487,-0.265,-0.444
1186,0.003,-0.01,-0.011,-0.114,-0.977,0.057,0.498,-0.258,-0.456
