,Gyroscope X (deg/s),Gyroscope Y (deg/s),Gyroscope Z (deg/s),Accelerometer X (g),Accelerometer Y (g),Accelerometer Z (g),Magnetometer X (G),Magnetometer Y (G),Magnetometer Z (G)
0,0.001,-0.049,-0.003,0.049,-0.972,-0.036,0.328,-0.253,-0.435
1,0.001,-0.049,-0.003,0.049,-0.972,-0.036,0.328,-0.253,-0.435
2,0.001,-0.049,-0.003,0.049,-0.972,-0.036,0.328,-0.253,-0.435
3,0.001,-0.049,-0.003,0.049,-0.972,-0.036,0.328,-0.253,-0.435
4,0.001,-0.049,-0.003,0.049,-0.972,-0.036,0.328,-0.253,-0.435
5,0.001,-0.046,-0.003,0.052,-0.981,-0.029,0.319,-0.243,-0.424
6,0.0,-0.042,-0.003,0.056,-0.988,-0.032,0.322,-0.256,-0.424
7,-0.003,-0.042,-0.002,0.059,-0.994,-0.039,0.321,-0.244,-0.427
8,-0.003,-0.041,-0.004,0.059,-0.999,-0.042,0.334,-0.235,-0.453
9,-0.003,-0.046,-0.005,0.055,-0.996,-0.043,0.322,-0.244,-0.438
10,-0.003,-0.052,-0.007,0.054,-0.994,-0.044,0.322,-0.244,-0.438
11,-0.006,-0.053,-0.009,0.057,-0.991,-0.042,0.31,-0.25,-0.426
12,-0.009,-0.055,-0.009,0.059,-0.982,-0.041,0.307,-0.246,-0.444
13,-0.015,-0.056,-0.011,0.059,-0.974,-0.043,0.318,-0.234,-0.433
14,-0.023,-0.056,-0.015,0.059,-0.974,-0.043,0.3,-0.262,-0.421
15,-0.034,-0.051,-0.019,0.056,-0.971,-0.043,0.322,-0.229,-0.429
16,-0.044,-0.044,-0.023,0.053,-0.974,-0.04,0.328,-0.244,-0.423
17,-0.053,-0.037,-0.024,0.052,-0.982,-0.037,0.328,-0.244,-0.423
18,-0.06,-0.02,-0.027,0.054,-0.989,-0.042,0.315,-0.249,-0.439
19,-0.064,-0.002,-0.029,0.056,-0.994,-0.047,0.327,-0.241,-0.426
20,-0.064,-0.002,-0.029,0.06,-0.996,-0.043,0.334,-0.261,-0.433
21,-0.066,0.014,-0.029,0.071,-0.991,-0.033,0.325,-0.25,-0.444
22,-0.063,0.016,-0.027,0.08,-0.985,-0.03,0.334,-0.259,-0.436
23,-0.056,0.012,-0.023,0.084,-0.977,-0.032,0.31,-0.255,-0.424
24,-0.055,0.007,-0.023,0.083,-0.964,-0.034,0.31,-0.255,-0.424
25,-0.051,0.002,-0.023,0.077,-0.955,-0.034,0.328,-0.256,-0.435
26,-0.047,0.003,-0.027,0.071,-0.951,-0.038,0.319,-0.258,-0.456
27,-0.038,0.018,-0.03,0.068,-0.952,-0.041,0.324,-0.25,-0.435
28,-0.027,0.051,-0.033,0.066,-0.953,-0.034,0.321,-0.253,-0.424
29,-0.016,0.06,-0.031,0.068,-0.954,-0.018,0.337,-0.253,-0.435
30,-0.001,0.049,-0.023,0.072,-0.953,-0.01,0.324,-0.25,-0.444
31,0.013,0.022,-0.013,0.073,-0.954,-0.015,0.324,-0.25,-0.444
32,0.023,-0.002,-0.006,0.064,-0.961,-0.023,0.339,-0.244,-0.445
33,0.028,-0.013,-0.004,0.05,-0.972,-0.032,0.309,-0.259,-0.432
34,0.032,-0.013,-0.004,0.043,-0.98,-0.035,0.313,-0.244,-0.442
35,0.035,-0.011,-0.004,0.043,-0.98,-0.035,0.327,-0.237,-0.448
36,0.033,-0.016,-0.003,0.042,-0.982,-0.029,0.315,-0.24,-0.442
37,0.029,-0.021,-0.002,0.041,-0.979,-0.027,0.33,-0.258,-0.435
38,0.028,-0.026,-0.003,0.04,-0.975,-0.024,0.33,-0.258,-0.435
39,0.031,-0.035,-0.004,0.041,-0.975,-0.024,0.312,-0.232,-0.442
40,0.031,-0.035,-0.004,0.044,-0.981,-0.031,0.322,-0.258,-0.426
41,0.037,-0.042,-0.003,0.045,-0.985,-0.037,0.328,-0.258,-0.438
42,0.041,-0.051,-0.002,0.044,-0.985,-0.04,0.3,-0.244,-0.411
43,0.046,-0.065,0.002,0.046,-0.985,-0.042,0.321,-0.234,-0.438
44,0.053,-0.088,0.007,0.048,-0.984,-0.046,0.33,-0.262,-0.436
45,0.059,-0.108,0.01,0.05,-0.984,-0.047,0.33,-0.262,-0.436
46,0.063,-0.118,0.01,0.049,-0.985,-0.043,0.325,-0.249,-0.435
47,0.062,-0.114,0.008,0.051,-0.987,-0.034,0.318,-0.238,-0.429
48,0.056,-0.106,0.004,0.059,-0.989,-0.022,0.339,-0.249,-0.418
49,0.035,-0.124,0.002,0.065,-0.991,-0.005,0.295,-0.238,-0.411
50,0.023,-0.126,0.002,0.065,-0.99,-0.009,0.328,-0.258,-0.42
51,0.014,-0.123,0.0,0.068,-0.99,-0.018,0.328,-0.258,-0.42
52,0.01,-0.115,0.001,0.077,-0.99,-0.024,0.312,-0.25,-0.411
53,0.009,-0.099,0.002,0.083,-0.986,-0.021,0.297,-0.256,-0.412
54,0.009,-0.09,0.006,0.083,-0.986,-0.021,0.336,-0.246,-0.417
55,0.009,-0.086,0.009,0.094,-0.982,-0.017,0.324,-0.235,-0.409
56,0.004,-0.084,0.014,0.104,-0.981,-0.017,0.313,-0.247,-0.43
57,0.003,-0.083,0.014,0.106,-0.979,-0.022,0.313,-0.247,-0.43
58,0.004,-0.077,0.011,0.101,-0.976,-0.029,0.307,-0.247,-0.444
59,0.004,-0.077,0.011,0.095,-0.977,-0.036,0.301,-0.261,-0.424
60,0.002,-0.058,0.004,0.091,-0.977,-0.041,0.306,-0.237,-0.417
61,0.003,-0.04,0.0,0.086,-0.977,-0.047,0.327,-0.25,-0.424
62,0.007,-0.031,-0.004,0.079,-0.98,-0.044,0.316,-0.241,-0.426
63,0.007,-0.02,-0.007,0.073,-0.979,-0.033,0.316,-0.241,-0.426
64,0.002,-0.016,-0.011,0.071,-0.978,-0.03,0.318,-0.252,-0.426
65,0.002,-0.019,-0.012,0.072,-0.98,-0.034,0.321,-0.255,-0.432
66,0.004,-0.018,-0.012,0.075,-0.981,-0.043,0.318,-0.25,-0.433
67,0.007,-0.013,-0.01,0.073,-0.981,-0.048,0.327,-0.249,-0.412
68,0.013,-0.011,-0.007,0.073,-0.977,-0.047,0.304,-0.261,-0.409
69,0.015,-0.011,-0.004,0.079,-0.974,-0.045,0.304,-0.261,-0.409
70,0.014,-0.01,-0.004,0.079,-0.978,-0.043,0.313,-0.259,-0.414
71,0.009,-0.008,-0.006,0.077,-0.98,-0.044,0.321,-0.24,-0.415
72,0.003,-0.007,-0.008,0.075,-0.984,-0.048,0.319,-0.244,-0.421
73,0.003,0.0,-0.01,0.07,-0.986,-0.053,0.327,-0.256,-0.424
74,0.004,0.02,-0.014,0.07,-0.986,-0.053,0.313,-0.241,-0.436
75,0.004,0.032,-0.018,0.064,-0.984,-0.051,0.313,-0.241,-0.436
76,0.001,0.028,-0.018,0.062,-0.982,-0.045,0.313,-0.241,-0.424
77,0.0,0.012,-0.016,0.065,-0.978,-0.038,0.294,-0.238,-0.399
78,0.003,0.0,-0.014,0.07,-0.972,-0.039,0.294,-0.238,-0.399
79,0.003,0.0,-0.014,0.072,-0.974,-0.048,0.313,-0.258,-0.414
80,0.008,-0.001,-0.011,0.071,-0.977,-0.053,0.325,-0.243,-0.423
81,0.011,0.003,-0.011,0.07,-0.979,-0.048,0.324,-0.247,-0.415
82,0.011,0.006,-0.011,0.07,-0.981,-0.041,0.324,-0.247,-0.415
83,0.007,0.0,-0.01,0.07,-0.982,-0.037,0.315,-0.232,-0.436
84,0.004,-0.018,-0.007,0.067,-0.986,-0.04,0.306,-0.25,-0.409
85,0.007,-0.009,-0.01,0.058,-0.988,-0.047,0.31,-0.241,-0.432
86,0.005,0.01,-0.014,0.051,-0.984,-0.048,0.312,-0.25,-0.423
87,0.003,0.014,-0.017,0.056,-0.982,-0.042,0.3,-0.247,-0.417
88,0.0,0.002,-0.019,0.065,-0.98,-0.038,0.3,-0.247,-0.417
89,0.0,-0.006,-0.018,0.073,-0.976,-0.04,0.304,-0.234,-0.415
90,0.001,-0.012,-0.016,0.078,-0.975,-0.043,0.327,-0.261,-0.427
91,0.0,-0.013,-0.015,0.078,-0.974,-0.048,0.307,-0.246,-0.412
92,0.0,-0.011,-0.014,0.074,-0.977,-0.048,0.312,-0.246,-0.415
93,0.0,-0.001,-0.016,0.074,-0.977,-0.048,0.309,-0.25,-0.433
94,-0.003,0.002,-0.017,0.073,-0.981,-0.043,0.318,-0.25,-0.423
95,-0.004,-0.004,-0.015,0.077,-0.978,-0.039,0.318,-0.25,-0.423
96,-0.002,-0.004,-0.014,0.08,-0.979,-0.039,0.327,-0.247,-0.406
97,-0.001,0.004,-0.016,0.07,-0.985,-0.038,0.319,-0.253,-0.42
98,-0.001,0.004,-0.016,0.061,-0.981,-0.036,0.318,-0.253,-0.42
99,-0.002,0.005,-0.018,0.064,-0.977,-0.033,0.318,-0.253,-0.42
100,-0.008,-0.002,-0.02,0.072,-0.976,-0.034,0.298,-0.244,-0.426
101,-0.01,-0.004,-0.021,0.076,-0.976,-0.041,0.319,-0.234,-0.441
102,-0.007,-0.002,-0.018,0.078,-0.977,-0.047,0.319,-0.234,-0.441
103,-0.002,0.005,-0.018,0.08,-0.978,-0.05,0.327,-0.244,-0.417
104,0.001,0.015,-0.018,0.08,-0.979,-0.047,0.316,-0.24,-0.424
105,-0.001,0.011,-0.018,0.081,-0.978,-0.043,0.313,-0.252,-0.424
106,0.0,0.011,-0.019,0.079,-0.976,-0.04,0.324,-0.246,-0.432
107,0.003,0.009,-0.019,0.073,-0.977,-0.039,0.312,-0.237,-0.414
108,0.007,0.009,-0.021,0.067,-0.979,-0.042,0.304,-0.249,-0.423
109,0.004,0.013,-0.023,0.062,-0.98,-0.04,0.304,-0.249,-0.423
110,0.002,0.01,-0.023,0.063,-0.983,-0.039,0.312,-0.252,-0.402
111,0.002,0.001,-0.021,0.066,-0.981,-0.043,0.315,-0.249,-0.418
112,0.002,0.0,-0.02,0.064,-0.98,-0.042,0.307,-0.255,-0.391
113,0.002,0.002,-0.018,0.064,-0.981,-0.037,0.306,-0.238,-0.432
114,0.003,0.007,-0.015,0.067,-0.981,-0.037,0.298,-0.246,-0.42
115,0.004,0.004,-0.016,0.074,-0.98,-0.036,0.315,-0.273,-0.433
116,0.002,-0.002,-0.016,0.076,-0.979,-0.037,0.315,-0.273,-0.433
117,0.001,-0.001,-0.016,0.076,-0.983,-0.04,0.316,-0.267,-0.436
118,0.001,-0.001,-0.016,0.07,-0.985,-0.043,0.318,-0.265,-0.439
119,0.0,0.007,-0.018,0.061,-0.981,-0.039,0.334,-0.252,-0.412
120,-0.006,0.014,-0.023,0.06,-0.979,-0.036,0.334,-0.252,-0.412
121,-0.011,0.009,-0.028,0.064,-0.978,-0.036,0.328,-0.247,-0.421
122,-0.013,0.008,-0.03,0.072,-0.974,-0.036,0.31,-0.252,-0.429
123,-0.01,0.005,-0.028,0.082,-0.973,-0.036,0.31,-0.252,-0.429
124,-0.005,0.004,-0.023,0.085,-0.978,-0.039,0.312,-0.252,-0.432
125,0.002,0.003,-0.018,0.083,-0.982,-0.046,0.31,-0.253,-0.415
126,0.011,0.002,-0.013,0.078,-0.98,-0.049,0.321,-0.258,-0.396
127,0.018,0.004,-0.01,0.074,-0.976,-0.047,0.309,-0.235,-0.429
128,0.021,0.007,-0.009,0.07,-0.974,-0.042,0.316,-0.249,-0.424
129,0.021,0.01,-0.01,0.066,-0.975,-0.044,0.312,-0.235,-0.424
130,0.016,0.012,-0.013,0.062,-0.974,-0.045,0.312,-0.235,-0.424
131,0.011,0.016,-0.016,0.056,-0.975,-0.047,0.331,-0.247,-0.411
132,0.007,0.019,-0.019,0.054,-0.977,-0.051,0.313,-0.253,-0.418
133,0.004,0.011,-0.018,0.055,-0.978,-0.055,0.312,-0.244,-0.418
134,0.001,0.015,-0.018,0.055,-0.978,-0.055,0.312,-0.244,-0.418
135,0.002,0.01,-0.017,0.053,-0.98,-0.056,0.322,-0.244,-0.406
136,0.007,0.002,-0.014,0.053,-0.982,-0.057,0.312,-0.244,-0.417
137,0.007,0.002,-0.014,0.051,-0.986,-0.056,0.312,-0.244,-0.417
138,0.01,0.013,-0.014,0.037,-0.991,-0.051,0.322,-0.25,-0.429
139,0.008,0.021,-0.016,0.03,-0.993,-0.043,0.316,-0.276,-0.409
140,0.002,-0.002,-0.017,0.033,-0.99,-0.042,0.313,-0.246,-0.423
141,-0.002,-0.03,-0.017,0.033,-0.981,-0.052,0.309,-0.238,-0.424
142,-0.002,-0.034,-0.021,0.036,-0.975,-0.06,0.315,-0.264,-0.429
143,-0.002,-0.022,-0.023,0.049,-0.975,-0.053,0.322,-0.261,-0.426
144,0.0,-0.023,-0.021,0.068,-0.977,-0.045,0.322,-0.261,-0.426
145,0.0,-0.031,-0.017,0.077,-0.98,-0.044,0.307,-0.24,-0.436
146,0.0,-0.039,-0.013,0.074,-0.983,-0.046,0.31,-0.232,-0.436
147,0.001,-0.046,-0.012,0.067,-0.985,-0.048,0.307,-0.252,-0.421
148,0.0,-0.042,-0.014,0.061,-0.989,-0.049,0.319,-0.277,-0.421
149,0.0,-0.037,-0.014,0.058,-0.991,-0.049,0.325,-0.246,-0.436
150,0.002,-0.035,-0.014,0.056,-0.985,-0.047,0.316,-0.258,-0.433
151,0.004,-0.039,-0.012,0.058,-0.979,-0.041,0.316,-0.258,-0.433
152,0.005,-0.043,-0.011,0.061,-0.974,-0.043,0.307,-0.258,-0.423
153,0.007,-0.041,-0.012,0.061,-0.974,-0.043,0.309,-0.246,-0.411
154,0.007,-0.037,-0.013,0.063,-0.972,-0.046,0.286,-0.253,-0.411
155,0.009,-0.032,-0.013,0.067,-0.973,-0.046,0.286,-0.253,-0.411
156,0.01,-0.032,-0.012,0.074,-0.972,-0.047,0.322,-0.264,-0.426
157,0.01,-0.032,-0.012,0.077,-0.974,-0.048,0.322,-0.264,-0.426
158,0.012,-0.03,-0.013,0.078,-0.977,-0.049,0.307,-0.253,-0.417
159,0.014,-0.019,-0.014,0.076,-0.976,-0.045,0.316,-0.261,-0.436
160,0.018,-0.014,-0.015,0.072,-0.974,-0.039,0.318,-0.258,-0.403
161,0.021,-0.015,-0.016,0.075,-0.975,-0.039,0.304,-0.235,-0.397
162,0.021,-0.016,-0.014,0.077,-0.976,-0.038,0.303,-0.241,-0.42
163,0.027,-0.025,-0.01,0.079,-0.977,-0.037,0.316,-0.261,-0.415
164,0.036,-0.036,-0.003,0.081,-0.98,-0.037,0.316,-0.261,-0.415
165,0.044,-0.044,0.002,0.078,-0.984,-0.038,0.322,-0.246,-0.426
166,0.051,-0.042,0.008,0.075,-0.987,-0.036,0.309,-0.244,-0.42
167,0.054,-0.04,0.009,0.073,-0.988,-0.029,0.312,-0.247,-0.42
168,0.052,-0.034,0.006,0.067,-0.989,-0.024,0.315,-0.264,-0.403
169,0.049,-0.028,0.003,0.059,-0.986,-0.024,0.301,-0.247,-0.415
170,0.036,-0.017,-0.003,0.052,-0.977,-0.023,0.318,-0.256,-0.423
171,0.021,-0.023,-0.009,0.048,-0.968,-0.031,0.318,-0.256,-0.423
172,0.012,-0.028,-0.014,0.048,-0.963,-0.047,0.322,-0.259,-0.406
173,0.01,-0.014,-0.019,0.048,-0.963,-0.047,0.312,-0.256,-0.415
174,0.011,0.0,-0.019,0.055,-0.965,-0.05,0.325,-0.255,-0.412
175,0.017,-0.005,-0.011,0.08,-0.977,-0.041,0.31,-0.255,-0.403
176,0.017,-0.005,-0.011,0.08,-0.983,-0.046,0.304,-0.252,-0.418
177,0.018,-0.009,-0.009,0.074,-0.987,-0.052,0.304,-0.252,-0.418
178,0.02,-0.008,-0.008,0.064,-0.987,-0.057,0.33,-0.249,-0.411
179,0.022,-0.009,-0.009,0.056,-0.987,-0.061,0.31,-0.249,-0.409
180,0.023,-0.006,-0.01,0.051,-0.985,-0.056,0.316,-0.238,-0.408
181,0.023,-0.004,-0.011,0.048,-0.982,-0.05,0.298,-0.24,-0.412
182,0.02,-0.021,-0.011,0.043,-0.982,-0.053,0.319,-0.258,-0.397
183,0.018,-0.037,-0.01,0.04,-0.98,-0.058,0.316,-0.231,-0.421
184,0.018,-0.044,-0.009,0.044,-0.979,-0.062,0.316,-0.231,-0.421
185,0.022,-0.053,-0.007,0.051,-0.982,-0.068,0.321,-0.264,-0.411
186,0.024,-0.055,-0.006,0.053,-0.984,-0.073,0.322,-0.258,-0.421
187,0.022,-0.048,-0.007,0.053,-0.984,-0.069,0.315,-0.273,-0.414
188,0.016,-0.044,-0.007,0.055,-0.986,-0.061,0.307,-0.256,-0.411
189,0.011,-0.058,-0.006,0.058,-0.985,-0.061,0.309,-0.249,-0.414
190,0.007,-0.064,-0.004,0.061,-0.981,-0.065,0.319,-0.253,-0.409
191,0.005,-0.06,-0.004,0.066,-0.983,-0.071,0.319,-0.253,-0.409
192,0.005,-0.053,-0.003,0.066,-0.983,-0.071,0.288,-0.247,-0.415
193,0.007,-0.051,-0.002,0.07,-0.983,-0.074,0.313,-0.264,-0.4
194,0.008,-0.049,-0.004,0.071,-0.979,-0.071,0.312,-0.255,-0.421
195,0.008,-0.051,-0.005,0.068,-0.977,-0.067,0.309,-0.241,-0.402
196,0.008,-0.051,-0.005,0.065,-0.977,-0.065,0.304,-0.238,-0.429
197,0.007,-0.057,-0.006,0.063,-0.981,-0.058,0.31,-0.256,-0.415
198,0.007,-0.072,-0.002,0.061,-0.984,-0.054,0.31,-0.256,-0.415
199,0.009,-0.088,0.001,0.061,-0.99,-0.057,0.327,-0.259,-0.417
200,0.014,-0.093,0.004,0.059,-0.993,-0.062,0.307,-0.267,-0.432
201,0.014,-0.093,0.005,0.055,-0.989,-0.063,0.327,-0.246,-0.414
202,0.012,-0.09,0.004,0.055,-0.983,-0.06,0.289,-0.237,-0.411
203,0.007,-0.089,0.002,0.056,-0.974,-0.057,0.289,-0.237,-0.411
204,0.0,-0.083,0.0,0.059,-0.97,-0.055,0.316,-0.256,-0.414
205,-0.008,-0.075,-0.004,0.068,-0.971,-0.052,0.304,-0.237,-0.414
206,-0.014,-0.072,-0.004,0.073,-0.972,-0.054,0.304,-0.247,-0.402
207,-0.016,-0.066,-0.004,0.074,-0.972,-0.06,0.313,-0.253,-0.403
208,-0.012,-0.055,-0.006,0.079,-0.974,-0.058,0.298,-0.243,-0.415
209,-0.009,-0.031,-0.009,0.081,-0.977,-0.052,0.298,-0.243,-0.415
210,-0.004,-0.023,-0.008,0.082,-0.978,-0.05,0.309,-0.262,-0.406
211,0.002,-0.021,-0.008,0.081,-0.979,-0.048,0.309,-0.238,-0.409
212,0.008,-0.021,-0.008,0.081,-0.979,-0.048,0.303,-0.249,-0.415
213,0.013,-0.014,-0.009,0.081,-0.977,-0.048,0.301,-0.243,-0.411
214,0.015,-0.004,-0.011,0.075,-0.974,-0.05,0.301,-0.243,-0.417
215,0.015,-0.004,-0.011,0.072,-0.974,-0.05,0.301,-0.243,-0.417
216,0.014,0.006,-0.014,0.073,-0.975,-0.051,0.306,-0.24,-0.376
217,0.013,0.014,-0.017,0.077,-0.973,-0.051,0.306,-0.24,-0.376
218,0.013,0.019,-0.019,0.084,-0.973,-0.053,0.318,-0.246,-0.418
219,0.013,0.025,-0.018,0.087,-0.974,-0.056,0.295,-0.241,-0.402
220,0.014,0.032,-0.017,0.086,-0.976,-0.057,0.31,-0.252,-0.397
221,0.014,0.036,-0.016,0.08,-0.978,-0.057,0.31,-0.252,-0.397
222,0.013,0.038,-0.015,0.072,-0.978,-0.056,0.316,-0.237,-0.408
223,0.014,0.044,-0.015,0.067,-0.977,-0.056,0.309,-0.259,-0.417
224,0.012,0.039,-0.014,0.063,-0.974,-0.06,0.298,-0.241,-0.403
225,0.009,0.038,-0.012,0.06,-0.973,-0.061,0.303,-0.261,-0.403
226,0.007,0.038,-0.013,0.061,-0.972,-0.064,0.307,-0.255,-0.405
227,0.005,0.036,-0.014,0.06,-0.975,-0.065,0.307,-0.255,-0.405
228,0.002,0.032,-0.015,0.059,-0.983,-0.063,0.309,-0.247,-0.406
229,-0.008,0.034,-0.017,0.061,-0.982,-0.073,0.324,-0.244,-0.417
230,-0.008,0.03,-0.017,0.061,-0.982,-0.073,0.298,-0.241,-0.39
231,-0.003,0.01,-0.017,0.064,-0.983,-0.069,0.309,-0.256,-0.4
232,-0.004,0.01,-0.016,0.067,-0.987,-0.063,0.31,-0.243,-0.406
233,0.0,0.01,-0.011,0.071,-0.986,-0.07,0.31,-0.256,-0.405
234,0.004,0.004,-0.009,0.075,-0.986,-0.068,0.31,-0.256,-0.405
235,0.009,-0.002,-0.007,0.074,-0.984,-0.066,0.318,-0.241,-0.406
236,0.009,-0.002,-0.007,0.071,-0.979,-0.063,0.324,-0.24,-0.414
237,0.009,-0.004,-0.009,0.071,-0.978,-0.063,0.298,-0.249,-0.397
238,0.008,-0.004,-0.01,0.073,-0.98,-0.064,0.298,-0.249,-0.397
239,0.006,-0.003,-0.011,0.073,-0.98,-0.063,0.313,-0.259,-0.397
240,0.006,-0.003,-0.011,0.074,-0.979,-0.061,0.297,-0.256,-0.409
241,0.006,-0.001,-0.012,0.078,-0.978,-0.059,0.297,-0.256,-0.409
242,0.006,0.001,-0.012,0.08,-0.977,-0.057,0.31,-0.261,-0.405
243,0.002,0.008,-0.013,0.082,-0.978,-0.06,0.313,-0.253,-0.409
244,0.007,0.0,-0.011,0.083,-0.98,-0.059,0.301,-0.246,-0.406
245,0.007,0.004,-0.012,0.078,-0.981,-0.06,0.309,-0.225,-0.415
246,0.004,0.015,-0.013,0.073,-0.98,-0.064,0.342,-0.244,-0.399
247,0.003,0.018,-0.014,0.071,-0.976,-0.061,0.312,-0.244,-0.391
248,0.001,0.021,-0.016,0.069,-0.974,-0.062,0.312,-0.244,-0.391
249,0.0,0.022,-0.015,0.07,-0.976,-0.064,0.312,-0.253,-0.406
250,0.002,0.025,-0.013,0.075,-0.977,-0.065,0.313,-0.24,-0.408
251,0.003,0.031,-0.011,0.075,-0.977,-0.065,0.298,-0.262,-0.409
252,0.007,0.03,-0.009,0.075,-0.978,-0.066,0.301,-0.249,-0.426
253,0.006,0.036,-0.009,0.071,-0.979,-0.065,0.31,-0.259,-0.402
254,0.004,0.037,-0.011,0.066,-0.981,-0.064,0.31,-0.259,-0.402
255,0.0,0.032,-0.012,0.061,-0.98,-0.065,0.3,-0.244,-0.412
256,0.0,0.032,-0.012,0.056,-0.976,-0.067,0.307,-0.249,-0.43
257,0.0,0.032,-0.013,0.051,-0.976,-0.069,0.31,-0.258,-0.412
258,0.0,0.031,-0.016,0.05,-0.976,-0.068,0.304,-0.253,-0.411
259,0.0,0.035,-0.019,0.055,-0.98,-0.067,0.306,-0.246,-0.399
260,0.002,0.035,-0.02,0.062,-0.98,-0.067,0.315,-0.252,-0.43
261,0.006,0.029,-0.017,0.065,-0.98,-0.071,0.315,-0.252,-0.43
262,0.008,0.029,-0.014,0.066,-0.982,-0.074,0.315,-0.247,-0.411
263,0.008,0.034,-0.013,0.064,-0.982,-0.071,0.297,-0.237,-0.418
264,0.007,0.034,-0.013,0.059,-0.984,-0.069,0.306,-0.238,-0.409
265,0.007,0.035,-0.014,0.058,-0.982,-0.065,0.301,-0.225,-0.399
266,0.006,0.029,-0.014,0.061,-0.979,-0.06,0.307,-0.25,-0.417
267,0.004,0.018,-0.013,0.061,-0.978,-0.061,0.304,-0.256,-0.394
268,0.002,0.014,-0.013,0.064,-0.98,-0.064,0.304,-0.256,-0.394
269,0.002,0.009,-0.011,0.068,-0.98,-0.065,0.309,-0.252,-0.414
270,0.003,0.006,-0.01,0.07,-0.979,-0.064,0.321,-0.234,-0.412
271,0.004,0.002,-0.009,0.07,-0.979,-0.064,0.309,-0.243,-0.415
272,0.004,-0.001,-0.008,0.07,-0.98,-0.067,0.288,-0.247,-0.391
273,0.003,-0.004,-0.007,0.071,-0.98,-0.07,0.324,-0.259,-0.417
274,0.003,-0.004,-0.007,0.073,-0.979,-0.072,0.324,-0.259,-0.417
275,0.002,0.0,-0.008,0.075,-0.979,-0.075,0.301,-0.265,-0.424
276,0.002,0.0,-0.008,0.075,-0.982,-0.074,0.304,-0.261,-0.406
277,0.002,0.009,-0.009,0.071,-0.983,-0.071,0.322,-0.24,-0.393
278,0.001,0.012,-0.011,0.071,-0.981,-0.065,0.304,-0.247,-0.42
279,0.002,0.005,-0.011,0.073,-0.979,-0.058,0.312,-0.253,-0.412
280,0.0,-0.004,-0.011,0.073,-0.978,-0.06,0.312,-0.253,-0.412
281,0.002,-0.009,-0.01,0.073,-0.978,-0.064,0.303,-0.261,-0.408
282,0.007,-0.009,-0.009,0.077,-0.979,-0.065,0.297,-0.238,-0.405
283,0.01,-0.01,-0.006,0.079,-0.981,-0.067,0.303,-0.25,-0.418
284,0.012,-0.006,-0.007,0.077,-0.978,-0.066,0.309,-0.253,-0.411
285,0.011,-0.004,-0.007,0.077,-0.977,-0.062,0.319,-0.249,-0.396
286,0.009,0.0,-0.008,0.078,-0.978,-0.059,0.319,-0.249,-0.396
287,0.007,-0.004,-0.008,0.078,-0.976,-0.061,0.312,-0.24,-0.394
288,0.007,-0.004,-0.009,0.078,-0.975,-0.061,0.292,-0.252,-0.417
289,0.006,0.0,-0.009,0.081,-0.975,-0.059,0.312,-0.259,-0.397
290,0.005,0.002,-0.007,0.083,-0.975,-0.058,0.309,-0.235,-0.412
291,0.005,0.0,-0.004,0.083,-0.975,-0.058,0.316,-0.246,-0.391
292,0.007,-0.004,-0.003,0.081,-0.977,-0.059,0.316,-0.246,-0.391
293,0.006,-0.005,-0.004,0.077,-0.978,-0.061,0.318,-0.249,-0.4
294,0.007,-0.003,-0.004,0.076,-0.977,-0.061,0.31,-0.243,-0.412
295,0.007,0.175,-0.004,0.075,-0.979,-0.061,0.306,-0.228,-0.409
296,0.005,0.0,-0.004,0.076,-0.981,-0.061,0.319,-0.256,-0.405
297,0.005,0.002,-0.005,0.076,-0.981,-0.06,0.307,-0.237,-0.421
298,0.004,0.004,-0.007,0.073,-0.98,-0.06,0.307,-0.237,-0.421
299,0.003,0.002,-0.009,0.072,-0.977,-0.062,0.307,-0.253,-0.408
300,0.002,0.008,-0.011,0.073,-0.974,-0.066,0.315,-0.237,-0.399
301,0.003,-0.002,-0.009,0.074,-0.973,-0.066,0.307,-0.244,-0.408
302,0.004,-0.008,-0.008,0.076,-0.973,-0.065,0.3,-0.246,-0.382
303,0.007,-0.009,-0.007,0.078,-0.976,-0.066,0.316,-0.244,-0.402
304,0.005,-0.005,-0.006,0.079,-0.979,-0.064,0.301,-0.25,-0.417
305,0.006,-0.006,-0.004,0.079,-0.98,-0.06,0.301,-0.25,-0.417
306,0.006,-0.007,-0.003,0.076,-0.98,-0.06,0.318,-0.255,-0.408
307,0.007,-0.009,-0.004,0.073,-0.982,-0.064,0.297,-0.238,-0.412
308,0.006,-0.009,-0.005,0.074,-0.982,-0.064,0.297,-0.238,-0.412
309,0.003,-0.011,-0.006,0.076,-0.977,-0.063,0.31,-0.244,-0.409
310,0.002,-0.013,-0.006,0.076,-0.977,-0.063,0.301,-0.247,-0.411
311,0.002,-0.018,-0.006,0.078,-0.976,-0.062,0.312,-0.253,-0.406
312,0.002,-0.016,-0.004,0.081,-0.976,-0.062,0.312,-0.253,-0.406
313,0.0,-0.007,-0.004,0.082,-0.976,-0.067,0.3,-0.25,-0.409
314,0.0,0.001,-0.004,0.081,-0.981,-0.068,0.306,-0.261,-0.408
315,0.0,0.001,-0.004,0.081,-0.98,-0.063,0.298,-0.241,-0.409
316,0.0,0.002,-0.004,0.083,-0.975,-0.057,0.288,-0.256,-0.405
317,-0.004,0.001,-0.003,0.081,-0.976,-0.057,0.306,-0.252,-0.409
318,-0.004,-0.001,-0.004,0.076,-0.976,-0.058,0.312,-0.253,-0.405
319,-0.002,-0.002,-0.004,0.076,-0.973,-0.059,0.312,-0.253,-0.405
320,0.0,-0.007,-0.004,0.079,-0.974,-0.06,0.321,-0.249,-0.405
321,-0.002,-0.004,-0.005,0.079,-0.974,-0.062,0.312,-0.258,-0.388
322,0.002,-0.012,-0.004,0.077,-0.973,-0.062,0.312,-0.258,-0.388
323,0.004,-0.014,-0.003,0.076,-0.972,-0.065,0.283,-0.255,-0.403
324,0.008,-0.009,-0.002,0.077,-0.973,-0.067,0.316,-0.25,-0.384
325,0.011,-0.002,-0.002,0.078,-0.977,-0.068,0.319,-0.24,-0.417
326,0.014,0.001,-0.002,0.08,-0.977,-0.066,0.319,-0.24,-0.417
327,0.014,0.002,-0.003,0.082,-0.976,-0.062,0.303,-0.247,-0.399
328,0.015,0.001,-0.003,0.079,-0.975,-0.064,0.298,-0.237,-0.393
329,0.015,0.0,-0.005,0.075,-0.975,-0.066,0.288,-0.241,-0.406
330,0.015,0.001,-0.008,0.075,-0.975,-0.066,0.307,-0.256,-0.406
331,0.016,0.002,-0.007,0.073,-0.975,-0.067,0.304,-0.249,-0.42
332,0.017,0.003,-0.006,0.074,-0.974,-0.07,0.294,-0.259,-0.397
333,0.016,0.009,-0.006,0.073,-0.975,-0.072,0.294,-0.259,-0.397
334,0.014,0.014,-0.006,0.072,-0.977,-0.071,0.304,-0.249,-0.406
335,0.014,0.014,-0.006,0.076,-0.976,-0.069,0.3,-0.214,-0.393
336,0.013,0.013,-0.004,0.08,-0.976,-0.071,0.3,-0.214,-0.393
337,0.015,0.013,-0.005,0.076,-0.976,-0.077,0.318,-0.241,-0.415
338,0.016,0.02,-0.006,0.076,-0.976,-0.079,0.313,-0.244,-0.408
339,0.018,0.026,-0.005,0.079,-0.975,-0.079,0.322,-0.235,-0.409
340,0.02,0.029,-0.005,0.08,-0.973,-0.077,0.322,-0.235,-0.409
341,0.019,0.03,-0.004,0.078,-0.972,-0.075,0.31,-0.244,-0.399
342,0.017,0.025,-0.003,0.075,-0.97,-0.077,0.298,-0.247,-0.406
343,0.016,0.028,-0.004,0.074,-0.969,-0.082,0.298,-0.247,-0.406
344,0.016,0.031,-0.003,0.074,-0.971,-0.085,0.307,-0.252,-0.382
345,0.019,0.038,0.0,0.075,-0.97,-0.079,0.291,-0.247,-0.405
346,0.021,0.045,0.0,0.077,-0.973,-0.074,0.291,-0.247,-0.405
347,0.023,0.048,0.003,0.08,-0.98,-0.073,0.31,-0.252,-0.417
348,0.024,0.058,0.005,0.075,-0.984,-0.073,0.298,-0.25,-0.403
349,0.027,0.069,0.005,0.069,-0.982,-0.075,0.3,-0.241,-0.4
350,0.028,0.061,0.008,0.069,-0.982,-0.075,0.289,-0.246,-0.402
351,0.03,0.05,0.01,0.067,-0.977,-0.076,0.297,-0.249,-0.405
352,0.027,0.042,0.008,0.064,-0.97,-0.075,0.303,-0.225,-0.424
353,0.021,0.04,0.005,0.063,-0.97,-0.074,0.303,-0.225,-0.424
354,0.016,0.043,0.004,0.064,-0.971,-0.073,0.304,-0.264,-0.4
355,0.016,0.043,0.004,0.068,-0.972,-0.074,0.315,-0.234,-0.408
356,0.016,0.044,0.007,0.073,-0.978,-0.071,0.289,-0.243,-0.402
357,0.016,0.047,0.007,0.075,-0.983,-0.072,0.289,-0.243,-0.402
358,0.018,0.053,0.008,0.077,-0.987,-0.073,0.321,-0.264,-0.4
359,0.022,0.058,0.009,0.077,-0.987,-0.071,0.307,-0.256,-0.397
360,0.027,0.061,0.011,0.071,-0.983,-0.071,0.307,-0.256,-0.397
361,0.03,0.06,0.011,0.065,-0.975,-0.066,0.288,-0.247,-0.423
362,0.032,0.063,0.01,0.068,-0.97,-0.065,0.298,-0.24,-0.402
363,0.029,0.06,0.011,0.074,-0.969,-0.07,0.303,-0.249,-0.397
364,0.031,0.058,0.014,0.076,-0.967,-0.078,0.3,-0.234,-0.412
365,0.035,0.057,0.018,0.076,-0.965,-0.084,0.319,-0.253,-0.403
366,0.036,0.058,0.021,0.077,-0.963,-0.085,0.298,-0.255,-0.394
367,0.033,0.06,0.024,0.073,-0.961,-0.077,0.298,-0.255,-0.394
368,0.028,0.069,0.025,0.071,-0.965,-0.065,0.285,-0.249,-0.421
369,0.025,0.082,0.025,0.072,-0.978,-0.053,0.301,-0.252,-0.417
370,0.029,0.086,0.027,0.072,-0.978,-0.053,0.288,-0.231,-0.378
371,0.032,0.089,0.03,0.073,-0.984,-0.046,0.291,-0.225,-0.409
372,0.039,0.072,0.036,0.077,-0.986,-0.044,0.288,-0.256,-0.414
373,0.044,0.051,0.041,0.081,-0.983,-0.051,0.295,-0.238,-0.397
374,0.044,0.051,0.041,0.079,-0.972,-0.064,0.295,-0.238,-0.397
375,0.048,0.045,0.043,0.071,-0.963,-0.075,0.307,-0.252,-0.412
376,0.049,0.054,0.042,0.067,-0.962,-0.078,0.313,-0.228,-0.4
377,0.051,0.074,0.041,0.068,-0.968,-0.07,0.306,-0.265,-0.414
378,0.053,0.091,0.042,0.076,-0.971,-0.053,0.298,-0.249,-0.391
379,0.063,0.084,0.042,0.088,-0.968,-0.048,0.286,-0.24,-0.393
380,0.068,0.06,0.046,0.092,-0.965,-0.051,0.283,-0.237,-0.405
381,0.069,0.047,0.049,0.087,-0.962,-0.054,0.283,-0.237,-0.405
382,0.07,0.042,0.049,0.082,-0.953,-0.049,0.301,-0.234,-0.415
383,0.074,0.037,0.045,0.082,-0.948,-0.042,0.303,-0.231,-0.397
384,0.088,0.016,0.045,0.096,-0.954,-0.048,0.303,-0.261,-0.399
385,0.109,-0.008,0.046,0.115,-0.967,-0.063,0.286,-0.226,-0.397
386,0.118,-0.039,0.045,0.115,-0.976,-0.064,0.301,-0.244,-0.411
387,0.118,-0.043,0.042,0.106,-0.968,-0.085,0.292,-0.241,-0.391
388,0.093,-0.022,0.025,0.103,-0.965,-0.097,0.292,-0.241,-0.391
389,0.082,-0.042,0.025,0.086,-0.975,-0.061,0.303,-0.25,-0.4
390,0.074,-0.072,0.021,0.086,-0.975,-0.061,0.295,-0.234,-0.399
391,0.067,-0.071,0.014,0.065,-0.973,-0.039,0.276,-0.225,-0.393
392,0.056,-0.056,0.009,0.064,-0.966,-0.055,0.276,-0.225,-0.393
393,0.056,-0.056,0.009,0.072,-0.965,-0.062,0.295,-0.238,-0.381
394,0.049,-0.043,0.014,0.083,-0.954,-0.064,0.298,-0.237,-0.397
395,0.045,-0.088,0.014,0.08,-0.936,-0.034,0.298,-0.237,-0.397
396,0.053,-0.131,0.007,0.079,-0.937,-0.018,0.3,-0.243,-0.391
397,0.04,-0.16,0.0,0.089,-0.948,-0.021,0.297,-0.244,-0.384
398,0.032,-0.184,-0.008,0.106,-0.943,-0.009,0.282,-0.226,-0.402
399,0.006,-0.222,-0.019,0.155,-0.944,-0.035,0.286,-0.223,-0.39
400,0.006,-0.231,-0.024,0.214,-0.963,-0.072,0.306,-0.244,-0.379
401,0.008,-0.253,-0.007,0.254,-0.991,-0.089,0.301,-0.24,-0.399
402,0.031,-0.249,0.021,0.269,-0.999,-0.1,0.301,-0.24,-0.399
403,0.046,-0.261,0.064,0.278,-1.012,-0.108,0.288,-0.241,-0.391
404,0.048,-0.274,0.088,0.276,-1.031,-0.08,0.309,-0.241,-0.39
405,0.023,-0.268,0.082,0.255,-1.02,-0.057,0.28,-0.244,-0.364
406,-0.004,-0.205,0.051,0.221,-0.992,-0.061,0.286,-0.22,-0.373
407,0.004,-0.118,0.018,0.191,-0.973,-0.049,0.298,-0.241,-0.382
408,0.006,-0.086,0.002,0.175,-0.951,-0.022,0.297,-0.234,-0.367
409,0.013,-0.113,-0.007,0.15,-0.921,-0.022,0.297,-0.234,-0.367
410,0.057,-0.168,-0.003,0.15,-0.921,-0.022,0.271,-0.24,-0.37
411,0.097,-0.249,0.004,0.115,-0.93,-0.009,0.291,-0.243,-0.385
412,0.112,-0.331,0.002,0.129,-0.954,-0.063,0.276,-0.216,-0.399
413,0.145,-0.347,0.014,0.129,-0.954,-0.063,0.276,-0.216,-0.399
414,0.145,-0.347,0.014,0.115,-0.994,-0.086,0.292,-0.225,-0.376
415,0.157,-0.306,0.028,0.142,-0.998,-0.116,0.274,-0.231,-0.355
416,0.14,-0.244,0.039,0.162,-0.986,-0.126,0.274,-0.231,-0.355
417,0.13,-0.196,0.049,0.173,-0.977,-0.111,0.277,-0.223,-0.361
418,0.116,-0.186,0.055,0.191,-0.963,-0.109,0.277,-0.235,-0.361
419,0.126,-0.197,0.066,0.178,-0.959,-0.088,0.28,-0.22,-0.345
420,0.107,-0.157,0.037,0.173,-0.94,-0.132,0.268,-0.232,-0.355
421,0.086,-0.107,0.014,0.192,-0.921,-0.169,0.282,-0.225,-0.369
422,0.074,-0.086,0.001,0.189,-0.932,-0.122,0.282,-0.225,-0.369
423,0.058,-0.07,-0.007,0.191,-0.941,-0.109,0.268,-0.241,-0.348
424,0.043,-0.051,-0.013,0.199,-0.945,-0.107,0.27,-0.237,-0.343
425,0.039,-0.039,-0.012,0.199,-0.958,-0.094,0.282,-0.259,-0.367
426,0.033,-0.039,-0.011,0.189,-0.983,-0.069,0.271,-0.241,-0.343
427,0.024,-0.051,-0.013,0.177,-0.992,-0.05,0.276,-0.216,-0.351
428,0.031,-0.081,-0.016,0.16,-0.992,-0.055,0.28,-0.222,-0.349
429,0.046,-0.109,-0.023,0.16,-0.987,-0.055,0.28,-0.222,-0.349
430,0.057,-0.125,-0.038,0.145,-0.987,-0.066,0.295,-0.219,-0.357
431,0.063,-0.132,-0.053,0.144,-0.976,-0.067,0.276,-0.222,-0.354
432,0.067,-0.121,-0.067,0.148,-0.968,-0.089,0.288,-0.24,-0.351
433,0.062,-0.102,-0.077,0.15,-0.964,-0.119,0.274,-0.234,-0.367
434,0.062,-0.102,-0.077,0.161,-0.973,-0.114,0.282,-0.234,-0.358
435,0.083,-0.098,-0.081,0.166,-0.978,-0.108,0.297,-0.244,-0.364
436,0.089,-0.09,-0.083,0.161,-0.981,-0.099,0.297,-0.244,-0.364
437,0.088,-0.079,-0.084,0.158,-0.997,-0.064,0.259,-0.246,-0.364
438,0.094,-0.086,-0.084,0.16,-0.999,-0.056,0.279,-0.238,-0.357
439,0.1,-0.076,-0.088,0.166,-0.992,-0.058,0.271,-0.243,-0.358
440,0.105,-0.08,-0.087,0.176,-0.997,-0.034,0.265,-0.223,-0.339
441,0.113,-0.114,-0.086,0.191,-1.003,-0.024,0.271,-0.244,-0.354
442,0.123,-0.147,-0.084,0.204,-1.006,-0.044,0.288,-0.238,-0.342
443,0.125,-0.163,-0.088,0.207,-1.002,-0.068,0.288,-0.238,-0.342
444,0.118,-0.158,-0.098,0.208,-0.994,-0.077,0.271,-0.238,-0.334
445,0.115,-0.14,-0.105,0.213,-0.98,-0.088,0.274,-0.238,-0.352
446,0.103,-0.103,-0.115,0.214,-0.968,-0.097,0.274,-0.244,-0.346
447,0.085,-0.082,-0.126,0.209,-0.964,-0.084,0.277,-0.238,-0.328
448,0.074,-0.069,-0.133,0.209,-0.964,-0.084,0.277,-0.238,-0.328
449,0.07,-0.07,-0.136,0.214,-0.965,-0.073,0.258,-0.24,-0.321
450,0.07,-0.091,-0.135,0.222,-0.972,-0.066,0.258,-0.24,-0.321
451,0.075,-0.128,-0.135,0.223,-0.973,-0.062,0.268,-0.246,-0.337
452,0.089,-0.159,-0.14,0.208,-0.962,-0.061,0.286,-0.241,-0.333
453,0.105,-0.171,-0.146,0.183,-0.95,-0.065,0.28,-0.247,-0.321
454,0.105,-0.171,-0.146,0.168,-0.942,-0.081,0.273,-0.25,-0.316
455,0.121,-0.173,-0.154,0.159,-0.936,-0.081,0.273,-0.25,-0.316
456,0.135,-0.167,-0.165,0.158,-0.928,-0.061,0.285,-0.249,-0.321
457,0.131,-0.156,-0.175,0.165,-0.911,-0.05,0.292,-0.241,-0.339
458,0.121,-0.135,-0.184,0.174,-0.889,-0.061,0.28,-0.252,-0.328
459,0.112,-0.117,-0.196,0.187,-0.887,-0.076,0.28,-0.256,-0.316
460,0.116,-0.102,-0.203,0.194,-0.893,-0.08,0.276,-0.261,-0.322
461,0.135,-0.101,-0.211,0.195,-0.903,-0.066,0.28,-0.253,-0.315
462,0.155,-0.102,-0.216,0.192,-0.919,-0.055,0.28,-0.253,-0.315
463,0.172,-0.11,-0.221,0.183,-0.929,-0.035,0.285,-0.258,-0.325
464,0.183,-0.124,-0.229,0.177,-0.937,-0.017,0.301,-0.27,-0.327
465,0.189,-0.138,-0.243,0.172,-0.935,-0.018,0.3,-0.268,-0.303
466,0.183,-0.14,-0.255,0.163,-0.927,-0.027,0.297,-0.25,-0.307
467,0.172,-0.123,-0.269,0.163,-0.934,-0.029,0.294,-0.256,-0.318
468,0.162,-0.102,-0.28,0.172,-0.964,0.003,0.294,-0.256,-0.318
469,0.149,-0.107,-0.289,0.172,-0.964,0.003,0.297,-0.264,-0.295
470,0.125,-0.137,-0.294,0.18,-0.997,0.054,0.307,-0.259,-0.315
471,0.092,-0.165,-0.293,0.196,-1.032,0.092,0.292,-0.27,-0.319
472,0.044,-0.178,-0.288,0.234,-1.071,0.111,0.3,-0.256,-0.315
473,0.044,-0.178,-0.288,0.28,-1.113,0.119,0.303,-0.276,-0.295
474,-0.019,-0.182,-0.277,0.32,-1.163,0.118,0.303,-0.276,-0.295
475,-0.1,-0.162,-0.259,0.366,-1.207,0.076,0.316,-0.27,-0.307
476,-0.188,-0.088,-0.22,0.425,-1.243,-0.003,0.316,-0.27,-0.307
477,-0.277,0.049,-0.16,0.485,-1.27,-0.067,0.319,-0.283,-0.315
478,-0.394,0.266,-0.08,0.51,-1.286,-0.084,0.306,-0.276,-0.325
479,-0.462,0.324,-0.044,0.366,-1.266,-0.088,0.309,-0.268,-0.318
480,-0.524,0.359,-0.008,0.183,-1.258,-0.095,0.309,-0.268,-0.318
481,-0.628,0.522,0.036,0.078,-1.257,-0.059,0.292,-0.274,-0.337
482,-0.753,0.663,0.064,-0.021,-1.235,0.011,0.309,-0.268,-0.349
483,-0.928,0.705,0.069,-0.087,-1.216,0.069,0.309,-0.268,-0.349
484,-1.117,0.683,0.054,-0.113,-1.204,0.108,0.31,-0.256,-0.352
485,-1.293,0.584,0.049,-0.102,-1.204,0.112,0.301,-0.247,-0.372
486,-1.41,0.44,0.079,-0.101,-1.174,0.084,0.301,-0.247,-0.372
487,-1.448,0.303,0.105,-0.093,-1.134,-0.002,0.313,-0.249,-0.396
488,-1.379,0.216,0.138,-0.075,-1.134,-0.049,0.3,-0.243,-0.39
489,-1.315,-0.061,0.188,-0.075,-1.134,-0.049,0.3,-0.256,-0.426
490,-1.255,-0.429,0.231,-0.077,-1.17,0.024,0.294,-0.231,-0.442
491,-1.169,-0.664,0.313,-0.065,-1.223,0.044,0.324,-0.238,-0.453
492,-1.09,-0.831,0.352,-0.06,-1.23,-0.018,0.3,-0.237,-0.453
493,-1.09,-0.831,0.352,-0.09,-1.166,-0.08,0.3,-0.237,-0.453
494,-1.009,-0.847,0.413,-0.057,-1.137,-0.159,0.303,-0.231,-0.468
495,-0.963,-0.707,0.442,0.002,-1.111,-0.195,0.298,-0.222,-0.457
496,-0.978,-0.481,0.426,0.041,-1.086,-0.235,0.268,-0.196,-0.453
497,-0.905,0.016,0.44,0.119,-1.07,-0.377,0.268,-0.196,-0.453
498,-0.707,0.599,0.504,0.188,-1.073,-0.342,0.27,-0.196,-0.475
499,-0.641,0.896,0.611,0.264,-1.149,-0.132,0.279,-0.183,-0.492
500,-0.721,1.092,0.654,0.292,-1.153,-0.055,0.279,-0.183,-0.492
501,-0.79,1.205,0.647,0.24,-1.101,-0.056,0.267,-0.204,-0.492
502,-0.841,1.141,0.651,0.216,-1.066,-0.033,0.28,-0.205,-0.501
503,-0.844,1.097,0.668,0.171,-1.016,-0.013,0.285,-0.16,-0.526
504,-0.814,1.115,0.661,0.089,-0.956,-0.031,0.276,-0.159,-0.546
505,-0.77,1.181,0.649,0.028,-0.901,-0.03,0.259,-0.163,-0.544
506,-0.743,1.145,0.632,-0.003,-0.88,-0.01,0.291,-0.154,-0.553
507,-0.634,1.296,0.651,-0.011,-0.893,-0.03,0.291,-0.154,-0.553
508,-0.613,1.438,0.646,0.004,-0.907,-0.042,0.277,-0.145,-0.579
509,-0.67,1.502,0.584,0.004,-0.907,-0.042,0.277,-0.133,-0.583
510,-0.671,1.576,0.522,0.029,-0.913,-0.038,0.282,-0.133,-0.591
511,-0.655,1.633,0.466,-0.001,-0.912,-0.007,0.301,-0.085,-0.625
512,-0.691,1.668,0.394,-0.041,-0.893,0.049,0.315,-0.111,-0.622
513,-0.691,1.668,0.394,-0.085,-0.854,0.12,0.304,-0.12,-0.63
514,-0.658,1.565,0.364,-0.126,-0.795,0.216,0.304,-0.12,-0.63
515,-0.58,1.376,0.345,-0.114,-0.737,0.267,0.309,-0.109,-0.645
516,-0.541,1.169,0.308,-0.12,-0.693,0.261,0.331,-0.099,-0.63
517,-0.504,1.051,0.277,-0.144,-0.672,0.277,0.343,-0.079,-0.648
518,-0.403,0.964,0.27,-0.053,-0.665,0.242,0.334,-0.078,-0.657
519,-0.332,0.926,0.27,0.038,-0.679,0.186,0.349,-0.076,-0.661
520,-0.263,0.898,0.292,0.067,-0.713,0.194,0.333,-0.075,-0.685
521,-0.168,0.832,0.312,0.107,-0.72,0.178,0.333,-0.075,-0.685
522,-0.076,0.772,0.321,0.106,-0.693,0.17,0.357,-0.069,-0.691
523,0.004,0.735,0.308,0.084,-0.656,0.19,0.37,-0.06,-0.675
524,0.076,0.702,0.28,0.066,-0.645,0.219,0.361,-0.076,-0.673
525,0.173,0.623,0.257,0.043,-0.621,0.264,0.369,-0.084,-0.679
526,0.298,0.506,0.242,0.004,-0.575,0.309,0.372,-0.073,-0.69
527,0.408,0.394,0.215,-0.011,-0.539,0.347,0.378,-0.058,-0.706
528,0.49,0.301,0.19,-0.011,-0.539,0.347,0.378,-0.058,-0.706
529,0.558,0.217,0.172,-0.007,-0.528,0.396,0.373,-0.07,-0.69
530,0.615,0.142,0.145,-0.015,-0.528,0.43,0.373,-0.072,-0.678
531,0.67,0.048,0.106,0.04,-0.57,0.418,0.39,-0.072,-0.678
532,0.67,0.048,0.106,0.072,-0.642,0.426,0.378,-0.085,-0.661
533,0.669,0.014,0.1,0.108,-0.717,0.443,0.378,-0.085,-0.661
534,0.66,-0.004,0.109,0.157,-0.833,0.488,0.375,-0.09,-0.676
535,0.634,0.024,0.125,0.195,-0.898,0.543,0.385,-0.108,-0.675
536,0.606,0.056,0.161,0.214,-0.886,0.585,0.39,-0.1,-0.664
537,0.573,0.058,0.224,0.26,-0.935,0.693,0.367,-0.108,-0.649
538,0.475,0.031,0.214,0.28,-1.039,0.738,0.381,-0.108,-0.658
539,0.279,0.01,0.178,0.325,-1.196,0.751,0.381,-0.108,-0.658
540,0.037,0.018,0.14,0.36,-1.358,0.704,0.375,-0.088,-0.663
541,-0.163,0.045,0.108,0.347,-1.465,0.649,0.393,-0.088,-0.658
542,-0.308,0.209,0.075,0.296,-1.489,0.693,0.369,-0.105,-0.664
543,-0.39,0.513,0.039,0.159,-1.219,0.736,0.363,-0.091,-0.67
544,-0.359,0.77,-0.007,-0.036,-0.775,0.693,0.387,-0.102,-0.658
545,-0.197,0.825,-0.032,-0.191,-0.526,0.597,0.397,-0.075,-0.682
546,-0.002,0.744,-0.056,-0.191,-0.526,0.597,0.397,-0.075,-0.682
547,0.14,0.54,-0.028,-0.247,-0.533,0.467,0.417,-0.079,-0.678
548,0.169,0.254,0.016,-0.194,-0.77,0.371,0.405,-0.091,-0.672
549,0.082,-0.019,0.005,-0.134,-1.12,0.307,0.433,-0.078,-0.675
550,-0.1,-0.209,-0.081,-0.134,-1.468,0.266,0.399,-0.085,-0.66
551,-0.1,-0.209,-0.081,-0.131,-1.7,0.265,0.4,-0.079,-0.664
552,-0.231,-0.311,-0.161,-0.086,-1.666,0.276,0.426,-0.081,-0.675
553,-0.245,-0.376,-0.204,-0.089,-1.343,0.249,0.426,-0.081,-0.675
554,-0.158,-0.505,-0.216,-0.147,-0.931,0.137,0.411,-0.069,-0.666
555,0.044,-0.808,-0.205,-0.21,-0.624,-0.089,0.403,-0.093,-0.681
556,0.287,-1.11,-0.206,-0.248,-0.492,-0.262,0.39,-0.073,-0.657
557,0.448,-1.227,-0.23,-0.228,-0.513,-0.203,0.391,-0.078,-0.645
558,0.448,-1.166,-0.27,-0.118,-0.673,-0.019,0.388,-0.084,-0.646
559,0.401,-1.168,-0.304,0.072,-0.856,0.045,0.399,-0.091,-0.642
560,0.419,-1.335,-0.329,0.288,-0.995,-0.09,0.399,-0.091,-0.642
561,0.499,-1.507,-0.284,0.477,-1.142,-0.279,0.39,-0.082,-0.645
562,0.59,-1.594,-0.172,0.569,-1.215,-0.367,0.393,-0.072,-0.616
563,0.628,-1.475,-0.102,0.573,-1.216,-0.332,0.366,-0.082,-0.627
564,0.661,-1.313,-0.001,0.488,-1.166,-0.209,0.343,-0.076,-0.597
565,0.671,-1.195,0.057,0.488,-1.166,-0.209,0.354,-0.12,-0.592
566,0.65,-1.121,0.032,0.315,-1.023,-0.033,0.333,-0.105,-0.606
567,0.664,-1.087,-0.018,0.137,-0.849,0.096,0.333,-0.105,-0.606
568,0.671,-1.018,-0.093,0.007,-0.748,0.151,0.334,-0.105,-0.586
569,0.721,-1.045,-0.121,-0.037,-0.717,0.1,0.339,-0.112,-0.555
570,0.756,-1.134,-0.158,-0.038,-0.744,0.057,0.334,-0.105,-0.583
571,0.756,-1.134,-0.158,-0.027,-0.823,0.045,0.328,-0.112,-0.546
572,0.781,-1.192,-0.151,0.036,-0.899,0.002,0.322,-0.106,-0.547
573,0.812,-1.271,-0.135,0.138,-0.903,-0.083,0.33,-0.112,-0.559
574,0.816,-1.266,-0.13,0.249,-0.948,-0.206,0.33,-0.112,-0.559
575,0.846,-1.087,-0.086,0.374,-1.028,-0.192,0.316,-0.13,-0.546
576,0.722,-0.998,-0.1,0.404,-1.009,-0.137,0.327,-0.109,-0.52
577,0.666,-0.836,-0.072,0.354,-0.997,-0.071,0.31,-0.118,-0.496
578,0.615,-0.709,-0.085,0.328,-0.971,-0.071,0.298,-0.114,-0.477
579,0.651,-0.564,-0.057,0.299,-0.935,-0.1,0.303,-0.139,-0.489
580,0.643,-0.531,-0.053,0.242,-0.895,-0.088,0.312,-0.132,-0.498
581,0.578,-0.495,-0.096,0.186,-0.861,-0.091,0.312,-0.132,-0.498
582,0.499,-0.443,-0.14,0.164,-0.888,-0.068,0.298,-0.129,-0.49
583,0.457,-0.389,-0.145,0.169,-0.938,-0.034,0.3,-0.129,-0.462
584,0.408,-0.386,-0.173,0.144,-0.939,0.039,0.297,-0.121,-0.477
585,0.291,-0.289,-0.223,0.161,-0.934,0.04,0.304,-0.132,-0.471
586,0.219,-0.297,-0.261,0.161,-0.934,0.04,0.298,-0.12,-0.45
587,0.193,-0.337,-0.247,0.233,-0.968,0.022,0.303,-0.127,-0.472
588,0.214,-0.352,-0.228,0.254,-0.975,0.025,0.303,-0.127,-0.472
589,0.26,-0.331,-0.218,0.262,-0.966,-0.02,0.321,-0.141,-0.435
590,0.301,-0.326,-0.22,0.242,-0.945,-0.054,0.309,-0.145,-0.435
591,0.301,-0.326,-0.22,0.216,-0.925,-0.058,0.312,-0.142,-0.438
592,0.319,-0.336,-0.234,0.206,-0.926,-0.057,0.303,-0.13,-0.436
593,0.328,-0.35,-0.255,0.183,-0.929,-0.05,0.303,-0.13,-0.436
594,0.378,-0.328,-0.273,0.154,-0.899,-0.054,0.309,-0.139,-0.445
595,0.396,-0.287,-0.305,0.13,-0.876,-0.063,0.319,-0.138,-0.447
596,0.4,-0.263,-0.335,0.117,-0.883,-0.067,0.309,-0.147,-0.447
597,0.418,-0.229,-0.358,0.124,-0.88,-0.089,0.33,-0.154,-0.423
598,0.464,-0.208,-0.368,0.14,-0.866,-0.078,0.325,-0.145,-0.409
599,0.513,-0.224,-0.375,0.149,-0.867,-0.03,0.325,-0.145,-0.409
600,0.56,-0.263,-0.384,0.167,-0.894,0.009,0.318,-0.159,-0.406
601,0.59,-0.323,-0.382,0.201,-0.926,0.03,0.312,-0.136,-0.396
602,0.588,-0.392,-0.366,0.228,-0.933,0.021,0.321,-0.154,-0.396
603,0.557,-0.431,-0.369,0.238,-0.918,0.002,0.312,-0.165,-0.403
604,0.481,-0.426,-0.38,0.241,-0.904,-0.019,0.301,-0.168,-0.391
605,0.418,-0.41,-0.387,0.24,-0.938,-0.032,0.301,-0.168,-0.391
606,0.346,-0.385,-0.379,0.24,-0.938,-0.032,0.328,-0.148,-0.381
607,0.278,-0.359,-0.343,0.235,-1.004,-0.028,0.325,-0.144,-0.355
608,0.213,-0.357,-0.309,0.21,-1.065,0.009,0.331,-0.154,-0.358
609,0.119,-0.364,-0.282,0.205,-1.123,0.058,0.34,-0.15,-0.358
610,0.119,-0.364,-0.282,0.224,-1.147,0.052,0.34,-0.154,-0.36
611,0.041,-0.347,-0.252,0.229,-1.122,0.008,0.34,-0.154,-0.36
612,0.023,-0.322,-0.215,0.202,-1.06,-0.003,0.331,-0.159,-0.349
613,0.013,-0.294,-0.198,0.153,-1.019,0.027,0.313,-0.169,-0.354
614,-0.01,-0.186,-0.224,0.139,-1.036,0.102,0.313,-0.169,-0.354
615,-0.046,-0.1,-0.271,0.175,-1.104,0.227,0.336,-0.168,-0.34
616,-0.079,-0.091,-0.266,0.25,-1.143,0.269,0.331,-0.163,-0.352
617,-0.121,-0.142,-0.225,0.359,-1.159,0.144,0.354,-0.154,-0.366
618,-0.2,-0.203,-0.168,0.437,-1.213,-0.027,0.354,-0.154,-0.366
619,-0.308,-0.154,-0.125,0.478,-1.287,-0.127,0.357,-0.154,-0.348
620,-0.43,-0.004,-0.086,0.533,-1.353,-0.099,0.346,-0.159,-0.357
621,-0.558,0.124,-0.025,0.585,-1.371,-0.055,0.327,-0.154,-0.333
622,-0.71,0.287,0.074,0.555,-1.368,-0.097,0.345,-0.15,-0.361
623,-0.82,0.423,0.207,0.329,-1.361,-0.096,0.343,-0.147,-0.355
624,-0.963,0.486,0.301,0.031,-1.341,-0.03,0.345,-0.141,-0.367
625,-1.146,0.548,0.345,0.031,-1.309,-0.029,0.345,-0.141,-0.367
626,-1.255,0.592,0.392,-0.113,-1.309,-0.029,0.34,-0.138,-0.37
627,-1.232,0.687,0.381,-0.089,-1.27,-0.12,0.309,-0.121,-0.378
628,-1.194,0.8,0.347,-0.069,-1.236,-0.184,0.309,-0.121,-0.378
629,-1.276,0.656,0.275,-0.123,-1.262,-0.144,0.328,-0.132,-0.406
630,-1.276,0.656,0.275,-0.183,-1.371,0.041,0.337,-0.118,-0.4
631,-1.428,0.243,0.215,-0.186,-1.421,0.121,0.331,-0.12,-0.421
632,-1.47,-0.141,0.189,-0.141,-1.366,-0.013,0.331,-0.12,-0.421
633,-1.5,-0.431,0.144,-0.119,-1.291,-0.09,0.34,-0.127,-0.427
634,-1.573,-0.662,0.153,-0.067,-1.299,-0.095,0.303,-0.091,-0.43
635,-1.492,-0.73,0.387,0.023,-1.343,-0.137,0.303,-0.091,-0.43
636,-1.325,-0.748,0.529,-0.065,-1.259,-0.134,0.309,-0.09,-0.432
637,-1.201,-0.574,0.543,-0.142,-1.161,-0.261,0.303,-0.091,-0.423
638,-0.944,0.043,0.546,0.007,-1.154,-0.536,0.301,-0.076,-0.433
639,-0.848,0.511,0.661,0.206,-1.206,-0.504,0.301,-0.076,-0.433
640,-0.891,0.683,0.805,0.266,-1.266,-0.143,0.283,-0.079,-0.451
641,-1.271,0.731,0.738,0.176,-1.245,0.128,0.277,-0.084,-0.444
642,-1.361,0.686,0.673,0.263,-1.207,-0.285,0.295,-0.051,-0.475
643,-1.159,1.148,0.73,0.265,-1.13,-0.516,0.282,-0.052,-0.471
644,-1.101,1.714,0.775,0.265,-1.13,-0.516,0.294,-0.039,-0.481
645,-1.11,1.915,0.78,0.078,-1.036,-0.265,0.297,-0.015,-0.496
646,-1.085,1.971,0.722,0.041,-0.976,-0.044,0.297,-0.015,-0.496
647,-0.917,1.894,0.648,0.085,-0.857,0.097,0.297,-0.036,-0.501
648,-0.78,1.637,0.497,0.022,-0.65,0.141,0.294,-0.022,-0.519
649,-0.78,1.637,0.497,0.011,-0.635,0.065,0.309,-0.012,-0.529
650,-0.737,1.653,0.408,0.019,-0.63,0.037,0.33,-0.004,-0.529
651,-0.751,1.716,0.308,-0.021,-0.624,0.074,0.339,-0.007,-0.559
652,-0.669,1.756,0.251,-0.081,-0.615,0.094,0.339,-0.007,-0.559
653,-0.533,1.654,0.22,-0.149,-0.575,0.106,0.321,0.012,-0.561
654,-0.412,1.585,0.169,-0.185,-0.531,0.097,0.349,0.021,-0.568
655,-0.31,1.474,0.125,-0.184,-0.538,0.091,0.36,0.027,-0.591
656,-0.229,1.33,0.089,-0.175,-0.553,0.123,0.372,0.028,-0.568
657,-0.149,1.125,0.071,-0.143,-0.537,0.178,0.36,0.022,-0.571
658,-0.051,0.898,0.073,-0.112,-0.51,0.222,0.361,0.034,-0.583
659,0.04,0.716,0.074,-0.088,-0.492,0.244,0.361,0.034,-0.583
660,0.119,0.595,0.073,-0.069,-0.489,0.265,0.382,0.013,-0.594
661,0.227,0.497,0.091,-0.052,-0.494,0.293,0.396,0.018,-0.582
662,0.373,0.389,0.109,-0.04,-0.479,0.322,0.366,0.012,-0.576
663,0.538,0.266,0.125,-0.026,-0.464,0.33,0.379,0.021,-0.598
664,0.689,0.158,0.132,-0.026,-0.464,0.33,0.378,0.01,-0.585
665,0.787,0.061,0.144,0.014,-0.482,0.342,0.384,0.021,-0.595
666,0.837,0.008,0.149,0.071,-0.537,0.371,0.384,0.021,-0.595
667,0.862,0.004,0.147,0.11,-0.583,0.397,0.376,0.004,-0.574
668,0.854,0.026,0.142,0.146,-0.638,0.442,0.385,0.009,-0.592
669,0.854,0.026,0.142,0.162,-0.714,0.515,0.36,0.003,-0.565
670,0.829,0.035,0.156,0.147,-0.746,0.565,0.36,0.003,-0.565
671,0.806,0.009,0.184,0.108,-0.782,0.631,0.36,0.003,-0.565
672,0.767,-0.039,0.238,0.101,-0.846,0.705,0.384,-0.001,-0.574
673,0.711,0.002,0.273,0.144,-0.954,0.774,0.37,-0.007,-0.57
674,0.569,0.081,0.295,0.2,-1.139,0.864,0.387,-0.018,-0.565
675,0.301,0.186,0.302,0.271,-1.395,0.942,0.366,0.009,-0.567
676,-0.04,0.188,0.311,0.342,-1.636,0.886,0.381,0.01,-0.537
677,-0.282,0.116,0.291,0.361,-1.739,0.701,0.381,0.01,-0.537
678,-0.403,0.155,0.281,0.298,-1.606,0.589,0.366,-0.01,-0.58
679,-0.474,0.524,0.204,0.131,-1.186,0.668,0.361,0.009,-0.571
680,-0.441,0.905,0.121,-0.111,-0.608,0.788,0.378,0.012,-0.57
681,-0.245,1.071,0.041,-0.302,-0.129,0.773,0.393,0.006,-0.561
682,0.009,1.068,-0.039,-0.311,0.079,0.647,0.405,0.006,-0.577
683,0.231,0.917,-0.052,-0.254,-0.001,0.497,0.405,0.006,-0.577
684,0.287,0.436,-0.016,-0.254,-0.001,0.497,0.379,0.024,-0.577
685,0.157,-0.102,-0.004,-0.221,-0.415,0.328,0.393,0.019,-0.583
686,-0.071,-0.21,-0.021,-0.139,-1.116,0.164,0.408,0.016,-0.57
687,-0.377,0.008,-0.121,-0.038,-1.756,0.079,0.387,0.007,-0.555
688,-0.377,0.008,-0.121,0.032,-1.996,0.15,0.406,0.001,-0.573
689,-0.472,0.127,-0.172,0.109,-1.998,0.376,0.406,0.001,-0.573
690,-0.471,0.056,-0.114,0.208,-1.588,0.477,0.384,-0.007,-0.591
691,-0.114,-0.584,0.0,0.013,-0.799,0.06,0.391,0.013,-0.562
692,0.342,-0.889,-0.084,-0.372,-0.333,-0.374,0.379,0.021,-0.558
693,0.479,-0.583,-0.235,-0.477,-0.281,-0.131,0.375,0.019,-0.561
694,0.315,-0.355,-0.345,-0.255,-0.405,0.294,0.387,0.015,-0.555
695,0.181,-0.633,-0.377,0.055,-0.584,0.297,0.387,0.015,-0.555
696,0.361,-1.301,-0.319,0.27,-0.767,-0.078,0.391,0.004,-0.567
697,0.674,-1.779,-0.213,0.353,-0.991,-0.425,0.384,0.021,-0.538
698,0.808,-1.71,-0.102,0.398,-1.251,-0.473,0.384,0.021,-0.538
699,0.743,-1.281,0.018,0.485,-1.412,-0.302,0.346,0.016,-0.529
700,0.686,-0.95,0.121,0.58,-1.394,-0.109,0.334,-0.004,-0.529
701,0.683,-0.884,0.198,0.549,-1.233,0.041,0.355,-0.004,-0.51
702,0.741,-1.034,0.203,0.33,-1.002,0.113,0.355,-0.004,-0.51
703,0.786,-1.201,0.151,0.057,-0.838,0.155,0.346,-0.013,-0.526
704,0.808,-1.266,0.062,0.057,-0.838,0.155,0.336,0.004,-0.504
705,0.847,-1.222,-0.018,-0.098,-0.788,0.149,0.318,-0.001,-0.507
706,0.839,-1.269,-0.088,-0.148,-0.803,0.112,0.331,-0.009,-0.49
707,0.895,-1.419,-0.109,-0.158,-0.813,0.118,0.321,-0.021,-0.484
708,0.895,-1.419,-0.109,-0.098,-0.806,0.065,0.325,-0.007,-0.478
709,0.903,-1.446,-0.155,-0.013,-0.833,-0.015,0.325,-0.007,-0.478
710,0.805,-1.369,-0.23,0.117,-0.881,-0.122,0.312,-0.04,-0.478
711,0.739,-1.206,-0.233,0.311,-0.938,-0.241,0.3,-0.025,-0.438
712,0.679,-1.06,-0.212,0.427,-1.008,-0.225,0.295,-0.028,-0.445
713,0.562,-0.999,-0.201,0.433,-1.01,-0.162,0.288,-0.03,-0.453
714,0.543,-0.956,-0.175,0.393,-0.918,-0.151,0.298,-0.042,-0.43
715,0.583,-0.774,-0.135,0.322,-0.911,-0.121,0.31,-0.037,-0.414
716,0.63,-0.62,-0.071,0.301,-0.95,-0.074,0.31,-0.037,-0.414
717,0.674,-0.572,-0.021,0.283,-0.888,-0.038,0.298,-0.028,-0.415
718,0.689,-0.511,-0.049,0.224,-0.855,-0.011,0.31,-0.03,-0.384
719,0.637,-0.48,-0.092,0.163,-0.854,-0.007,0.31,-0.03,-0.384
720,0.57,-0.432,-0.134,0.119,-0.852,-0.023,0.28,-0.036,-0.412
721,0.441,-0.407,-0.183,0.113,-0.907,-0.022,0.295,-0.045,-0.412
722,0.347,-0.374,-0.191,0.106,-0.953,-0.015,0.288,-0.045,-0.39
723,0.25,-0.301,-0.213,0.106,-0.954,-0.015,0.288,-0.045,-0.39
724,0.231,-0.257,-0.231,0.116,-0.954,-0.027,0.304,-0.051,-0.405
725,0.283,-0.23,-0.234,0.135,-0.93,-0.026,0.297,-0.054,-0.379
726,0.355,-0.244,-0.235,0.158,-0.877,-0.022,0.286,-0.034,-0.382
727,0.407,-0.282,-0.239,0.184,-0.828,-0.03,0.268,-0.046,-0.379
728,0.407,-0.282,-0.239,0.2,-0.831,-0.048,0.3,-0.057,-0.381
729,0.422,-0.293,-0.245,0.215,-0.847,-0.09,0.315,-0.051,-0.376
730,0.452,-0.27,-0.241,0.214,-0.847,-0.113,0.315,-0.051,-0.376
731,0.509,-0.265,-0.24,0.192,-0.843,-0.084,0.291,-0.054,-0.378
732,0.569,-0.308,-0.246,0.162,-0.853,-0.026,0.295,-0.052,-0.358
733,0.622,-0.346,-0.254,0.14,-0.868,0.002,0.295,-0.052,-0.358
734,0.659,-0.354,-0.281,0.132,-0.889,-0.005,0.285,-0.048,-0.369
735,0.677,-0.317,-0.313,0.138,-0.922,0.002,0.295,-0.052,-0.358
736,0.681,-0.28,-0.334,0.152,-0.947,0.021,0.282,-0.069,-0.354
737,0.665,-0.259,-0.346,0.157,-0.956,0.05,0.282,-0.069,-0.354
738,0.613,-0.268,-0.364,0.155,-0.942,0.044,0.277,-0.064,-0.346
739,0.569,-0.265,-0.368,0.159,-0.938,0.004,0.312,-0.094,-0.337
740,0.515,-0.287,-0.38,0.168,-0.967,-0.016,0.304,-0.091,-0.325
741,0.445,-0.329,-0.389,0.191,-1.015,-0.025,0.286,-0.066,-0.348
742,0.373,-0.363,-0.385,0.217,-1.074,0.0,0.294,-0.088,-0.339
743,0.321,-0.394,-0.338,0.217,-1.074,0.0,0.294,-0.088,-0.339
744,0.224,-0.448,-0.302,0.225,-1.114,0.055,0.303,-0.1,-0.325
745,0.122,-0.479,-0.267,0.233,-1.126,0.096,0.318,-0.1,-0.322
746,0.04,-0.465,-0.242,0.249,-1.147,0.102,0.298,-0.073,-0.301
747,-0.017,-0.39,-0.225,0.272,-1.133,0.051,0.31,-0.084,-0.318
748,-0.017,-0.39,-0.225,0.289,-1.074,0.005,0.316,-0.091,-0.304
749,-0.044,-0.256,-0.237,0.26,-1.049,0.047,0.321,-0.102,-0.318
750,-0.065,-0.13,-0.282,0.213,-1.037,0.137,0.321,-0.102,-0.318
751,-0.09,-0.033,-0.327,0.212,-1.04,0.211,0.318,-0.09,-0.313
752,-0.105,0.007,-0.326,0.259,-1.037,0.218,0.33,-0.093,-0.315
753,-0.157,0.097,-0.306,0.313,-1.026,0.161,0.318,-0.106,-0.31
754,-0.209,0.042,-0.275,0.328,-1.061,0.142,0.318,-0.106,-0.31
755,-0.319,-0.109,-0.26,0.325,-1.143,0.085,0.322,-0.094,-0.31
756,-0.485,-0.038,-0.219,0.38,-1.256,-0.042,0.322,-0.091,-0.324
757,-0.66,0.26,-0.193,0.456,-1.339,-0.078,0.322,-0.091,-0.324
758,-0.812,0.501,-0.102,0.504,-1.342,-0.051,0.309,-0.084,-0.325
759,-0.975,0.704,0.009,0.514,-1.32,-0.067,0.316,-0.105,-0.325
760,-1.159,0.765,0.323,-0.04,-1.329,-0.058,0.319,-0.105,-0.34
761,-1.234,0.87,0.411,-0.163,-1.285,-0.145,0.309,-0.103,-0.349
762,-1.252,0.889,0.417,-0.163,-1.285,-0.145,0.33,-0.088,-0.354
763,-1.24,0.75,0.382,-0.118,-1.307,-0.131,0.33,-0.088,-0.354
764,-1.351,0.518,0.312,-0.164,-1.362,-0.081,0.324,-0.093,-0.351
765,-1.446,0.115,0.247,-0.208,-1.445,0.012,0.322,-0.091,-0.361
766,-1.477,-0.23,0.226,-0.243,-1.453,0.055,0.325,-0.1,-0.375
767,-1.489,-0.477,0.207,-0.231,-1.415,-0.055,0.322,-0.072,-0.388
768,-1.517,-0.628,0.226,-0.184,-1.354,-0.077,0.316,-0.087,-0.399
769,-1.498,-0.833,0.322,-0.127,-1.304,-0.084,0.316,-0.087,-0.399
770,-1.331,-0.969,0.536,-0.02,-1.25,-0.115,0.303,-0.087,-0.403
771,-1.135,-1.092,0.583,-0.062,-1.154,-0.1,0.318,-0.085,-0.412
772,-1.172,-0.7,0.515,-0.081,-1.126,-0.207,0.304,-0.067,-0.388
773,-0.88,0.096,0.543,0.076,-1.139,-0.407,0.307,-0.051,-0.403
774,-0.711,0.41,0.737,0.249,-1.228,-0.294,0.303,-0.075,-0.394
775,-0.786,0.422,0.859,0.336,-1.276,-0.127,0.303,-0.075,-0.394
776,-0.875,0.79,0.824,0.242,-1.179,-0.091,0.327,-0.072,-0.415
777,-0.965,1.105,0.821,0.143,-1.128,-0.116,0.304,-0.037,-0.414
778,-1.027,1.382,0.811,0.14,-1.054,-0.255,0.282,-0.04,-0.433
779,-0.966,1.648,0.739,0.102,-0.937,-0.179,0.304,-0.037,-0.459
780,-0.907,1.759,0.657,0.102,-0.937,-0.179,0.295,-0.031,-0.468
781,-0.95,1.78,0.516,0.031,-0.825,-0.032,0.295,-0.031,-0.468
782,-0.859,1.766,0.392,0.037,-0.722,-0.022,0.318,-0.04,-0.475
783,-0.725,1.738,0.343,0.019,-0.658,0.006,0.306,-0.015,-0.483
784,-0.648,1.708,0.329,-0.011,-0.69,0.056,0.303,-0.028,-0.484
785,-0.546,1.719,0.324,-0.018,-0.732,0.084,0.333,-0.031,-0.504
786,-0.546,1.719,0.324,-0.04,-0.693,0.079,0.352,-0.027,-0.499
787,-0.472,1.674,0.303,-0.076,-0.645,0.097,0.352,-0.027,-0.499
788,-0.389,1.579,0.284,-0.107,-0.604,0.111,0.343,-0.015,-0.508
789,-0.335,1.476,0.227,-0.163,-0.548,0.145,0.355,0.003,-0.541
790,-0.309,1.327,0.175,-0.213,-0.531,0.2,0.352,-0.025,-0.54
791,-0.249,1.132,0.172,-0.2,-0.562,0.207,0.348,-0.022,-0.516
792,-0.158,0.97,0.198,-0.142,-0.58,0.188,0.372,-0.013,-0.552
793,-0.048,0.849,0.235,-0.085,-0.573,0.182,0.372,-0.013,-0.552
794,0.075,0.735,0.268,-0.057,-0.535,0.206,0.369,-0.01,-0.558
795,0.197,0.633,0.28,-0.033,-0.487,0.256,0.364,-0.015,-0.559
796,0.318,0.512,0.275,-0.013,-0.454,0.318,0.384,-0.022,-0.541
797,0.458,0.374,0.266,0.021,-0.442,0.35,0.373,-0.021,-0.538
798,0.595,0.224,0.263,0.058,-0.451,0.344,0.361,-0.021,-0.555
799,0.684,0.112,0.245,0.093,-0.464,0.348,0.361,-0.021,-0.555
800,0.732,0.079,0.233,0.142,-0.504,0.388,0.384,-0.016,-0.561
801,0.753,0.063,0.219,0.176,-0.56,0.439,0.375,-0.024,-0.528
802,0.755,0.058,0.193,0.176,-0.56,0.439,0.375,-0.024,-0.528
803,0.737,0.074,0.165,0.177,-0.605,0.494,0.39,-0.022,-0.556
804,0.718,0.086,0.179,0.153,-0.642,0.56,0.375,-0.046,-0.513
805,0.718,0.086,0.179,0.125,-0.667,0.6,0.358,-0.037,-0.561
806,0.707,0.116,0.194,0.153,-0.726,0.626,0.358,-0.037,-0.561
807,0.693,0.144,0.221,0.168,-0.856,0.717,0.376,-0.039,-0.526
808,0.64,0.225,0.263,0.193,-0.966,0.807,0.37,-0.069,-0.547
809,0.516,0.381,0.289,0.273,-1.062,0.867,0.394,-0.049,-0.522
810,0.334,0.464,0.305,0.339,-1.198,0.901,0.382,-0.049,-0.537
811,0.132,0.392,0.294,0.364,-1.385,0.87,0.381,-0.042,-0.534
812,-0.113,0.189,0.31,0.362,-1.524,0.759,0.381,-0.042,-0.534
813,-0.263,0.095,0.265,0.301,-1.454,0.637,0.396,-0.054,-0.535
814,-0.385,0.393,0.136,0.192,-1.161,0.645,0.378,-0.058,-0.549
815,-0.419,0.877,0.002,0.021,-0.738,0.701,0.385,-0.06,-0.531
816,-0.29,1.227,-0.081,-0.142,-0.392,0.655,0.39,-0.049,-0.568
817,-0.102,1.291,-0.116,-0.211,-0.278,0.58,0.373,-0.06,-0.54
818,0.046,1.012,-0.047,-0.306,-0.52,0.573,0.409,-0.052,-0.571
819,-0.027,0.491,0.03,-0.269,-1.065,0.449,0.409,-0.052,-0.571
820,-0.16,0.049,0.072,-0.269,-1.679,0.449,0.409,-0.069,-0.55
821,-0.322,-0.05,-0.002,-0.135,-1.679,0.147,0.399,-0.075,-0.547
822,-0.364,-0.095,-0.132,-0.153,-1.988,-0.045,0.403,-0.078,-0.558
823,-0.356,-0.102,-0.156,-0.118,-1.998,0.037,0.403,-0.078,-0.558
824,-0.22,-0.396,-0.089,0.025,-1.71,0.225,0.405,-0.067,-0.558
825,-0.22,-0.396,-0.089,-0.03,-1.029,0.044,0.421,-0.069,-0.582
826,0.154,-0.767,-0.13,-0.328,-0.479,-0.355,0.421,-0.069,-0.582
827,0.454,-0.776,-0.242,-0.535,-0.354,-0.266,0.414,-0.072,-0.574
828,0.431,-0.702,-0.354,-0.423,-0.473,0.107,0.397,-0.081,-0.553
829,0.282,-0.931,-0.396,-0.151,-0.62,0.17,0.408,-0.079,-0.541
830,0.344,-1.449,-0.327,0.045,-0.722,-0.088,0.387,-0.075,-0.556
831,0.605,-1.899,-0.206,0.146,-0.873,-0.345,0.396,-0.078,-0.564
832,0.819,-1.995,-0.102,0.235,-1.117,-0.416,0.382,-0.085,-0.523
833,0.874,-1.771,0.037,0.42,-1.328,-0.321,0.382,-0.085,-0.523
834,0.819,-1.519,0.131,0.621,-1.385,-0.147,0.376,-0.093,-0.538
835,0.772,-1.446,0.197,0.667,-1.264,-0.017,0.388,-0.091,-0.531
836,0.781,-1.495,0.221,0.512,-1.04,0.047,0.354,-0.103,-0.496
837,0.781,-1.549,0.151,0.22,-0.854,0.123,0.354,-0.103,-0.496
838,0.768,-1.551,0.064,-0.022,-0.782,0.175,0.349,-0.108,-0.484
839,0.762,-1.548,-0.025,-0.138,-0.772,0.207,0.349,-0.12,-0.471
840,0.846,-1.653,-0.105,-0.138,-0.772,0.207,0.349,-0.12,-0.471
841,0.923,-1.778,-0.113,-0.112,-0.751,0.157,0.342,-0.123,-0.481
842,0.932,-1.815,-0.141,-0.006,-0.779,0.051,0.336,-0.12,-0.469
843,0.868,-1.738,-0.209,0.082,-0.813,-0.042,0.331,-0.117,-0.454
844,0.819,-1.596,-0.205,0.162,-0.858,-0.14,0.334,-0.129,-0.439
845,0.819,-1.596,-0.205,0.295,-0.947,-0.257,0.334,-0.124,-0.432
846,0.688,-1.366,-0.181,0.401,-0.979,-0.309,0.319,-0.136,-0.403
847,0.645,-1.235,-0.162,0.416,-0.943,-0.269,0.319,-0.136,-0.403
848,0.693,-1.126,-0.116,0.379,-0.898,-0.199,0.337,-0.147,-0.424
849,0.632,-0.988,-0.138,0.317,-0.882,-0.165,0.324,-0.142,-0.412
850,0.667,-0.791,-0.142,0.291,-0.877,-0.177,0.304,-0.148,-0.391
851,0.639,-0.578,-0.142,0.287,-0.899,-0.155,0.318,-0.136,-0.376
852,0.592,-0.443,-0.156,0.268,-0.904,-0.115,0.33,-0.157,-0.382
853,0.554,-0.382,-0.178,0.221,-0.908,-0.048,0.325,-0.16,-0.375
854,0.504,-0.368,-0.2,0.179,-0.911,-0.019,0.325,-0.16,-0.375
855,0.435,-0.35,-0.213,0.167,-0.928,0.02,0.333,-0.162,-0.369
856,0.307,-0.32,-0.235,0.166,-0.954,0.051,0.351,-0.162,-0.363
857,0.242,-0.295,-0.253,0.182,-0.938,0.009,0.309,-0.153,-0.349
858,0.29,-0.282,-0.24,0.206,-0.904,-0.035,0.309,-0.153,-0.349
859,0.379,-0.273,-0.224,0.206,-0.904,-0.035,0.31,-0.175,-0.355
860,0.417,-0.282,-0.242,0.204,-0.87,-0.049,0.34,-0.153,-0.354
861,0.408,-0.287,-0.269,0.184,-0.87,-0.024,0.34,-0.153,-0.354
862,0.384,-0.286,-0.28,0.189,-0.905,-0.008,0.325,-0.153,-0.348
863,0.396,-0.294,-0.287,0.212,-0.926,-0.022,0.325,-0.163,-0.336
864,0.439,-0.305,-0.301,0.216,-0.923,-0.043,0.327,-0.165,-0.331
865,0.439,-0.305,-0.301,0.203,-0.923,-0.047,0.316,-0.16,-0.36
866,0.478,-0.294,-0.326,0.179,-0.922,-0.034,0.336,-0.171,-0.349
867,0.509,-0.239,-0.36,0.152,-0.928,-0.025,0.334,-0.175,-0.328
868,0.517,-0.157,-0.394,0.142,-0.942,-0.009,0.334,-0.175,-0.328
869,0.506,-0.109,-0.438,0.15,-0.946,0.015,0.346,-0.183,-0.334
870,0.536,-0.119,-0.442,0.165,-0.954,0.062,0.334,-0.196,-0.324
871,0.534,-0.168,-0.455,0.194,-0.949,0.092,0.343,-0.189,-0.327
872,0.508,-0.238,-0.441,0.221,-0.936,0.083,0.343,-0.189,-0.327
873,0.424,-0.298,-0.439,0.238,-0.927,0.045,0.337,-0.189,-0.31
874,0.356,-0.353,-0.397,0.224,-0.947,0.016,0.355,-0.175,-0.315
875,0.26,-0.373,-0.368,0.187,-0.99,0.023,0.355,-0.175,-0.315
876,0.189,-0.36,-0.325,0.184,-1.033,0.048,0.345,-0.186,-0.324
877,0.123,-0.357,-0.288,0.22,-1.076,0.072,0.357,-0.19,-0.303
878,0.057,-0.466,-0.2,0.24,-1.065,0.115,0.351,-0.21,-0.297
879,0.018,-0.457,-0.205,0.24,-1.065,0.115,0.355,-0.196,-0.291
880,-0.037,-0.309,-0.245,0.22,-1.043,0.117,0.363,-0.214,-0.307
881,-0.089,-0.169,-0.267,0.253,-1.075,0.134,0.363,-0.214,-0.307
882,-0.155,-0.058,-0.233,0.314,-1.145,0.195,0.364,-0.214,-0.315
883,-0.229,-0.004,-0.182,0.377,-1.184,0.17,0.369,-0.211,-0.303
884,-0.229,-0.004,-0.182,0.426,-1.187,0.072,0.376,-0.229,-0.319
885,-0.316,0.038,-0.135,0.462,-1.221,-0.002,0.358,-0.196,-0.312
886,-0.44,0.117,-0.102,0.447,-1.292,0.012,0.366,-0.211,-0.313
887,-0.595,0.245,-0.119,0.407,-1.363,0.081,0.354,-0.202,-0.334
888,-0.784,0.455,-0.125,0.43,-1.382,0.058,0.354,-0.202,-0.334
889,-1.001,0.7,-0.077,0.491,-1.368,-0.036,0.364,-0.214,-0.333
890,-1.127,0.825,0.098,0.405,-1.358,-0.057,0.375,-0.192,-0.354
891,-1.203,0.861,0.253,0.061,-1.308,-0.012,0.379,-0.213,-0.358
892,-1.297,0.949,0.347,-0.131,-1.27,-0.042,0.381,-0.219,-0.355
893,-1.349,0.935,0.329,-0.13,-1.327,-0.096,0.36,-0.21,-0.376
894,-1.354,0.863,0.323,-0.139,-1.402,-0.083,0.36,-0.21,-0.376
895,-1.372,0.626,0.315,-0.154,-1.449,-0.008,0.36,-0.21,-0.396
896,-1.406,0.247,0.322,-0.199,-1.469,0.069,0.375,-0.195,-0.414
897,-1.459,-0.195,0.289,-0.221,-1.441,0.076,0.369,-0.195,-0.412
898,-1.526,-0.471,0.258,-0.231,-1.386,0.014,0.378,-0.187,-0.45
899,-1.57,-0.602,0.287,-0.162,-1.312,-0.085,0.355,-0.18,-0.45
900,-1.529,-0.703,0.385,-0.162,-1.312,-0.085,0.355,-0.18,-0.45
901,-1.442,-0.79,0.448,-0.049,-1.247,-0.075,0.352,-0.18,-0.475
902,-1.422,-0.573,0.355,-0.083,-1.186,-0.094,0.352,-0.192,-0.468
903,-1.422,-0.573,0.355,-0.148,-1.122,-0.262,0.363,-0.166,-0.484
904,-1.369,-0.101,0.31,-0.042,-1.081,-0.325,0.336,-0.144,-0.492
905,-1.275,0.307,0.447,0.226,-1.167,-0.249,0.361,-0.151,-0.502
906,-1.152,0.604,0.679,0.394,-1.276,-0.156,0.361,-0.151,-0.502
907,-1.133,0.987,0.808,0.262,-1.268,-0.066,0.349,-0.153,-0.489
908,-1.26,1.155,0.765,0.169,-1.192,-0.08,0.357,-0.153,-0.505
909,-1.273,1.318,0.739,0.163,-1.103,-0.168,0.34,-0.13,-0.534
910,-1.247,1.511,0.703,0.065,-1.003,-0.198,0.354,-0.121,-0.531
911,-1.141,1.684,0.645,-0.016,-0.848,-0.135,0.346,-0.112,-0.555
912,-1.055,1.696,0.532,-0.045,-0.703,-0.066,0.346,-0.112,-0.555
913,-1.048,1.801,0.382,-0.075,-0.629,-0.012,0.358,-0.102,-0.565
914,-1.021,1.808,0.264,-0.086,-0.611,0.038,0.364,-0.094,-0.573
915,-0.908,1.774,0.202,-0.081,-0.6,0.061,0.376,-0.082,-0.589
916,-0.722,1.785,0.202,-0.079,-0.611,0.121,0.391,-0.079,-0.622
917,-0.555,1.704,0.207,-0.069,-0.605,0.157,0.4,-0.09,-0.612
918,-0.458,1.624,0.175,-0.07,-0.567,0.149,0.4,-0.09,-0.612
919,-0.38,1.514,0.144,-0.07,-0.567,0.149,0.405,-0.088,-0.628
920,-0.259,1.344,0.116,-0.096,-0.516,0.13,0.405,-0.072,-0.633
921,-0.14,1.141,0.106,-0.145,-0.452,0.131,0.405,-0.072,-0.633
922,-0.031,0.939,0.091,-0.196,-0.414,0.144,0.402,-0.064,-0.658
923,-0.031,0.939,0.091,-0.186,-0.449,0.158,0.432,-0.075,-0.648
924,0.08,0.744,0.095,-0.151,-0.478,0.19,0.438,-0.087,-0.639
925,0.214,0.564,0.12,-0.132,-0.466,0.233,0.438,-0.087,-0.639
926,0.369,0.4,0.149,-0.098,-0.462,0.264,0.435,-0.052,-0.645
927,0.527,0.277,0.165,-0.07,-0.452,0.291,0.427,-0.082,-0.64
928,0.665,0.174,0.177,-0.042,-0.444,0.333,0.412,-0.073,-0.628
929,0.769,0.094,0.179,-0.005,-0.427,0.377,0.442,-0.063,-0.646
930,0.844,0.012,0.169,0.023,-0.41,0.419,0.438,-0.1,-0.627
931,0.9,-0.065,0.17,0.051,-0.43,0.439,0.448,-0.096,-0.633
932,0.931,-0.082,0.159,0.075,-0.496,0.481,0.448,-0.096,-0.633
933,0.94,-0.04,0.145,0.1,-0.591,0.57,0.454,-0.099,-0.639
934,0.933,0.024,0.153,0.111,-0.699,0.671,0.448,-0.099,-0.619
935,0.89,0.07,0.191,0.124,-0.786,0.717,0.448,-0.099,-0.619
936,0.826,0.12,0.225,0.127,-0.919,0.798,0.447,-0.114,-0.624
937,0.714,0.186,0.268,0.127,-0.919,0.798,0.444,-0.102,-0.607
938,0.495,0.319,0.269,0.142,-1.076,0.874,0.426,-0.102,-0.618
939,0.167,0.398,0.262,0.215,-1.291,0.914,0.426,-0.102,-0.618
940,-0.13,0.317,0.284,0.283,-1.594,0.955,0.436,-0.106,-0.616
941,-0.289,0.155,0.308,0.332,-1.805,0.849,0.439,-0.106,-0.607
942,-0.415,0.292,0.273,0.337,-1.803,0.682,0.439,-0.106,-0.607
943,-0.415,0.292,0.273,0.238,-1.507,0.663,0.427,-0.129,-0.609
944,-0.477,0.687,0.186,-0.033,-0.887,0.73,0.441,-0.115,-0.615
945,-0.368,1.049,0.084,-0.346,-0.226,0.765,0.457,-0.096,-0.595
946,-0.113,1.128,0.005,-0.429,0.128,0.692,0.457,-0.096,-0.595
947,0.088,1.039,-0.072,-0.377,0.183,0.558,0.466,-0.105,-0.619
948,0.162,0.709,-0.078,-0.379,-0.101,0.43,0.471,-0.108,-0.627
949,0.077,0.084,-0.066,-0.336,-0.724,0.223,0.48,-0.091,-0.618
950,0.01,-0.202,-0.016,-0.325,-1.544,0.071,0.48,-0.094,-0.631
951,-0.29,0.137,-0.13,-0.28,-1.994,0.028,0.471,-0.105,-0.622
952,-0.544,0.466,-0.265,0.02,-1.998,0.273,0.471,-0.105,-0.622
953,-0.687,0.463,-0.161,0.491,-1.997,0.72,0.465,-0.097,-0.631
954,-0.387,-0.434,0.156,0.576,-1.36,0.322,0.471,-0.085,-0.642
955,0.256,-1.239,0.296,-0.036,-0.456,-0.549,0.471,-0.079,-0.612
956,0.591,-1.036,0.104,-0.618,-0.204,-0.493,0.471,-0.079,-0.612
957,0.462,-0.555,-0.179,-0.618,-0.204,-0.493,0.472,-0.097,-0.64
958,0.203,-0.583,-0.366,-0.62,-0.247,0.111,0.445,-0.097,-0.618
959,0.14,-1.126,-0.361,-0.246,-0.331,0.292,0.445,-0.097,-0.618
960,0.406,-1.69,-0.273,0.075,-0.412,0.002,0.451,-0.087,-0.625
961,0.761,-1.856,-0.158,0.209,-0.546,-0.327,0.444,-0.079,-0.637
962,0.761,-1.856,-0.158,0.262,-0.878,-0.471,0.43,-0.09,-0.606
963,0.955,-1.588,-0.065,0.352,-1.258,-0.396,0.43,-0.102,-0.594
964,0.976,-1.163,0.009,0.53,-1.501,-0.178,0.414,-0.099,-0.592
965,0.924,-0.977,0.055,0.627,-1.533,0.031,0.424,-0.084,-0.589
966,0.852,-1.012,0.079,0.509,-1.358,0.166,0.424,-0.084,-0.589
967,0.793,-1.103,0.066,0.264,-1.115,0.215,0.421,-0.106,-0.577
968,0.827,-0.989,0.042,0.073,-0.965,0.207,0.4,-0.105,-0.577
969,0.9,-0.945,0.017,-0.053,-0.865,0.214,0.39,-0.108,-0.558
970,0.935,-1.145,-0.028,-0.135,-0.741,0.218,0.382,-0.115,-0.562
971,0.984,-1.36,-0.081,-0.156,-0.681,0.176,0.381,-0.126,-0.543
972,1.033,-1.437,-0.15,-0.039,-0.737,-0.031,0.382,-0.112,-0.537
973,1.068,-1.308,-0.132,0.172,-0.881,-0.226,0.382,-0.112,-0.537
974,0.996,-1.182,-0.158,0.26,-0.929,-0.112,0.384,-0.132,-0.538
975,0.835,-1.022,-0.298,0.33,-0.923,-0.14,0.37,-0.144,-0.516
976,0.784,-0.858,-0.268,0.419,-0.973,-0.209,0.352,-0.126,-0.504
977,0.734,-0.788,-0.186,0.411,-0.983,-0.062,0.352,-0.126,-0.504
978,0.692,-0.707,-0.123,0.411,-0.983,-0.062,0.369,-0.142,-0.477
979,0.707,-0.606,-0.07,0.355,-0.959,-0.036,0.369,-0.142,-0.477
980,0.655,-0.46,-0.086,0.262,-0.909,-0.033,0.363,-0.156,-0.495
981,0.586,-0.306,-0.116,0.19,-0.849,-0.013,0.369,-0.148,-0.489
982,0.548,-0.226,-0.12,0.17,-0.822,-0.03,0.366,-0.171,-0.495
983,0.548,-0.226,-0.12,0.138,-0.826,0.022,0.352,-0.147,-0.465
984,0.531,-0.269,-0.132,0.134,-0.838,0.046,0.355,-0.159,-0.477
985,0.523,-0.338,-0.162,0.151,-0.838,0.019,0.355,-0.159,-0.477
986,0.508,-0.402,-0.193,0.16,-0.857,0.005,0.376,-0.163,-0.483
987,0.518,-0.436,-0.207,0.17,-0.887,-0.005,0.375,-0.144,-0.451
988,0.518,-0.443,-0.223,0.164,-0.889,-0.001,0.354,-0.157,-0.45
989,0.525,-0.438,-0.226,0.143,-0.882,-0.005,0.367,-0.168,-0.472
990,0.518,-0.411,-0.234,0.127,-0.872,0.003,0.339,-0.177,-0.429
991,0.513,-0.385,-0.252,0.125,-0.867,0.017,0.339,-0.177,-0.429
992,0.545,-0.391,-0.261,0.137,-0.862,0.003,0.366,-0.163,-0.439
993,0.588,-0.403,-0.268,0.158,-0.858,-0.018,0.379,-0.172,-0.45
994,0.62,-0.455,-0.274,0.159,-0.853,-0.031,0.361,-0.156,-0.438
995,0.681,-0.455,-0.281,0.16,-0.854,-0.033,0.36,-0.171,-0.435
996,0.728,-0.406,-0.294,0.162,-0.873,0.009,0.349,-0.19,-0.42
997,0.725,-0.399,-0.336,0.176,-0.88,0.039,0.363,-0.178,-0.391
998,0.725,-0.332,-0.347,0.176,-0.88,0.039,0.363,-0.178,-0.391
999,0.676,-0.291,-0.368,0.185,-0.889,0.065,0.37,-0.18,-0.391
1000,0.623,-0.289,-0.386,0.179,-0.912,0.113,0.369,-0.195,-0.408
1001,0.536,-0.298,-0.399,0.206,-0.927,0.108,0.382,-0.195,-0.397
1002,0.536,-0.298,-0.399,0.242,-0.979,0.088,0.376,-0.19,-0.387
1003,0.413,-0.317,-0.392,0.243,-1.052,0.117,0.378,-0.198,-0.381
1004,0.294,-0.326,-0.37,0.27,-1.1,0.111,0.378,-0.198,-0.381
1005,0.172,-0.322,-0.352,0.34,-1.128,0.051,0.382,-0.196,-0.391
1006,0.103,-0.35,-0.291,0.332,-1.132,0.058,0.382,-0.196,-0.391
1007,0.083,-0.466,-0.2,0.197,-1.111,0.124,0.373,-0.189,-0.382
1008,0.047,-0.461,-0.2,0.067,-1.119,0.187,0.399,-0.192,-0.39
1009,-0.042,-0.274,-0.277,0.048,-1.16,0.315,0.396,-0.202,-0.382
1010,-0.114,-0.133,-0.317,0.141,-1.178,0.405,0.396,-0.202,-0.382
1011,-0.161,-0.035,-0.297,0.299,-1.188,0.335,0.385,-0.205,-0.412
1012,-0.215,-0.032,-0.291,0.373,-1.131,0.237,0.391,-0.175,-0.384
1013,-0.26,-0.051,-0.311,0.371,-1.062,0.106,0.391,-0.175,-0.384
1014,-0.479,0.084,-0.376,0.362,-1.138,-0.043,0.381,-0.193,-0.388
1015,-0.663,0.198,-0.321,0.428,-1.302,-0.122,0.388,-0.187,-0.418
1016,-0.836,0.497,-0.234,0.539,-1.426,-0.134,0.402,-0.205,-0.427
1017,-1.026,0.77,-0.116,0.539,-1.426,-0.134,0.402,-0.205,-0.427
1018,-1.157,0.938,0.134,0.603,-1.469,-0.143,0.396,-0.19,-0.421
1019,-1.227,0.849,0.428,0.58,-1.527,-0.134,0.4,-0.177,-0.409
1020,-1.201,0.854,0.614,0.085,-1.492,-0.125,0.396,-0.171,-0.433
1021,-1.181,0.889,0.649,-0.241,-1.372,-0.253,0.412,-0.165,-0.465
1022,-1.181,0.889,0.649,-0.159,-1.408,-0.214,0.387,-0.159,-0.45
1023,-1.345,0.65,0.621,-0.224,-1.53,0.009,0.387,-0.159,-0.45
1024,-1.446,0.308,0.575,-0.269,-1.576,0.1,0.412,-0.156,-0.472
1025,-1.515,-0.058,0.487,-0.272,-1.553,0.082,0.396,-0.135,-0.484
1026,-1.588,-0.336,0.389,-0.28,-1.523,0.015,0.373,-0.133,-0.496
1027,-1.622,-0.52,0.325,-0.291,-1.436,-0.062,0.373,-0.133,-0.496
1028,-1.589,-0.727,0.302,-0.24,-1.238,-0.104,0.388,-0.111,-0.519
1029,-1.677,-1.063,0.202,-0.133,-1.139,-0.055,0.39,-0.126,-0.496
1030,-1.724,-1.2,0.249,-0.016,-1.254,-0.084,0.39,-0.126,-0.496
1031,-1.628,-0.962,0.317,-0.06,-1.299,-0.123,0.357,-0.09,-0.52
1032,-1.519,-0.392,0.412,-0.089,-1.208,-0.132,0.36,-0.088,-0.505
1033,-1.201,0.179,0.525,0.105,-1.174,-0.314,0.37,-0.094,-0.513
1034,-0.877,0.542,0.754,0.316,-1.233,-0.331,0.372,-0.084,-0.531
1035,-0.723,0.845,1.01,0.343,-1.286,-0.197,0.358,-0.075,-0.526
1036,-0.938,0.984,0.977,0.268,-1.224,-0.174,0.355,-0.081,-0.528
1037,-1.004,1.139,0.941,0.268,-1.224,-0.174,0.355,-0.081,-0.528
1038,-0.926,1.433,0.907,0.183,-1.096,-0.232,0.379,-0.064,-0.538
1039,-0.988,1.682,0.831,0.061,-1.009,-0.28,0.351,-0.057,-0.544
1040,-0.961,2.06,0.64,0.04,-0.869,-0.299,0.361,-0.042,-0.568
1041,-1.001,2.153,0.438,0.042,-0.723,-0.221,0.381,-0.028,-0.573
1042,-1.001,2.153,0.438,-0.004,-0.637,-0.074,0.385,-0.027,-0.591
1043,-1.033,2.069,0.25,-0.075,-0.535,0.028,0.403,-0.043,-0.588
1044,-0.939,2.023,0.133,-0.12,-0.483,0.047,0.403,-0.043,-0.588
1045,-0.792,1.966,0.103,-0.117,-0.523,0.055,0.4,-0.037,-0.615
1046,-0.595,1.848,0.165,-0.116,-0.581,0.101,0.411,-0.013,-0.61
1047,-0.396,1.712,0.228,-0.128,-0.581,0.104,0.438,-0.001,-0.603
1048,-0.281,1.543,0.253,-0.173,-0.562,0.125,0.438,-0.001,-0.603
1049,-0.231,1.361,0.25,-0.203,-0.56,0.119,0.432,0.001,-0.634
1050,-0.159,1.192,0.248,-0.223,-0.528,0.117,0.447,-0.019,-0.631
1051,-0.075,1.044,0.222,-0.235,-0.472,0.132,0.447,-0.019,-0.631
1052,0.043,0.869,0.217,-0.19,-0.445,0.156,0.442,-0.004,-0.633
1053,0.2,0.667,0.233,-0.139,-0.416,0.194,0.445,0.004,-0.615
1054,0.396,0.486,0.247,-0.113,-0.354,0.236,0.448,0.004,-0.618
1055,0.588,0.311,0.245,-0.072,-0.292,0.259,0.462,-0.016,-0.627
1056,0.761,0.175,0.228,-0.072,-0.292,0.259,0.469,-0.012,-0.637
1057,0.892,0.061,0.195,-0.031,-0.271,0.282,0.471,-0.022,-0.621
1058,0.982,-0.002,0.154,-0.013,-0.287,0.323,0.471,-0.022,-0.621
1059,1.031,-0.04,0.139,0.003,-0.334,0.379,0.45,-0.03,-0.624
1060,1.047,-0.03,0.127,0.042,-0.413,0.443,0.463,-0.022,-0.625
1061,1.021,-0.009,0.133,0.084,-0.516,0.537,0.445,-0.042,-0.609
1062,1.021,-0.009,0.133,0.147,-0.643,0.676,0.445,-0.042,-0.609
1063,0.973,0.009,0.157,0.206,-0.778,0.8,0.438,-0.037,-0.607
1064,0.899,0.067,0.189,0.248,-0.929,0.902,0.474,-0.037,-0.61
1065,0.754,0.213,0.205,0.298,-1.127,0.994,0.474,-0.037,-0.61
1066,0.489,0.421,0.193,0.367,-1.381,1.039,0.465,-0.045,-0.616
1067,0.135,0.564,0.202,0.424,-1.642,0.998,0.469,-0.055,-0.574
1068,-0.182,0.505,0.25,0.402,-1.798,0.86,0.466,-0.061,-0.597
1069,-0.364,0.257,0.329,0.274,-1.763,0.67,0.468,-0.058,-0.594
1070,-0.456,0.242,0.31,0.089,-1.497,0.591,0.46,-0.048,-0.594
1071,-0.499,0.579,0.2,-0.167,-1.032,0.696,0.457,-0.049,-0.603
1072,-0.466,0.973,0.073,-0.442,-0.573,0.766,0.457,-0.049,-0.603
1073,-0.414,1.127,-0.012,-0.538,-0.45,0.691,0.462,-0.051,-0.595
1074,-0.392,1.012,-0.178,-0.39,-0.829,0.544,0.472,-0.045,-0.628
1075,-0.505,0.627,-0.253,-0.09,-1.366,0.256,0.48,-0.037,-0.615
1076,-0.686,0.198,-0.242,-0.028,-1.705,0.018,0.49,-0.031,-0.616
1077,-0.586,0.016,-0.214,-0.028,-1.705,0.018,0.501,-0.021,-0.624
1078,-0.364,-0.014,-0.135,-0.203,-1.595,0.013,0.489,-0.019,-0.63
1079,-0.122,-0.313,-0.081,-0.235,-1.154,0.161,0.489,-0.019,-0.63
1080,0.169,-0.685,-0.123,-0.221,-0.74,0.116,0.489,-0.022,-0.645
1081,0.331,-0.757,-0.201,-0.256,-0.559,-0.103,0.484,-0.022,-0.636
1082,0.331,-0.757,-0.201,-0.187,-0.622,-0.057,0.48,-0.037,-0.615
1083,0.276,-0.753,-0.275,-0.016,-0.757,0.077,0.477,-0.037,-0.615
1084,0.238,-0.987,-0.289,0.125,-0.836,-0.002,0.462,-0.019,-0.619
1085,0.45,-1.383,-0.232,0.155,-0.866,-0.212,0.471,-0.016,-0.634
1086,0.707,-1.558,-0.162,0.126,-1.014,-0.313,0.471,-0.016,-0.634
1087,0.844,-1.436,-0.116,0.147,-1.223,-0.27,0.445,-0.031,-0.622
1088,0.844,-1.086,-0.07,0.275,-1.378,-0.174,0.436,-0.046,-0.603
1089,0.742,-0.812,0.0,0.423,-1.408,-0.039,0.426,-0.034,-0.588
1090,0.682,-0.813,0.056,0.436,-1.274,0.09,0.424,-0.048,-0.595
1091,0.742,-1.08,0.114,0.33,-1.034,0.12,0.429,-0.052,-0.604
1092,0.875,-1.271,0.11,0.17,-0.849,0.105,0.429,-0.052,-0.604
1093,0.91,-1.352,0.055,0.042,-0.812,0.115,0.421,-0.043,-0.583
1094,0.912,-1.31,0.018,0.04,-0.848,0.071,0.418,-0.045,-0.607
1095,0.946,-1.356,0.003,0.045,-0.888,0.068,0.408,-0.057,-0.589
1096,0.991,-1.588,0.017,0.028,-0.885,0.071,0.394,-0.079,-0.552
1097,1.117,-1.754,0.064,0.028,-0.885,0.071,0.385,-0.081,-0.561
1098,1.213,-1.723,0.057,0.055,-0.867,-0.033,0.385,-0.081,-0.561
1099,1.131,-1.53,-0.008,0.109,-0.874,-0.191,0.376,-0.079,-0.525
1100,1.038,-1.253,-0.034,0.176,-0.923,-0.262,0.361,-0.085,-0.537
1101,1.038,-1.253,-0.034,0.245,-0.956,-0.239,0.36,-0.079,-0.519
1102,0.756,-1.026,-0.206,0.324,-0.881,-0.243,0.366,-0.075,-0.535
1103,0.708,-0.8,-0.216,0.35,-0.896,-0.246,0.364,-0.105,-0.523
1104,0.814,-0.656,-0.084,0.318,-0.974,-0.127,0.364,-0.105,-0.523
1105,0.724,-0.64,-0.119,0.243,-0.972,0.062,0.354,-0.096,-0.501
1106,0.705,-0.666,-0.114,0.166,-0.912,0.06,0.342,-0.097,-0.51
1107,0.742,-0.64,-0.083,0.121,-0.865,-0.013,0.351,-0.097,-0.484
1108,0.681,-0.616,-0.15,0.084,-0.857,-0.002,0.357,-0.084,-0.493
1109,0.64,-0.635,-0.195,0.06,-0.817,0.02,0.345,-0.105,-0.495
1110,0.59,-0.679,-0.235,0.063,-0.817,0.012,0.345,-0.105,-0.495
1111,0.54,-0.648,-0.254,0.114,-0.852,-0.032,0.339,-0.109,-0.457
1112,0.499,-0.578,-0.269,0.169,-0.878,-0.068,0.34,-0.121,-0.469
1113,0.448,-0.462,-0.308,0.206,-0.889,-0.066,0.343,-0.109,-0.475
1114,0.424,-0.414,-0.318,0.22,-0.897,-0.05,0.337,-0.1,-0.466
1115,0.427,-0.374,-0.325,0.205,-0.893,-0.043,0.375,-0.12,-0.454
1116,0.442,-0.339,-0.334,0.191,-0.877,-0.045,0.375,-0.12,-0.454
1117,0.544,-0.271,-0.341,0.17,-0.854,-0.054,0.348,-0.118,-0.447
1118,0.571,-0.266,-0.36,0.141,-0.824,-0.043,0.355,-0.13,-0.445
1119,0.586,-0.273,-0.364,0.133,-0.826,-0.01,0.355,-0.117,-0.445
1120,0.586,-0.273,-0.364,0.134,-0.839,0.008,0.352,-0.141,-0.457
1121,0.581,-0.282,-0.38,0.117,-0.875,0.025,0.345,-0.15,-0.433
1122,0.595,-0.271,-0.375,0.104,-0.922,0.025,0.345,-0.15,-0.433
1123,0.583,-0.276,-0.384,0.144,-0.961,0.058,0.351,-0.12,-0.411
1124,0.572,-0.294,-0.373,0.177,-0.981,0.092,0.367,-0.127,-0.441
1125,0.508,-0.327,-0.356,0.208,-1.01,0.12,0.36,-0.139,-0.424
1126,0.42,-0.348,-0.341,0.224,-0.997,0.097,0.375,-0.142,-0.43
1127,0.341,-0.336,-0.318,0.231,-1.002,0.072,0.364,-0.144,-0.414
1128,0.218,-0.335,-0.333,0.258,-1.02,0.054,0.364,-0.144,-0.414
1129,0.08,-0.241,-0.347,0.257,-1.018,-0.004,0.364,-0.157,-0.414
1130,0.11,-0.356,-0.28,0.297,-1.048,0.043,0.364,-0.157,-0.414
1131,0.086,-0.432,-0.232,0.331,-1.067,0.122,0.394,-0.157,-0.411
1132,0.01,-0.34,-0.213,0.288,-1.075,0.131,0.381,-0.144,-0.402
1133,-0.051,-0.2,-0.219,0.252,-1.103,0.186,0.367,-0.13,-0.411
1134,-0.116,-0.029,-0.257,0.252,-1.103,0.186,0.367,-0.13,-0.411
1135,-0.217,0.041,-0.289,0.246,-1.132,0.254,0.358,-0.16,-0.429
1136,-0.359,-0.002,-0.249,0.3,-1.199,0.249,0.394,-0.16,-0.414
1137,-0.51,0.004,-0.141,0.374,-1.295,0.097,0.393,-0.166,-0.412
1138,-0.597,0.198,-0.03,0.43,-1.389,-0.098,0.376,-0.153,-0.421
1139,-0.597,0.198,-0.03,0.409,-1.45,-0.098,0.39,-0.153,-0.429
1140,-0.755,0.452,-0.023,0.331,-1.449,0.009,0.384,-0.171,-0.427
1141,-0.987,0.699,0.0,0.308,-1.405,0.007,0.384,-0.171,-0.427
1142,-1.122,0.891,0.166,0.187,-1.334,0.001,0.396,-0.144,-0.453
1143,-1.17,0.689,0.268,-0.147,-1.314,-0.002,0.39,-0.141,-0.435
1144,-1.334,0.695,0.301,-0.269,-1.316,-0.115,0.39,-0.141,-0.435
1145,-1.3,0.776,0.329,-0.171,-1.25,-0.225,0.405,-0.151,-0.456
1146,-1.283,0.661,0.298,-0.196,-1.338,-0.122,0.385,-0.148,-0.486
1147,-1.428,0.376,0.249,-0.256,-1.563,0.063,0.408,-0.129,-0.49
1148,-1.495,0.002,0.286,-0.25,-1.59,0.058,0.408,-0.129,-0.49
1149,-1.481,-0.363,0.304,-0.221,-1.464,-0.004,0.399,-0.124,-0.507
1150,-1.574,-0.659,0.249,-0.188,-1.415,-0.03,0.397,-0.106,-0.511
1151,-1.682,-0.847,0.197,-0.117,-1.375,-0.093,0.397,-0.096,-0.505
1152,-1.583,-0.896,0.311,-0.116,-1.29,-0.15,0.396,-0.073,-0.508
1153,-1.451,-0.875,0.407,-0.116,-1.29,-0.15,0.379,-0.091,-0.513
1154,-1.312,-0.781,0.46,-0.137,-1.222,-0.131,0.39,-0.079,-0.526
1155,-1.267,-0.496,0.436,-0.171,-1.181,-0.109,0.39,-0.079,-0.526
1156,-1.16,0.024,0.395,-0.152,-1.164,-0.173,0.384,-0.079,-0.513
1157,-0.981,0.429,0.529,0.022,-1.158,-0.305,0.37,-0.057,-0.531
1158,-0.886,0.61,0.758,0.223,-1.261,-0.256,0.385,-0.064,-0.525
1159,-0.886,0.61,0.758,0.341,-1.34,-0.098,0.379,-0.045,-0.543
1160,-0.985,0.903,0.824,0.195,-1.25,-0.002,0.387,-0.046,-0.546
1161,-1.148,0.994,0.742,0.05,-1.122,-0.031,0.387,-0.046,-0.546
1162,-1.269,1.099,0.653,0.06,-1.001,-0.16,0.396,-0.028,-0.549
1163,-1.217,1.353,0.593,0.019,-0.869,-0.156,0.388,-0.028,-0.571
1164,-1.091,1.6,0.499,-0.031,-0.746,-0.088,0.396,-0.03,-0.567
1165,-1.032,1.678,0.357,-0.035,-0.647,-0.051,0.396,-0.03,-0.567
1166,-0.97,1.78,0.259,-0.025,-0.608,-0.021,0.408,-0.019,-0.573
1167,-0.89,1.761,0.184,-0.038,-0.618,0.039,0.427,-0.021,-0.601
1168,-0.788,1.701,0.159,-0.026,-0.621,0.048,0.427,-0.021,-0.601
1169,-0.638,1.598,0.17,-0.023,-0.615,0.07,0.415,-0.001,-0.589
1170,-0.464,1.508,0.191,-0.055,-0.602,0.104,0.439,0.0,-0.607
1171,-0.296,1.431,0.21,-0.108,-0.563,0.087,0.433,0.012,-0.583
1172,-0.185,1.334,0.186,-0.175,-0.5,0.107,0.45,0.021,-0.607
1173,-0.101,1.197,0.163,-0.175,-0.5,0.107,0.445,-0.001,-0.615
1174,0.009,1.035,0.151,-0.217,-0.456,0.142,0.466,0.006,-0.61
1175,0.114,0.879,0.143,-0.22,-0.438,0.147,0.466,0.006,-0.61
1176,0.209,0.716,0.132,-0.213,-0.415,0.17,0.457,0.001,-0.6
1177,0.322,0.55,0.134,-0.178,-0.423,0.215,0.457,0.009,-0.604
1178,0.322,0.55,0.134,-0.131,-0.426,0.245,0.462,0.004,-0.603
1179,0.461,0.395,0.137,-0.091,-0.421,0.27,0.462,0.004,-0.603
1180,0.618,0.263,0.151,-0.047,-0.417,0.289,0.478,0.007,-0.624
1181,0.751,0.16,0.165,-0.01,-0.418,0.325,0.466,-0.001,-0.576
1182,0.838,0.084,0.172,0.04,-0.444,0.365,0.466,-0.001,-0.576
1183,0.903,0.039,0.168,0.068,-0.481,0.402,0.474,-0.004,-0.603
1184,0.949,0.023,0.169,0.075,-0.548,0.47,0.46,-0.025,-0.597
1185,0.967,0.051,0.162,0.098,-0.614,0.548,0.466,-0.022,-0.603
1186,0.975,0.104,0.159,0.145,-0.704,0.63,0.463,-0.027,-0.598
1187,0.979,0.143,0.2,0.185,-0.809,0.681,0.469,-0.024,-0.586
1188,0.936,0.181,0.238,0.213,-0.939,0.737,0.457,-0.03,-0.592
1189,0.788,0.238,0.254,0.247,-1.135,0.805,0.457,-0.03,-0.592
1190,0.49,0.314,0.257,0.291,-1.399,0.872,0.444,-0.048,-0.568
1191,0.079,0.318,0.288,0.32,-1.675,0.913,0.46,-0.045,-0.571
1192,-0.239,0.182,0.34,0.293,-1.801,0.783,0.454,-0.051,-0.562
1193,-0.365,0.021,0.371,0.293,-1.801,0.783,0.466,-0.052,-0.595
1194,-0.457,0.176,0.32,0.236,-1.73,0.622,0.466,-0.052,-0.595
1195,-0.515,0.599,0.226,0.083,-1.435,0.625,0.457,-0.042,-0.573
1196,-0.387,1.009,0.136,-0.188,-0.9,0.72,0.456,-0.037,-0.588
1197,-0.127,1.178,0.039,-0.405,-0.336,0.771,0.448,-0.036,-0.6
1198,-0.127,1.178,0.039,-0.461,-0.017,0.695,0.462,-0.045,-0.577
1199,0.116,1.016,-0.056,-0.37,-0.046,0.513,0.462,-0.027,-0.594
1200,0.216,0.655,-0.095,-0.246,-0.515,0.371,0.462,-0.027,-0.594
1201,0.184,0.165,-0.106,-0.18,-1.168,0.185,0.463,-0.049,-0.597
1202,0.027,-0.072,-0.143,-0.131,-1.724,0.026,0.472,-0.022,-0.582
1203,-0.302,0.039,-0.233,-0.08,-1.996,0.101,0.477,-0.019,-0.582
1204,-0.457,0.14,-0.237,0.032,-1.998,0.314,0.469,-0.012,-0.606
1205,-0.483,0.135,-0.119,0.185,-1.634,0.561,0.477,-0.024,-0.582
1206,-0.163,-0.653,0.041,0.065,-0.831,0.188,0.477,-0.024,-0.582
1207,0.428,-1.3,0.072,-0.322,-0.288,-0.453,0.469,-0.031,-0.565
1208,0.723,-1.164,-0.025,-0.565,-0.247,-0.324,0.469,-0.028,-0.589
1209,0.561,-0.782,-0.162,-0.49,-0.367,0.127,0.451,-0.018,-0.583
1210,0.34,-0.739,-0.291,-0.192,-0.482,0.216,0.457,-0.022,-0.573
1211,0.397,-1.13,-0.323,0.112,-0.613,-0.037,0.433,-0.046,-0.574
1212,0.69,-1.615,-0.289,0.359,-0.857,-0.369,0.433,-0.046,-0.574
1213,0.919,-1.726,-0.215,0.359,-0.857,-0.369,0.414,-0.063,-0.556
1214,0.925,-1.361,-0.137,0.506,-1.159,-0.565,0.414,-0.063,-0.556
1215,0.751,-0.977,-0.056,0.568,-1.394,-0.493,0.417,-0.051,-0.558
1216,0.595,-0.848,0.026,0.597,-1.489,-0.221,0.423,-0.055,-0.561
1217,0.595,-0.848,0.026,0.495,-1.355,0.015,0.417,-0.061,-0.547
1218,0.497,-0.858,0.072,0.258,-1.086,0.149,0.417,-0.061,-0.547
1219,0.478,-0.872,0.028,0.0,-0.828,0.203,0.409,-0.058,-0.523
1220,0.57,-0.716,-0.057,-0.141,-0.715,0.207,0.393,-0.07,-0.538
1221,0.676,-0.735,-0.081,-0.229,-0.72,0.269,0.394,-0.067,-0.51
1222,0.749,-1.012,-0.098,-0.254,-0.734,0.311,0.394,-0.066,-0.523
1223,0.811,-1.306,-0.158,-0.206,-0.738,0.207,0.391,-0.084,-0.535
1224,0.782,-1.306,-0.24,-0.071,-0.843,0.01,0.378,-0.076,-0.522
1225,0.721,-1.162,-0.27,0.161,-1.034,-0.165,0.378,-0.076,-0.522
1226,0.662,-1.006,-0.237,0.372,-1.121,-0.204,0.393,-0.082,-0.499
1227,0.648,-0.937,-0.156,0.5,-1.131,-0.185,0.373,-0.093,-0.477
1228,0.721,-0.877,-0.045,0.495,-1.076,-0.169,0.373,-0.093,-0.477
1229,0.72,-0.853,-0.016,0.404,-0.956,-0.098,0.394,-0.073,-0.468
1230,0.667,-0.734,-0.053,0.298,-0.869,-0.063,0.369,-0.085,-0.472
1231,0.645,-0.481,-0.08,0.227,-0.822,-0.066,0.354,-0.093,-0.465
1232,0.651,-0.254,-0.078,0.176,-0.8,-0.024,0.354,-0.093,-0.465
1233,0.655,-0.183,-0.089,0.176,-0.8,-0.024,0.369,-0.096,-0.474
1234,0.615,-0.308,-0.1,0.157,-0.875,0.007,0.367,-0.096,-0.444
1235,0.599,-0.364,-0.107,0.167,-0.918,0.003,0.372,-0.096,-0.448
1236,0.54,-0.386,-0.095,0.146,-0.939,0.02,0.388,-0.105,-0.436
1237,0.54,-0.386,-0.095,0.144,-0.95,-0.013,0.366,-0.099,-0.45
1238,0.464,-0.373,-0.113,0.149,-0.945,-0.032,0.366,-0.099,-0.45
1239,0.451,-0.375,-0.128,0.147,-0.922,-0.02,0.367,-0.111,-0.426
1240,0.464,-0.394,-0.131,0.132,-0.888,-0.002,0.36,-0.108,-0.429
1241,0.483,-0.424,-0.164,0.107,-0.865,-0.014,0.372,-0.094,-0.415
1242,0.466,-0.414,-0.207,0.119,-0.859,-0.028,0.357,-0.112,-0.409
1243,0.493,-0.394,-0.228,0.122,-0.847,-0.034,0.345,-0.105,-0.415
1244,0.519,-0.366,-0.25,0.118,-0.837,-0.037,0.345,-0.105,-0.415
1245,0.556,-0.336,-0.279,0.119,-0.857,-0.042,0.37,-0.096,-0.408
1246,0.597,-0.298,-0.321,0.135,-0.905,-0.058,0.352,-0.114,-0.417
1247,0.636,-0.239,-0.338,0.154,-0.957,-0.006,0.369,-0.114,-0.394
1248,0.623,-0.239,-0.382,0.187,-0.994,0.043,0.369,-0.114,-0.394
1249,0.623,-0.217,-0.372,0.2,-0.999,0.044,0.369,-0.13,-0.39
1250,0.572,-0.205,-0.406,0.196,-1.017,0.074,0.363,-0.123,-0.394
1251,0.553,-0.139,-0.387,0.196,-1.017,0.074,0.363,-0.123,-0.394
1252,0.499,-0.098,-0.375,0.206,-1.023,0.087,0.369,-0.117,-0.39
1253,0.38,-0.162,-0.396,0.211,-1.018,0.115,0.382,-0.124,-0.369
1254,0.254,-0.27,-0.292,0.25,-1.052,0.132,0.379,-0.133,-0.384
1255,0.254,-0.27,-0.292,0.172,-1.094,0.185,0.385,-0.142,-0.366
1256,0.147,-0.333,-0.269,0.17,-1.097,0.153,0.378,-0.117,-0.378
1257,0.043,-0.383,-0.247,0.212,-1.087,0.103,0.378,-0.117,-0.378
1258,-0.028,-0.376,-0.21,0.176,-1.079,0.126,0.388,-0.138,-0.393
1259,-0.082,-0.317,-0.21,0.142,-1.054,0.15,0.361,-0.124,-0.364
1260,-0.166,-0.133,-0.259,0.16,-1.068,0.178,0.375,-0.136,-0.366
1261,-0.266,0.044,-0.301,0.214,-1.104,0.219,0.381,-0.136,-0.369
1262,-0.388,0.143,-0.303,0.285,-1.141,0.176,0.369,-0.136,-0.379
1263,-0.494,0.119,-0.221,0.33,-1.218,0.065,0.369,-0.136,-0.379
1264,-0.564,0.079,-0.105,0.302,-1.299,0.026,0.367,-0.132,-0.394
1265,-0.674,0.168,-0.045,0.281,-1.331,0.054,0.388,-0.139,-0.382
1266,-0.87,0.397,-0.034,0.325,-1.316,0.01,0.388,-0.136,-0.405
1267,-1.105,0.669,-0.058,0.424,-1.301,-0.108,0.373,-0.123,-0.388
1268,-1.239,0.833,0.077,0.341,-1.327,-0.104,0.396,-0.124,-0.405
1269,-1.202,0.576,0.31,-0.044,-1.32,-0.05,0.396,-0.124,-0.405
1270,-1.235,0.529,0.402,-0.044,-1.32,-0.05,0.399,-0.13,-0.42
1271,-1.348,0.6,0.385,-0.324,-1.313,-0.112,0.399,-0.133,-0.426
1272,-1.382,0.47,0.42,-0.337,-1.412,-0.155,0.375,-0.127,-0.432
1273,-1.399,0.018,0.431,-0.289,-1.534,-0.101,0.393,-0.115,-0.45
1274,-1.5,-0.699,0.373,-0.28,-1.575,0.045,0.378,-0.1,-0.442
1275,-1.5,-0.699,0.373,-0.292,-1.579,0.144,0.372,-0.126,-0.451
1276,-1.451,-1.116,0.391,-0.281,-1.603,-0.033,0.372,-0.126,-0.451
1277,-1.261,-1.243,0.523,-0.274,-1.515,-0.123,0.354,-0.099,-0.448
1278,-1.283,-1.411,0.545,-0.2,-1.346,-0.054,0.369,-0.109,-0.45
1279,-1.313,-1.668,0.493,-0.104,-1.198,-0.083,0.358,-0.082,-0.468
1280,-1.239,-1.34,0.514,-0.119,-1.128,-0.223,0.348,-0.087,-0.462
1281,-1.103,-0.676,0.597,-0.071,-1.068,-0.394,0.336,-0.085,-0.459
1282,-0.914,0.2,0.642,0.147,-1.062,-0.47,0.336,-0.085,-0.459
1283,-0.735,0.831,0.807,0.321,-1.171,-0.344,0.331,-0.061,-0.462
1284,-0.858,0.975,0.765,0.257,-1.143,-0.022,0.331,-0.061,-0.462
1285,-1.031,1.17,0.655,0.165,-1.104,0.025,0.352,-0.058,-0.481
1286,-1.187,1.359,0.575,0.111,-1.097,-0.095,0.34,-0.066,-0.511
1287,-1.327,1.5,0.439,0.054,-0.978,-0.16,0.343,-0.055,-0.498
1288,-1.257,1.675,0.369,0.011,-0.823,-0.164,0.343,-0.055,-0.498
1289,-1.159,1.761,0.288,-0.048,-0.717,-0.056,0.33,-0.036,-0.516
1290,-1.072,1.752,0.191,-0.099,-0.652,0.03,0.345,-0.048,-0.526
1291,-1.008,1.711,0.109,-0.099,-0.652,0.03,0.366,-0.036,-0.537
1292,-0.968,1.687,0.045,-0.143,-0.62,0.069,0.349,-0.034,-0.571
1293,-0.904,1.582,0.009,-0.182,-0.631,0.103,0.375,-0.028,-0.565
1294,-0.904,1.582,0.009,-0.215,-0.652,0.133,0.375,-0.028,-0.565
1295,-0.784,1.491,-0.001,-0.229,-0.668,0.162,0.366,0.0,-0.583
1296,-0.613,1.386,0.046,-0.208,-0.686,0.161,0.39,-0.013,-0.571
1297,-0.429,1.292,0.103,-0.164,-0.678,0.125,0.399,-0.015,-0.576
1298,-0.284,1.197,0.136,-0.131,-0.648,0.105,0.399,-0.015,-0.576
1299,-0.175,1.084,0.156,-0.133,-0.618,0.118,0.406,-0.006,-0.612
1300,-0.087,0.924,0.161,-0.122,-0.595,0.145,0.415,-0.015,-0.606
1301,-0.01,0.76,0.161,-0.086,-0.583,0.191,0.415,-0.015,-0.606
1302,0.066,0.604,0.17,-0.071,-0.566,0.255,0.423,-0.012,-0.616
1303,0.159,0.465,0.175,-0.061,-0.534,0.299,0.418,-0.016,-0.589
1304,0.278,0.343,0.191,-0.058,-0.498,0.331,0.417,-0.003,-0.613
1305,0.415,0.256,0.211,-0.077,-0.444,0.339,0.403,-0.012,-0.595
1306,0.557,0.189,0.217,-0.075,-0.409,0.34,0.411,-0.003,-0.603
1307,0.679,0.128,0.225,-0.045,-0.43,0.345,0.408,-0.025,-0.598
1308,0.758,0.086,0.195,0.0,-0.46,0.386,0.408,-0.025,-0.598
1309,0.802,0.054,0.163,0.069,-0.506,0.456,0.418,-0.015,-0.613
1310,0.82,0.016,0.146,0.069,-0.506,0.456,0.406,-0.022,-0.601
1311,0.822,-0.023,0.14,0.136,-0.616,0.516,0.412,-0.013,-0.588
1312,0.814,-0.066,0.16,0.167,-0.697,0.541,0.415,-0.03,-0.601
1313,0.791,-0.065,0.177,0.17,-0.751,0.552,0.408,-0.042,-0.597
1314,0.791,-0.065,0.177,0.161,-0.853,0.602,0.402,-0.045,-0.592
1315,0.748,-0.056,0.22,0.16,-0.95,0.662,0.402,-0.045,-0.592
1316,0.686,0.03,0.255,0.173,-1.037,0.722,0.4,-0.024,-0.597
1317,0.57,0.123,0.311,0.173,-1.112,0.777,0.412,-0.054,-0.588
1318,0.401,0.211,0.331,0.173,-1.192,0.844,0.4,-0.046,-0.564
1319,0.193,0.17,0.336,0.195,-1.293,0.848,0.4,-0.046,-0.564
1320,-0.021,0.036,0.319,0.213,-1.394,0.718,0.388,-0.048,-0.567
1321,-0.166,-0.088,0.291,0.185,-1.425,0.563,0.405,-0.046,-0.579
1322,-0.282,0.028,0.231,0.14,-1.342,0.529,0.405,-0.046,-0.579
1323,-0.407,0.42,0.127,0.028,-1.071,0.619,0.393,-0.042,-0.571
1324,-0.43,0.828,0.013,-0.142,-0.652,0.695,0.399,-0.046,-0.576
1325,-0.286,1.013,-0.056,-0.245,-0.322,0.688,0.402,-0.033,-0.577
1326,-0.09,1.009,-0.103,-0.231,-0.157,0.586,0.424,-0.045,-0.582
1327,0.111,0.861,-0.099,-0.223,-0.137,0.448,0.423,-0.033,-0.604
1328,0.273,0.476,-0.02,-0.292,-0.36,0.34,0.426,-0.031,-0.603
1329,0.27,-0.038,0.055,-0.292,-0.36,0.34,0.426,-0.031,-0.603
1330,0.057,-0.266,0.03,-0.263,-0.953,0.262,0.417,-0.058,-0.589
1331,-0.207,-0.207,-0.028,-0.172,-1.67,0.23,0.408,-0.04,-0.591
1332,-0.41,-0.175,-0.065,-0.085,-1.995,0.271,0.412,-0.052,-0.567
1333,-0.448,-0.267,-0.018,0.087,-1.998,0.344,0.412,-0.052,-0.567
1334,-0.448,-0.267,-0.018,0.246,-1.789,0.398,0.402,-0.048,-0.592
1335,-0.227,-0.689,0.098,0.177,-1.112,0.109,0.411,-0.048,-0.592
1336,0.195,-1.038,0.109,-0.158,-0.475,-0.391,0.411,-0.048,-0.592
1337,0.441,-0.834,-0.027,-0.452,-0.277,-0.384,0.418,-0.048,-0.579
1338,0.396,-0.559,-0.205,-0.443,-0.312,0.033,0.396,-0.055,-0.583
1339,0.28,-0.691,-0.331,-0.23,-0.442,0.212,0.405,-0.055,-0.58
1340,0.349,-1.202,-0.354,0.011,-0.614,-0.025,0.382,-0.048,-0.574
1341,0.567,-1.694,-0.295,0.158,-0.886,-0.354,0.369,-0.064,-0.559
1342,0.772,-1.758,-0.209,0.256,-1.201,-0.494,0.391,-0.067,-0.544
1343,0.825,-1.499,-0.092,0.419,-1.403,-0.427,0.391,-0.067,-0.544
1344,0.759,-1.186,0.041,0.537,-1.45,-0.245,0.378,-0.064,-0.562
1345,0.7,-1.001,0.163,0.514,-1.366,-0.053,0.367,-0.069,-0.555
1346,0.761,-1.01,0.226,0.114,-0.934,0.135,0.373,-0.078,-0.517
1347,0.769,-0.958,0.125,-0.061,-0.839,0.199,0.345,-0.094,-0.51
1348,0.814,-1.051,0.06,-0.061,-0.839,0.199,0.349,-0.076,-0.517
1349,0.843,-1.32,-0.077,-0.141,-0.815,0.251,0.349,-0.076,-0.517
1350,0.898,-1.407,-0.19,-0.216,-0.733,0.23,0.346,-0.094,-0.516
1351,0.931,-1.344,-0.255,-0.174,-0.754,0.061,0.34,-0.096,-0.492
1352,0.931,-1.344,-0.255,0.022,-0.871,-0.119,0.319,-0.096,-0.459
1353,0.858,-1.181,-0.333,0.203,-0.949,-0.238,0.319,-0.096,-0.459
1354,0.808,-0.925,-0.348,0.335,-1.038,-0.301,0.316,-0.097,-0.441
1355,0.73,-0.725,-0.343,0.389,-1.064,-0.221,0.318,-0.102,-0.463
1356,0.667,-0.637,-0.296,0.387,-1.03,-0.086,0.318,-0.102,-0.463
1357,0.644,-0.571,-0.266,0.343,-0.968,-0.055,0.31,-0.12,-0.432
1358,0.656,-0.457,-0.219,0.295,-0.92,-0.083,0.327,-0.132,-0.439
1359,0.64,-0.338,-0.193,0.232,-0.904,-0.061,0.328,-0.12,-0.409
1360,0.627,-0.267,-0.182,0.162,-0.869,-0.026,0.33,-0.124,-0.424
1361,0.63,-0.254,-0.161,0.128,-0.849,0.0,0.333,-0.129,-0.417
1362,0.596,-0.274,-0.151,0.098,-0.85,0.05,0.328,-0.138,-0.43
1363,0.555,-0.332,-0.152,0.085,-0.841,0.07,0.328,-0.138,-0.43
1364,0.517,-0.39,-0.175,0.098,-0.834,0.051,0.321,-0.121,-0.412
1365,0.471,-0.434,-0.207,0.132,-0.859,0.009,0.34,-0.133,-0.397
1366,0.452,-0.45,-0.222,0.178,-0.888,-0.016,0.336,-0.117,-0.369
1367,0.438,-0.436,-0.226,0.202,-0.907,-0.004,0.336,-0.117,-0.369
1368,0.432,-0.377,-0.232,0.202,-0.907,-0.004,0.33,-0.141,-0.384
1369,0.429,-0.341,-0.244,0.21,-0.901,-0.003,0.327,-0.139,-0.366
1370,0.455,-0.324,-0.248,0.22,-0.884,-0.013,0.327,-0.139,-0.366
1371,0.501,-0.293,-0.251,0.221,-0.862,-0.034,0.333,-0.132,-0.382
1372,0.553,-0.247,-0.262,0.208,-0.848,-0.063,0.337,-0.124,-0.372
1373,0.553,-0.247,-0.262,0.186,-0.86,-0.063,0.34,-0.145,-0.349
1374,0.591,-0.22,-0.277,0.162,-0.884,-0.036,0.339,-0.151,-0.36
1375,0.604,-0.214,-0.306,0.143,-0.913,-0.007,0.336,-0.139,-0.366
1376,0.611,-0.184,-0.312,0.115,-0.924,0.006,0.334,-0.151,-0.345
1377,0.585,-0.166,-0.354,0.089,-0.945,0.04,0.334,-0.151,-0.345
1378,0.588,-0.161,-0.354,0.082,-0.97,0.053,0.34,-0.162,-0.351
1379,0.569,-0.161,-0.352,0.086,-0.991,0.046,0.336,-0.148,-0.345
1380,0.513,-0.22,-0.395,0.116,-1.032,0.041,0.328,-0.153,-0.328
1381,0.492,-0.253,-0.378,0.131,-1.053,0.032,0.348,-0.16,-0.328
1382,0.404,-0.3,-0.379,0.124,-1.065,0.04,0.342,-0.16,-0.321
1383,0.346,-0.303,-0.343,0.123,-1.08,0.045,0.349,-0.178,-0.315
1384,0.264,-0.273,-0.314,0.122,-1.09,0.067,0.349,-0.178,-0.315
1385,0.165,-0.236,-0.302,0.146,-1.088,0.091,0.355,-0.174,-0.322
1386,0.059,-0.229,-0.294,0.18,-1.078,0.092,0.355,-0.165,-0.328
1387,0.019,-0.258,-0.266,0.179,-1.062,0.094,0.352,-0.168,-0.316
1388,0.005,-0.286,-0.242,0.179,-1.062,0.094,0.352,-0.168,-0.316
1389,-0.025,-0.224,-0.254,0.146,-1.034,0.094,0.367,-0.163,-0.319
1390,-0.074,-0.121,-0.287,0.12,-1.037,0.106,0.372,-0.169,-0.324
1391,-0.074,-0.121,-0.287,0.133,-1.084,0.16,0.372,-0.169,-0.324
1392,-0.161,0.011,-0.298,0.221,-1.153,0.179,0.363,-0.186,-0.297
1393,-0.262,0.1,-0.273,0.333,-1.207,0.124,0.352,-0.181,-0.298
1394,-0.345,0.094,-0.2,0.397,-1.275,0.029,0.345,-0.171,-0.297
1395,-0.401,0.149,-0.114,0.437,-1.342,-0.041,0.358,-0.168,-0.315
1396,-0.494,0.308,-0.058,0.442,-1.374,-0.018,0.379,-0.168,-0.333
1397,-0.662,0.499,-0.088,0.412,-1.354,-0.013,0.367,-0.181,-0.316
1398,-0.865,0.697,-0.106,0.389,-1.321,-0.091,0.367,-0.181,-0.316
1399,-1.023,0.802,-0.004,0.266,-1.33,-0.105,0.373,-0.183,-0.345
1400,-1.084,0.808,0.148,0.0,-1.295,-0.064,0.366,-0.178,-0.339
1401,-1.19,0.802,0.205,-0.21,-1.265,-0.027,0.369,-0.199,-0.361
1402,-1.358,0.879,0.152,-0.289,-1.272,-0.043,0.369,-0.199,-0.361
1403,-1.407,0.882,0.117,-0.273,-1.272,-0.09,0.373,-0.174,-0.393
1404,-1.39,0.715,0.112,-0.211,-1.308,-0.089,0.369,-0.186,-0.402
1405,-1.356,0.461,0.129,-0.196,-1.374,-0.021,0.369,-0.186,-0.402
1406,-1.381,0.049,0.116,-0.215,-1.404,0.045,0.364,-0.163,-0.412
1407,-1.432,-0.32,0.114,-0.183,-1.396,-0.027,0.367,-0.165,-0.418
1408,-1.487,-0.51,0.137,-0.159,-1.331,-0.133,0.364,-0.184,-0.426
1409,-1.477,-0.538,0.194,-0.159,-1.331,-0.133,0.342,-0.201,-0.424
1410,-1.387,-0.574,0.29,-0.175,-1.252,-0.157,0.361,-0.162,-0.439
1411,-1.265,-0.609,0.443,-0.195,-1.195,-0.106,0.342,-0.174,-0.457
1412,-1.265,-0.609,0.443,-0.167,-1.13,-0.086,0.342,-0.174,-0.457
1413,-1.164,-0.589,0.393,-0.189,-1.091,-0.121,0.361,-0.169,-0.456
1414,-1.146,-0.275,0.326,-0.183,-1.096,-0.187,0.339,-0.163,-0.444
1415,-1.131,0.072,0.337,-0.007,-1.135,-0.252,0.328,-0.154,-0.466
1416,-0.998,0.424,0.453,0.161,-1.19,-0.233,0.337,-0.15,-0.477
1417,-1.001,0.783,0.569,0.194,-1.226,-0.074,0.331,-0.139,-0.474
1418,-1.176,0.975,0.59,0.129,-1.181,0.04,0.342,-0.121,-0.504
1419,-1.241,1.095,0.576,0.071,-1.062,-0.026,0.342,-0.121,-0.504
1420,-1.191,1.245,0.553,0.007,-0.913,-0.097,0.342,-0.129,-0.499
1421,-1.129,1.4,0.478,-0.017,-0.792,-0.077,0.346,-0.138,-0.504
1422,-1.059,1.467,0.37,-0.031,-0.729,-0.013,0.343,-0.115,-0.54
1423,-0.991,1.442,0.304,-0.039,-0.691,0.0,0.343,-0.115,-0.54
1424,-0.884,1.483,0.287,-0.047,-0.704,0.032,0.372,-0.106,-0.57
1425,-0.806,1.39,0.293,-0.074,-0.743,0.093,0.355,-0.103,-0.589
1426,-0.732,1.307,0.306,-0.076,-0.746,0.134,0.355,-0.103,-0.589
1427,-0.656,1.261,0.3,-0.076,-0.746,0.134,0.358,-0.096,-0.57
1428,-0.583,1.239,0.289,-0.075,-0.712,0.137,0.372,-0.082,-0.579
1429,-0.488,1.195,0.271,-0.084,-0.671,0.113,0.36,-0.091,-0.609
1430,-0.361,1.097,0.27,-0.118,-0.63,0.122,0.378,-0.093,-0.604
1431,-0.229,1.013,0.274,-0.15,-0.583,0.131,0.402,-0.09,-0.597
1432,-0.229,1.013,0.274,-0.164,-0.538,0.136,0.4,-0.079,-0.612
1433,-0.142,0.9,0.252,-0.177,-0.499,0.166,0.4,-0.079,-0.612
1434,-0.039,0.746,0.233,-0.177,-0.472,0.214,0.408,-0.076,-0.627
1435,0.08,0.569,0.219,-0.165,-0.469,0.263,0.403,-0.069,-0.648
1436,0.205,0.414,0.218,-0.151,-0.473,0.284,0.406,-0.072,-0.624
1437,0.329,0.29,0.207,-0.129,-0.467,0.293,0.406,-0.072,-0.624
1438,0.474,0.185,0.2,-0.122,-0.444,0.303,0.406,-0.096,-0.621
1439,0.622,0.089,0.2,-0.117,-0.439,0.306,0.421,-0.087,-0.625
1440,0.739,0.012,0.212,-0.081,-0.462,0.315,0.421,-0.087,-0.625
1441,0.831,-0.024,0.205,-0.031,-0.514,0.346,0.409,-0.099,-0.616
1442,0.888,-0.027,0.195,0.029,-0.598,0.398,0.394,-0.079,-0.615
1443,0.912,-0.011,0.179,0.089,-0.704,0.485,0.4,-0.093,-0.619
1444,0.898,0.038,0.168,0.125,-0.787,0.581,0.384,-0.103,-0.621
1445,0.854,0.123,0.168,0.145,-0.857,0.659,0.396,-0.114,-0.597
1446,0.773,0.203,0.183,0.176,-0.944,0.725,0.4,-0.105,-0.592
1447,0.666,0.237,0.23,0.176,-0.944,0.725,0.4,-0.105,-0.592
1448,0.518,0.276,0.262,0.186,-0.998,0.785,0.399,-0.114,-0.585
1449,0.333,0.305,0.299,0.215,-1.072,0.841,0.405,-0.115,-0.606
1450,0.141,0.31,0.336,0.275,-1.175,0.876,0.388,-0.142,-0.573
1451,0.011,0.238,0.344,0.309,-1.29,0.894,0.396,-0.124,-0.6
1452,0.011,0.238,0.344,0.286,-1.43,0.853,0.417,-0.118,-0.595
1453,-0.065,0.077,0.351,0.27,-1.492,0.723,0.39,-0.103,-0.612
1454,-0.191,0.063,0.323,0.243,-1.429,0.679,0.39,-0.103,-0.612
1455,-0.403,0.392,0.244,0.084,-1.141,0.733,0.42,-0.114,-0.601
1456,-0.48,0.847,0.147,-0.154,-0.612,0.71,0.376,-0.103,-0.606
1457,-0.297,1.124,0.057,-0.296,-0.153,0.552,0.39,-0.115,-0.607
1458,0.028,1.155,-0.044,-0.304,0.101,0.369,0.396,-0.102,-0.612
1459,0.322,0.852,-0.077,-0.328,0.089,0.289,0.424,-0.093,-0.631
1460,0.344,0.217,-0.1,-0.399,-0.343,0.213,0.42,-0.094,-0.624
1461,0.098,-0.137,-0.226,-0.489,-1.145,0.195,0.42,-0.094,-0.624
1462,-0.21,0.002,-0.367,-0.484,-1.802,0.226,0.412,-0.112,-0.627
1463,-0.459,0.506,-0.497,-0.363,-1.996,0.219,0.409,-0.105,-0.624
1464,-0.503,0.416,-0.282,0.336,-1.772,0.471,0.438,-0.103,-0.618
1465,-0.124,-0.572,0.02,0.332,-1.091,0.049,0.43,-0.1,-0.63
1466,0.53,-1.234,0.145,0.332,-1.091,0.049,0.42,-0.093,-0.648
1467,0.759,-1.204,0.011,-0.153,-0.454,-0.519,0.42,-0.093,-0.648
1468,0.537,-0.845,-0.193,-0.488,-0.28,-0.368,0.421,-0.097,-0.619
1469,0.258,-0.659,-0.361,-0.487,-0.311,0.026,0.406,-0.078,-0.607
1470,0.179,-0.86,-0.436,-0.241,-0.385,0.162,0.406,-0.112,-0.618
1471,0.179,-0.86,-0.436,0.027,-0.517,0.039,0.406,-0.112,-0.618
1472,0.376,-1.287,-0.389,0.224,-0.713,-0.206,0.399,-0.103,-0.604
1473,0.692,-1.478,-0.233,0.374,-0.994,-0.414,0.406,-0.099,-0.588
1474,0.914,-1.334,-0.074,0.48,-1.299,-0.415,0.406,-0.099,-0.588
1475,0.952,-1.138,0.065,0.542,-1.469,-0.216,0.385,-0.123,-0.583
1476,0.858,-1.136,0.172,0.473,-1.479,0.074,0.36,-0.111,-0.562
1477,0.702,-1.241,0.278,0.308,-1.327,0.249,0.361,-0.111,-0.576
1478,0.698,-1.159,0.328,0.166,-1.056,0.113,0.34,-0.126,-0.54
1479,0.777,-0.857,0.299,-0.034,-0.87,0.061,0.363,-0.144,-0.562
1480,0.835,-0.788,0.221,-0.226,-0.761,0.225,0.363,-0.144,-0.562
1481,0.854,-0.996,0.106,-0.281,-0.658,0.245,0.346,-0.126,-0.534
1482,0.919,-1.208,0.071,-0.228,-0.66,0.147,0.36,-0.126,-0.556
1483,0.958,-1.351,0.015,-0.133,-0.7,0.004,0.34,-0.12,-0.502
1484,0.959,-1.203,-0.035,0.029,-0.808,-0.194,0.333,-0.15,-0.507
1485,0.933,-0.962,-0.058,0.029,-0.808,-0.194,0.319,-0.138,-0.469
1486,0.8,-0.837,-0.129,0.143,-0.945,-0.162,0.319,-0.138,-0.469
1487,0.725,-0.791,-0.142,0.245,-1.006,-0.131,0.319,-0.144,-0.477
1488,0.772,-0.781,-0.068,0.351,-1.036,-0.17,0.322,-0.138,-0.502
1489,0.829,-0.682,-0.031,0.355,-1.004,-0.11,0.34,-0.168,-0.471
1490,0.829,-0.682,-0.031,0.349,-0.948,-0.123,0.324,-0.148,-0.46
1491,0.784,-0.576,-0.081,0.241,-0.892,-0.05,0.315,-0.172,-0.46
1492,0.7,-0.443,-0.099,0.129,-0.876,0.012,0.315,-0.172,-0.46
1493,0.627,-0.29,-0.126,0.117,-0.886,0.006,0.312,-0.144,-0.451
1494,0.581,-0.268,-0.137,0.122,-0.889,-0.002,0.313,-0.166,-0.436
1495,0.572,-0.346,-0.123,0.134,-0.891,-0.039,0.318,-0.18,-0.433
1496,0.548,-0.394,-0.129,0.144,-0.893,-0.062,0.319,-0.151,-0.444
1497,0.513,-0.403,-0.136,0.174,-0.913,-0.074,0.309,-0.178,-0.447
1498,0.474,-0.382,-0.142,0.194,-0.93,-0.068,0.309,-0.178,-0.447
1499,0.44,-0.366,-0.153,0.182,-0.929,-0.047,0.303,-0.16,-0.406
1500,0.431,-0.357,-0.153,0.167,-0.917,-0.048,0.303,-0.16,-0.406
1501,0.444,-0.343,-0.16,0.136,-0.906,-0.047,0.318,-0.193,-0.414
1502,0.446,-0.337,-0.186,0.101,-0.899,-0.017,0.319,-0.177,-0.424
1503,0.448,-0.312,-0.21,0.089,-0.89,-0.017,0.316,-0.186,-0.409
1504,0.473,-0.262,-0.227,0.089,-0.89,-0.017,0.316,-0.186,-0.409
1505,0.512,-0.214,-0.242,0.091,-0.922,-0.055,0.313,-0.178,-0.409
1506,0.545,-0.19,-0.255,0.091,-0.922,-0.055,0.309,-0.162,-0.399
1507,0.56,-0.205,-0.276,0.083,-0.954,-0.015,0.318,-0.187,-0.384
1508,0.565,-0.212,-0.282,0.083,-0.963,0.023,0.318,-0.187,-0.384
1509,0.565,-0.212,-0.282,0.088,-0.957,0.036,0.318,-0.187,-0.384
1510,0.527,-0.226,-0.32,0.109,-0.957,0.015,0.316,-0.181,-0.393
1511,0.529,-0.198,-0.317,0.132,-0.954,-0.001,0.34,-0.199,-0.376
1512,0.51,-0.186,-0.309,0.155,-0.973,0.008,0.325,-0.183,-0.384
1513,0.43,-0.232,-0.334,0.212,-0.992,-0.023,0.325,-0.201,-0.357
1514,0.426,-0.249,-0.291,0.235,-1.014,-0.035,0.318,-0.205,-0.367
1515,0.401,-0.284,-0.241,0.216,-1.071,-0.003,0.318,-0.205,-0.367
1516,0.343,-0.301,-0.203,0.207,-1.101,0.008,0.322,-0.196,-0.358
1517,0.249,-0.288,-0.197,0.209,-1.087,0.01,0.331,-0.198,-0.37
1518,0.172,-0.24,-0.186,0.215,-1.094,0.042,0.343,-0.198,-0.357
1519,0.062,-0.268,-0.194,0.211,-1.109,0.069,0.36,-0.205,-0.351
1520,0.028,-0.317,-0.164,0.182,-1.103,0.055,0.336,-0.211,-0.337
1521,-0.014,-0.305,-0.161,0.123,-1.078,0.034,0.336,-0.211,-0.337
1522,-0.074,-0.22,-0.203,0.092,-1.055,0.054,0.331,-0.196,-0.334
1523,-0.148,-0.092,-0.272,0.119,-1.071,0.142,0.337,-0.195,-0.358
1524,-0.214,-0.019,-0.297,0.2,-1.101,0.198,0.354,-0.211,-0.36
1525,-0.291,0.009,-0.27,0.2,-1.101,0.198,0.324,-0.183,-0.355
1526,-0.269,-0.066,-0.211,0.302,-1.112,0.115,0.346,-0.204,-0.351
1527,-0.305,-0.08,-0.112,0.405,-1.153,0.061,0.346,-0.204,-0.351
1528,-0.353,0.056,-0.058,0.437,-1.199,-0.028,0.348,-0.207,-0.361
1529,-0.455,0.221,-0.063,0.362,-1.265,-0.068,0.358,-0.21,-0.366
1530,-0.455,0.221,-0.063,0.281,-1.345,0.015,0.358,-0.231,-0.358
1531,-0.626,0.403,-0.068,0.249,-1.362,-0.003,0.351,-0.219,-0.378
1532,-0.817,0.499,-0.022,0.183,-1.356,-0.036,0.349,-0.204,-0.373
1533,-0.964,0.527,0.048,0.035,-1.326,-0.038,0.349,-0.204,-0.373
1534,-1.089,0.641,0.133,-0.08,-1.293,-0.044,0.349,-0.189,-0.396
1535,-1.21,0.805,0.189,-0.14,-1.278,-0.05,0.343,-0.199,-0.397
1536,-1.238,0.915,0.193,-0.159,-1.214,-0.059,0.343,-0.199,-0.397
1537,-1.321,0.873,0.158,-0.175,-1.254,0.016,0.348,-0.199,-0.438
1538,-1.404,0.632,0.159,-0.197,-1.391,0.143,0.364,-0.195,-0.45
1539,-1.528,0.227,0.119,-0.2,-1.411,0.133,0.352,-0.177,-0.45
1540,-1.558,-0.133,0.124,-0.164,-1.389,0.012,0.352,-0.177,-0.45
1541,-1.609,-0.41,0.072,-0.11,-1.349,-0.082,0.373,-0.18,-0.444
1542,-1.601,-0.642,0.093,-0.108,-1.295,-0.088,0.366,-0.174,-0.454
1543,-1.47,-0.711,0.193,-0.153,-1.272,-0.082,0.351,-0.183,-0.465
1544,-1.324,-0.701,0.312,-0.2,-1.217,-0.075,0.352,-0.163,-0.483
1545,-1.254,-0.679,0.264,-0.2,-1.217,-0.075,0.355,-0.162,-0.49
1546,-1.243,-0.357,0.25,-0.226,-1.14,-0.111,0.349,-0.148,-0.478
1547,-1.177,0.017,0.27,-0.155,-1.095,-0.251,0.349,-0.148,-0.478
1548,-1.163,0.378,0.354,-0.017,-1.142,-0.269,0.348,-0.169,-0.495
1549,-1.163,0.378,0.354,0.104,-1.253,-0.154,0.319,-0.138,-0.486
1550,-1.155,0.747,0.463,0.145,-1.271,-0.086,0.351,-0.139,-0.505
1551,-1.231,0.958,0.524,0.125,-1.227,-0.003,0.34,-0.135,-0.513
1552,-1.418,1.053,0.506,0.106,-1.095,-0.086,0.352,-0.126,-0.541
1553,-1.493,1.218,0.43,0.016,-0.965,-0.157,0.355,-0.121,-0.549
1554,-1.42,1.324,0.34,-0.049,-0.86,-0.076,0.355,-0.121,-0.549
1555,-1.29,1.329,0.24,-0.085,-0.715,-0.017,0.358,-0.109,-0.565
1556,-1.211,1.352,0.151,-0.056,-0.665,-0.023,0.357,-0.097,-0.553
1557,-1.084,1.415,0.134,-0.043,-0.677,0.011,0.357,-0.097,-0.553
1558,-1.024,1.391,0.1,-0.084,-0.666,0.094,0.387,-0.088,-0.582
1559,-0.95,1.454,0.095,-0.063,-0.661,0.081,0.37,-0.093,-0.592
1560,-0.846,1.483,0.127,-0.052,-0.696,0.082,0.402,-0.076,-0.615
1561,-0.637,1.467,0.172,-0.08,-0.659,0.065,0.402,-0.076,-0.615
1562,-0.424,1.402,0.186,-0.147,-0.561,0.087,0.403,-0.075,-0.607
1563,-0.378,1.286,0.126,-0.202,-0.497,0.139,0.405,-0.07,-0.627
1564,-0.338,1.148,0.047,-0.246,-0.413,0.147,0.411,-0.082,-0.616
1565,-0.24,0.98,-0.009,-0.246,-0.413,0.147,0.415,-0.084,-0.642
1566,-0.103,0.788,-0.031,-0.266,-0.354,0.163,0.423,-0.088,-0.634
1567,0.079,0.581,-0.02,-0.244,-0.355,0.19,0.438,-0.058,-0.631
1568,0.079,0.581,-0.02,-0.207,-0.367,0.215,0.438,-0.058,-0.631
1569,0.462,0.226,0.047,-0.158,-0.402,0.242,0.439,-0.079,-0.639
1570,0.462,0.226,0.047,-0.119,-0.423,0.283,0.436,-0.069,-0.618
1571,0.641,0.098,0.111,-0.098,-0.417,0.321,0.436,-0.069,-0.618
1572,0.8,0.008,0.15,-0.067,-0.426,0.363,0.43,-0.061,-0.643
1573,0.908,-0.069,0.171,-0.045,-0.466,0.429,0.417,-0.084,-0.634
1574,0.963,-0.162,0.189,-0.045,-0.506,0.488,0.418,-0.088,-0.619
1575,0.98,-0.212,0.18,-0.026,-0.553,0.535,0.418,-0.088,-0.619
1576,0.981,-0.172,0.173,0.004,-0.652,0.599,0.418,-0.114,-0.619
1577,0.954,-0.078,0.177,0.022,-0.765,0.67,0.423,-0.099,-0.589
1578,0.906,0.026,0.174,0.021,-0.856,0.73,0.424,-0.099,-0.589
1579,0.825,0.131,0.183,0.025,-1.004,0.821,0.415,-0.108,-0.603
1580,0.686,0.252,0.183,0.05,-1.145,0.863,0.432,-0.099,-0.612
1581,0.462,0.379,0.189,0.068,-1.287,0.882,0.432,-0.099,-0.612
1582,0.157,0.429,0.223,0.074,-1.496,0.91,0.414,-0.132,-0.592
1583,-0.105,0.331,0.249,0.04,-1.695,0.866,0.429,-0.103,-0.576
1584,-0.319,0.023,0.269,0.038,-1.766,0.7,0.42,-0.111,-0.595
1585,-0.473,0.282,0.257,0.021,-1.64,0.6,0.418,-0.106,-0.582
1586,-0.583,0.665,0.184,-0.148,-1.274,0.722,0.429,-0.091,-0.615
1587,-0.583,0.665,0.184,-0.382,-0.795,0.818,0.429,-0.091,-0.615
1588,-0.494,0.874,0.116,-0.522,-0.524,0.753,0.439,-0.1,-0.597
1589,-0.336,0.901,-0.002,-0.476,-0.639,0.61,0.439,-0.097,-0.615
1590,-0.276,0.779,-0.14,-0.295,-0.947,0.386,0.436,-0.097,-0.604
1591,-0.248,0.55,-0.212,-0.153,-1.208,0.156,0.436,-0.097,-0.604
1592,-0.35,0.245,-0.215,-0.114,-1.363,0.123,0.433,-0.09,-0.604
1593,-0.334,0.078,-0.141,-0.148,-1.244,0.206,0.463,-0.081,-0.627
1594,-0.196,-0.137,-0.001,-0.171,-0.949,0.244,0.463,-0.081,-0.627
1595,0.046,-0.591,0.087,-0.189,-0.654,0.101,0.459,-0.087,-0.634
1596,0.333,-1.017,0.079,-0.246,-0.546,-0.092,0.445,-0.102,-0.639
1597,0.387,-1.107,-0.007,-0.244,-0.681,-0.078,0.424,-0.084,-0.604
1598,0.256,-0.967,-0.116,-0.147,-0.82,0.02,0.429,-0.112,-0.607
1599,0.211,-0.982,-0.203,-0.032,-0.86,-0.008,0.444,-0.108,-0.613
1600,0.345,-1.109,-0.249,0.058,-0.895,-0.098,0.426,-0.084,-0.601
1601,0.529,-1.169,-0.244,0.129,-0.977,-0.114,0.426,-0.084,-0.601
1602,0.663,-1.124,-0.216,0.233,-1.076,-0.117,0.423,-0.103,-0.625
1603,0.737,-1.038,-0.124,0.352,-1.16,-0.154,0.43,-0.093,-0.586
1604,0.73,-0.956,-0.026,0.379,-1.193,-0.14,0.402,-0.099,-0.577
1605,0.678,-0.889,0.077,0.379,-1.193,-0.14,0.393,-0.099,-0.567
1606,0.655,-0.836,0.152,0.345,-1.162,-0.1,0.414,-0.124,-0.573
1607,0.655,-0.836,0.152,0.268,-1.083,-0.047,0.4,-0.129,-0.57
1608,0.644,-0.838,0.181,0.149,-1.001,0.099,0.4,-0.129,-0.57
1609,0.659,-0.9,0.201,0.08,-0.903,0.162,0.409,-0.135,-0.558
1610,0.793,-0.881,0.214,0.085,-0.842,0.059,0.396,-0.135,-0.553
1611,0.878,-0.792,0.223,0.034,-0.893,0.088,0.393,-0.139,-0.531
1612,0.929,-0.933,0.228,-0.049,-0.917,0.194,0.367,-0.117,-0.528
1613,0.923,-1.143,0.188,-0.089,-0.889,0.212,0.382,-0.133,-0.538
1614,0.901,-1.231,0.093,-0.109,-0.828,0.121,0.39,-0.135,-0.523
1615,0.809,-1.143,-0.035,-0.076,-0.833,-0.045,0.39,-0.135,-0.523
1616,0.807,-0.903,-0.11,0.044,-0.912,-0.113,0.355,-0.151,-0.517
1617,0.73,-0.732,-0.187,0.193,-0.973,-0.124,0.364,-0.156,-0.487
1618,0.707,-0.616,-0.185,0.261,-1.004,-0.124,0.355,-0.144,-0.472
1619,0.7,-0.525,-0.175,0.254,-0.963,-0.094,0.361,-0.141,-0.492
1620,0.679,-0.445,-0.172,0.251,-0.944,-0.069,0.363,-0.147,-0.483
1621,0.665,-0.333,-0.168,0.222,-0.919,-0.072,0.366,-0.153,-0.492
1622,0.68,-0.23,-0.141,0.173,-0.892,-0.068,0.366,-0.153,-0.492
1623,0.711,-0.154,-0.094,0.173,-0.892,-0.068,0.352,-0.151,-0.472
1624,0.704,-0.107,-0.084,0.131,-0.908,-0.015,0.366,-0.168,-0.46
1625,0.637,-0.074,-0.115,0.115,-0.894,0.011,0.339,-0.165,-0.427
1626,0.589,-0.093,-0.109,0.13,-0.872,0.01,0.339,-0.165,-0.427
1627,0.574,-0.114,-0.114,0.139,-0.892,0.014,0.354,-0.159,-0.454
1628,0.574,-0.114,-0.114,0.143,-0.91,0.003,0.342,-0.171,-0.447
1629,0.569,-0.142,-0.136,0.14,-0.92,0.006,0.342,-0.171,-0.447
1630,0.56,-0.179,-0.161,0.139,-0.933,0.004,0.361,-0.18,-0.445
1631,0.55,-0.202,-0.182,0.133,-0.942,-0.004,0.378,-0.165,-0.424
1632,0.546,-0.217,-0.2,0.11,-0.93,-0.001,0.351,-0.183,-0.426
1633,0.529,-0.212,-0.224,0.085,-0.929,0.014,0.355,-0.181,-0.412
1634,0.527,-0.217,-0.259,0.073,-0.905,0.008,0.355,-0.186,-0.414
1635,0.539,-0.186,-0.28,0.074,-0.885,-0.012,0.364,-0.171,-0.418
1636,0.552,-0.158,-0.303,0.071,-0.901,-0.022,0.364,-0.171,-0.418
1637,0.578,-0.148,-0.326,0.058,-0.91,-0.019,0.373,-0.15,-0.399
1638,0.608,-0.142,-0.331,0.07,-0.934,-0.018,0.375,-0.174,-0.412
1639,0.612,-0.134,-0.329,0.088,-0.967,-0.003,0.37,-0.184,-0.381
1640,0.606,-0.165,-0.332,0.103,-0.983,0.006,0.37,-0.184,-0.765
1641,0.626,-0.182,-0.294,0.105,-0.995,0.024,0.376,-0.204,-0.393
1642,0.62,-0.207,-0.284,0.052,-1.03,0.096,0.375,-0.205,-0.388
1643,0.609,-0.237,-0.276,0.052,-1.03,0.096,0.375,-0.205,-0.388
1644,0.57,-0.252,-0.265,0.071,-1.016,0.102,0.384,-0.196,-0.379
1645,0.482,-0.281,-0.3,0.142,-0.989,0.059,0.387,-0.204,-0.384
1646,0.436,-0.273,-0.267,0.143,-1.029,0.083,0.388,-0.195,-0.372
1647,0.36,-0.238,-0.245,0.169,-1.02,0.054,0.388,-0.181,-0.367
1648,0.36,-0.238,-0.245,0.211,-1.021,-0.003,0.385,-0.19,-0.351
1649,0.282,-0.206,-0.231,0.233,-1.068,0.02,0.385,-0.19,-0.351
1650,0.182,-0.225,-0.232,0.263,-1.061,0.031,0.394,-0.195,-0.351
1651,0.117,-0.233,-0.203,0.271,-1.047,0.028,0.378,-0.199,-0.352
1652,0.08,-0.207,-0.17,0.241,-1.049,0.044,0.391,-0.21,-0.345
1653,0.037,-0.15,-0.159,0.173,-1.062,0.078,0.384,-0.202,-0.348
1654,-0.034,-0.086,-0.176,0.127,-1.079,0.136,0.387,-0.201,-0.366
1655,-0.098,-0.03,-0.197,0.146,-1.09,0.181,0.387,-0.201,-0.366
1656,-0.191,0.02,-0.221,0.211,-1.136,0.17,0.409,-0.208,-0.367
1657,-0.299,0.011,-0.186,0.28,-1.193,0.085,0.4,-0.196,-0.34
1658,-0.373,0.002,-0.112,0.332,-1.26,-0.025,0.4,-0.201,-0.357
1659,-0.408,0.114,-0.016,0.339,-1.331,-0.045,0.39,-0.213,-0.339
1660,-0.489,0.287,0.025,0.312,-1.36,0.01,0.381,-0.189,-0.367
1661,-0.65,0.457,0.006,0.293,-1.361,0.0,0.381,-0.189,-0.367
1662,-0.852,0.632,-0.017,0.254,-1.363,-0.051,0.409,-0.199,-0.369
1663,-0.998,0.767,0.08,0.254,-1.363,-0.051,0.394,-0.196,-0.358
1664,-1.044,0.587,0.157,0.078,-1.334,-0.019,0.403,-0.186,-0.378
1665,-1.223,0.557,0.14,-0.175,-1.255,-0.002,0.385,-0.183,-0.375
1666,-1.379,0.63,0.138,-0.302,-1.238,-0.063,0.406,-0.165,-0.409
1667,-1.379,0.63,0.138,-0.298,-1.199,-0.129,0.406,-0.165,-0.409
1668,-1.406,0.697,0.144,-0.265,-1.174,-0.151,0.384,-0.201,-0.391
1669,-1.382,0.585,0.179,-0.288,-1.271,-0.001,0.388,-0.163,-0.423
1670,-1.436,0.266,0.154,-0.323,-1.374,0.138,0.403,-0.175,-0.439
1671,-1.485,-0.076,0.117,-0.278,-1.415,0.088,0.393,-0.178,-0.46
1672,-1.466,-0.354,0.133,-0.185,-1.367,-0.03,0.391,-0.178,-0.468
1673,-1.362,-0.63,0.212,-0.133,-1.302,-0.102,0.391,-0.178,-0.468
1674,-1.299,-0.786,0.269,-0.131,-1.234,-0.115,0.403,-0.154,-0.487
1675,-1.283,-0.982,0.217,-0.132,-1.115,-0.112,0.403,-0.154,-0.487
1676,-1.136,-0.809,0.247,-0.153,-1.039,-0.193,0.379,-0.148,-0.469
1677,-1.066,-0.38,0.28,-0.086,-1.039,-0.254,0.39,-0.163,-0.477
1678,-1.122,-0.011,0.254,0.0,-1.056,-0.209,0.373,-0.15,-0.501
1679,-1.185,0.291,0.261,0.054,-1.142,-0.144,0.373,-0.15,-0.501
1680,-1.242,0.462,0.327,0.094,-1.199,-0.098,0.369,-0.145,-0.489
1681,-1.151,0.807,0.389,0.078,-1.139,-0.176,0.37,-0.159,-0.49
1682,-1.201,1.064,0.386,0.032,-1.065,-0.112,0.372,-0.127,-0.514
1683,-1.264,1.068,0.35,0.032,-1.065,-0.112,0.396,-0.147,-0.529
1684,-1.185,1.116,0.37,-0.01,-1.003,0.045,0.391,-0.127,-0.522
1685,-1.058,1.039,0.413,-0.016,-0.955,0.03,0.369,-0.115,-0.54
1686,-1.058,1.039,0.413,-0.034,-0.893,0.029,0.369,-0.115,-0.54
1687,-0.913,0.936,0.457,-0.08,-0.801,0.082,0.393,-0.112,-0.562
1688,-0.794,0.827,0.432,-0.13,-0.738,0.101,0.388,-0.112,-0.54
1689,-0.658,0.933,0.429,-0.14,-0.722,0.049,0.388,-0.112,-0.54
1690,-0.606,1.108,0.387,-0.132,-0.75,0.036,0.391,-0.103,-0.583
1691,-0.625,1.225,0.324,-0.13,-0.786,0.086,0.397,-0.088,-0.573
1692,-0.606,1.23,0.288,-0.128,-0.794,0.119,0.39,-0.088,-0.582
1693,-0.553,1.168,0.259,-0.144,-0.755,0.154,0.39,-0.088,-0.582
1694,-0.474,1.104,0.226,-0.191,-0.685,0.187,0.415,-0.084,-0.574
1695,-0.406,0.953,0.182,-0.233,-0.645,0.206,0.397,-0.064,-0.576
1696,-0.343,0.835,0.13,-0.257,-0.624,0.203,0.397,-0.064,-0.576
1697,-0.277,0.74,0.072,-0.269,-0.607,0.191,0.423,-0.07,-0.607
1698,-0.193,0.704,0.035,-0.255,-0.611,0.188,0.436,-0.09,-0.595
1699,-0.063,0.65,0.039,-0.208,-0.601,0.191,0.436,-0.091,-0.613
1700,0.086,0.545,0.075,-0.126,-0.649,0.226,0.436,-0.091,-0.613
1701,0.214,0.429,0.133,-0.053,-0.711,0.298,0.43,-0.067,-0.616
1702,0.44,0.196,0.21,-0.033,-0.682,0.348,0.427,-0.07,-0.6
1703,0.545,0.139,0.222,-0.02,-0.644,0.365,0.439,-0.073,-0.622
1704,0.615,0.135,0.219,-0.005,-0.637,0.364,0.444,-0.085,-0.606
1705,0.615,0.135,0.219,0.019,-0.67,0.357,0.439,-0.097,-0.607
1706,0.638,0.168,0.212,0.048,-0.718,0.386,0.439,-0.097,-0.607
1707,0.627,0.186,0.207,0.06,-0.754,0.438,0.432,-0.096,-0.601
1708,0.611,0.177,0.204,0.067,-0.793,0.449,0.435,-0.097,-0.606
1709,0.581,0.159,0.196,0.071,-0.816,0.44,0.415,-0.09,-0.58
1710,0.539,0.165,0.184,0.047,-0.834,0.44,0.415,-0.09,-0.58
1711,0.519,0.182,0.177,0.011,-0.833,0.435,0.429,-0.102,-0.612
1712,0.521,0.197,0.174,-0.02,-0.816,0.445,0.423,-0.088,-0.606
1713,0.546,0.189,0.168,-0.043,-0.814,0.472,0.423,-0.088,-0.606
1714,0.562,0.148,0.168,-0.048,-0.851,0.523,0.427,-0.108,-0.57
1715,0.552,0.093,0.174,-0.033,-0.906,0.584,0.426,-0.114,-0.582
1716,0.529,0.036,0.162,-0.013,-0.951,0.62,0.414,-0.115,-0.597
1717,0.457,-0.03,0.145,-0.001,-1.007,0.608,0.432,-0.121,-0.576
1718,0.344,-0.026,0.115,0.01,-1.081,0.56,0.421,-0.102,-0.568
1719,0.184,0.06,0.088,0.009,-1.156,0.518,0.412,-0.118,-0.576
1720,0.042,0.179,0.071,-0.025,-1.19,0.5,0.412,-0.118,-0.576
1721,-0.015,0.304,0.067,-0.025,-1.19,0.5,0.402,-0.132,-0.58
1722,-0.007,0.437,0.095,-0.027,-1.159,0.462,0.429,-0.108,-0.576
1723,0.041,0.641,0.151,0.006,-0.919,0.422,0.415,-0.1,-0.606
1724,0.119,0.52,0.175,-0.053,-0.771,0.429,0.442,-0.121,-0.582
1725,0.119,0.52,0.175,-0.135,-0.712,0.42,0.442,-0.115,-0.585
1726,0.171,0.338,0.167,-0.189,-0.766,0.381,0.442,-0.115,-0.585
1727,0.158,0.248,0.122,-0.181,-0.902,0.321,0.438,-0.121,-0.592
1728,0.147,0.292,0.052,-0.193,-1.125,0.281,0.435,-0.115,-0.576
1729,0.048,0.425,-0.027,-0.065,-1.657,0.242,0.424,-0.111,-0.58
1730,-0.057,0.357,0.018,0.078,-1.711,0.267,0.424,-0.115,-0.588
1731,-0.145,0.126,0.094,0.161,-1.465,0.237,0.441,-0.115,-0.589
1732,-0.055,-0.26,0.154,0.073,-1.036,0.055,0.441,-0.115,-0.589
1733,0.179,-0.546,0.147,-0.131,-0.706,-0.086,0.426,-0.129,-0.586
1734,0.298,-0.539,0.071,-0.249,-0.57,-0.045,0.423,-0.12,-0.58
1735,0.281,-0.376,-0.034,-0.248,-0.541,0.071,0.414,-0.117,-0.603
1736,0.218,-0.284,-0.148,-0.149,-0.596,0.139,0.429,-0.12,-0.591
1737,0.204,-0.31,-0.243,-0.019,-0.734,0.095,0.433,-0.094,-0.6
1738,0.254,-0.374,-0.298,0.097,-0.876,-0.013,0.433,-0.094,-0.6
1739,0.315,-0.35,-0.318,0.097,-0.876,-0.013,0.43,-0.109,-0.585
1740,0.347,-0.245,-0.291,0.202,-0.971,-0.111,0.429,-0.121,-0.591
1741,0.318,-0.11,-0.249,0.26,-1.056,-0.147,0.423,-0.138,-0.58
1742,0.303,-0.079,-0.163,0.278,-1.146,-0.108,0.43,-0.115,-0.585
1743,0.303,-0.079,-0.163,0.266,-1.19,-0.016,0.432,-0.106,-0.6
1744,0.296,-0.121,-0.06,0.234,-1.183,0.045,0.432,-0.106,-0.6
1745,0.303,-0.213,0.06,0.164,-1.138,0.09,0.429,-0.114,-0.583
1746,0.326,-0.365,0.148,0.085,-1.055,0.127,0.411,-0.135,-0.58
1747,0.365,-0.477,0.212,0.033,-0.975,0.114,0.414,-0.132,-0.601
1748,0.394,-0.505,0.226,-0.016,-0.926,0.107,0.409,-0.139,-0.568
1749,0.416,-0.483,0.203,-0.055,-0.893,0.111,0.409,-0.118,-0.574
1750,0.415,-0.438,0.142,-0.075,-0.876,0.108,0.409,-0.118,-0.574
1751,0.419,-0.393,0.081,-0.063,-0.886,0.082,0.418,-0.144,-0.558
1752,0.414,-0.354,0.025,-0.035,-0.935,0.057,0.405,-0.123,-0.571
1753,0.423,-0.35,-0.009,0.016,-0.984,0.039,0.417,-0.145,-0.565
1754,0.414,-0.345,-0.04,0.094,-1.006,0.016,0.393,-0.141,-0.568
1755,0.397,-0.321,-0.057,0.161,-1.013,-0.018,0.384,-0.151,-0.577
1756,0.404,-0.276,-0.044,0.209,-1.006,-0.06,0.384,-0.151,-0.577
1757,0.429,-0.245,-0.003,0.221,-0.988,-0.059,0.406,-0.139,-0.553
1758,0.432,-0.221,0.014,0.183,-0.956,-0.036,0.396,-0.126,-0.555
1759,0.43,-0.18,0.016,0.183,-0.956,-0.036,0.409,-0.142,-0.546
1760,0.434,-0.114,0.016,0.14,-0.934,-0.024,0.405,-0.142,-0.562
1761,0.434,-0.077,0.024,0.117,-0.938,-0.007,0.397,-0.166,-0.564
1762,0.434,-0.077,0.024,0.107,-0.944,0.011,0.397,-0.166,-0.564
1763,0.437,-0.121,0.042,0.109,-0.95,0.017,0.4,-0.165,-0.556
1764,0.437,-0.121,0.042,0.113,-0.959,0.014,0.387,-0.145,-0.546
1765,0.427,-0.147,0.038,0.108,-0.972,0.007,0.388,-0.168,-0.549
1766,0.406,-0.142,0.03,0.097,-0.985,-0.007,0.364,-0.169,-0.544
1767,0.377,-0.091,0.011,0.092,-0.994,-0.008,0.381,-0.183,-0.547
1768,0.34,-0.023,-0.004,0.096,-1.009,0.007,0.381,-0.183,-0.547
1769,0.329,0.014,0.011,0.108,-1.034,0.026,0.376,-0.159,-0.538
1770,0.287,-0.004,-0.026,0.074,-1.008,0.045,0.393,-0.166,-0.528
1771,0.259,-0.012,-0.051,0.037,-0.973,0.068,0.394,-0.148,-0.544
1772,0.251,-0.046,-0.051,0.041,-0.987,0.088,0.393,-0.171,-0.547
1773,0.254,-0.107,-0.044,0.033,-0.985,0.079,0.396,-0.157,-0.526
1774,0.266,-0.112,-0.031,0.04,-0.967,0.049,0.396,-0.157,-0.526
1775,0.26,-0.133,-0.027,0.057,-0.961,0.057,0.387,-0.165,-0.538
1776,0.254,-0.182,-0.019,0.068,-0.966,0.07,0.393,-0.18,-0.532
1777,0.245,-0.235,-0.009,0.085,-0.975,0.057,0.384,-0.166,-0.525
1778,0.237,-0.274,-0.004,0.099,-0.985,0.043,0.399,-0.184,-0.529
1779,0.234,-0.292,0.001,0.099,-0.985,0.043,0.402,-0.175,-0.517
1780,0.234,-0.296,0.0,0.111,-0.988,0.029,0.402,-0.175,-0.517
1781,0.226,-0.294,0.002,0.128,-0.992,0.015,0.376,-0.171,-0.516
1782,0.21,-0.288,0.001,0.145,-0.995,-0.004,0.379,-0.181,-0.516
1783,0.173,-0.273,-0.002,0.152,-1.002,-0.015,0.379,-0.178,-0.508
1784,0.173,-0.273,-0.002,0.145,-1.001,-0.022,0.376,-0.175,-0.513
1785,0.148,-0.245,-0.013,0.134,-1.0,-0.036,0.4,-0.172,-0.522
1786,0.115,-0.197,-0.03,0.117,-1.011,-0.037,0.4,-0.172,-0.522
1787,0.093,-0.126,-0.037,0.103,-1.001,-0.035,0.36,-0.195,-0.505
1788,0.077,-0.081,-0.044,0.095,-0.984,-0.038,0.375,-0.183,-0.528
1789,0.068,-0.059,-0.056,0.081,-0.979,-0.037,0.378,-0.19,-0.535
1790,0.071,-0.042,-0.07,0.072,-0.986,-0.038,0.387,-0.186,-0.522
1791,0.082,-0.018,-0.075,0.077,-0.984,-0.034,0.394,-0.201,-0.526
1792,0.099,-0.03,-0.077,0.085,-0.978,-0.019,0.394,-0.201,-0.526
1793,0.114,-0.089,-0.067,0.091,-0.978,-0.005,0.397,-0.204,-0.519
1794,0.126,-0.196,-0.065,0.078,-1.013,-0.027,0.375,-0.192,-0.526
1795,0.158,-0.198,-0.038,0.073,-1.033,-0.053,0.375,-0.192,-0.526
1796,0.175,-0.191,-0.024,0.088,-1.004,-0.048,0.381,-0.195,-0.526
1797,0.182,-0.201,-0.019,0.088,-1.004,-0.048,0.399,-0.177,-0.517
1798,0.191,-0.202,-0.011,0.079,-0.995,-0.028,0.385,-0.19,-0.514
1799,0.205,-0.21,0.005,0.081,-0.986,-0.025,0.385,-0.19,-0.514
1800,0.228,-0.245,0.019,0.091,-0.984,-0.033,0.37,-0.181,-0.522
1801,0.247,-0.281,0.029,0.086,-0.995,-0.04,0.364,-0.202,-0.52
1802,0.247,-0.294,0.026,0.08,-0.992,-0.062,0.37,-0.199,-0.513
1803,0.247,-0.294,0.026,0.076,-0.987,-0.08,0.39,-0.192,-0.505
1804,0.228,-0.275,0.01,0.077,-0.981,-0.083,0.384,-0.208,-0.508
1805,0.181,-0.266,-0.052,0.09,-0.987,-0.079,0.379,-0.195,-0.502
1806,0.156,-0.191,-0.056,0.093,-0.986,-0.096,0.379,-0.195,-0.502
1807,0.124,-0.112,-0.063,0.084,-0.969,-0.112,0.372,-0.189,-0.508
1808,0.105,-0.058,-0.075,0.081,-0.974,-0.12,0.373,-0.196,-0.495
1809,0.098,-0.018,-0.084,0.07,-0.98,-0.121,0.376,-0.22,-0.502
1810,0.09,0.015,-0.09,0.061,-0.98,-0.112,0.373,-0.213,-0.525
1811,0.083,0.025,-0.092,0.059,-0.978,-0.101,0.391,-0.204,-0.499
1812,0.074,0.022,-0.092,0.052,-0.964,-0.082,0.391,-0.204,-0.499
1813,0.07,0.021,-0.098,0.045,-0.975,-0.082,0.39,-0.19,-0.505
1814,0.078,0.033,-0.095,0.033,-0.989,-0.09,0.379,-0.207,-0.48
1815,0.089,0.041,-0.095,0.023,-0.98,-0.084,0.372,-0.21,-0.496
1816,0.091,0.06,-0.1,0.021,-0.977,-0.074,0.372,-0.21,-0.496
1817,0.089,0.065,-0.098,0.021,-0.977,-0.074,0.393,-0.204,-0.508
1818,0.09,0.057,-0.094,0.024,-0.973,-0.069,0.388,-0.204,-0.514
1819,0.089,0.043,-0.086,0.031,-0.971,-0.079,0.388,-0.204,-0.514
1820,0.086,0.028,-0.076,0.035,-0.973,-0.09,0.409,-0.202,-0.499
1821,0.084,0.019,-0.068,0.034,-0.975,-0.096,0.387,-0.214,-0.504
1822,0.086,0.015,-0.061,0.026,-0.981,-0.101,0.378,-0.214,-0.502
1823,0.093,0.011,-0.056,0.02,-0.98,-0.087,0.397,-0.204,-0.489
1824,0.096,0.004,-0.051,0.023,-0.977,-0.078,0.394,-0.217,-0.487
1825,0.098,-0.009,-0.045,0.027,-0.972,-0.079,0.394,-0.217,-0.487
1826,0.097,-0.026,-0.039,0.025,-0.969,-0.079,0.394,-0.228,-0.505
1827,0.088,-0.041,-0.037,0.02,-0.971,-0.078,0.4,-0.214,-0.504
1828,0.079,-0.049,-0.035,0.015,-0.976,-0.089,0.408,-0.229,-0.508
1829,0.049,-0.026,-0.045,0.01,-0.982,-0.108,0.397,-0.214,-0.493
1830,0.035,-0.002,-0.051,0.012,-0.985,-0.099,0.394,-0.211,-0.498
1831,0.021,0.006,-0.056,0.019,-0.99,-0.078,0.394,-0.211,-0.498
1832,0.014,-0.001,-0.056,0.029,-0.994,-0.071,0.399,-0.214,-0.486
1833,0.009,-0.008,-0.057,0.035,-0.996,-0.075,0.385,-0.211,-0.493
1834,0.009,-0.012,-0.056,0.032,-0.997,-0.086,0.399,-0.201,-0.495
1835,0.016,-0.011,-0.054,0.026,-0.991,-0.094,0.412,-0.219,-0.501
1836,0.026,-0.009,-0.053,0.02,-0.983,-0.089,0.405,-0.214,-0.477
1837,0.035,-0.02,-0.053,0.02,-0.983,-0.089,0.405,-0.214,-0.477
1838,0.037,-0.035,-0.052,0.016,-0.976,-0.08,0.388,-0.213,-0.489
1839,0.033,-0.051,-0.051,0.013,-0.973,-0.074,0.405,-0.22,-0.502
1840,0.03,-0.058,-0.05,0.014,-0.976,-0.085,0.399,-0.223,-0.516
1841,0.03,-0.058,-0.05,0.011,-0.98,-0.104,0.396,-0.207,-0.501
1842,0.025,-0.046,-0.051,0.005,-0.981,-0.11,0.396,-0.222,-0.501
1843,0.022,-0.025,-0.054,0.002,-0.981,-0.101,0.396,-0.222,-0.501
1844,0.018,-0.014,-0.053,0.005,-0.981,-0.084,0.393,-0.235,-0.483
1845,0.014,-0.018,-0.049,0.011,-0.985,-0.068,0.396,-0.222,-0.511
1846,0.012,-0.026,-0.043,0.013,-0.985,-0.068,0.405,-0.214,-0.487
1847,0.014,-0.037,-0.038,0.016,-0.985,-0.075,0.417,-0.228,-0.499
1848,0.016,-0.037,-0.035,0.016,-0.986,-0.08,0.4,-0.247,-0.481
1849,0.018,-0.036,-0.034,0.015,-0.982,-0.086,0.4,-0.247,-0.481
1850,0.019,-0.04,-0.034,0.012,-0.976,-0.089,0.403,-0.234,-0.477
1851,0.018,-0.035,-0.036,0.013,-0.977,-0.084,0.394,-0.217,-0.484
1852,0.013,-0.032,-0.035,0.017,-0.983,-0.08,0.405,-0.219,-0.484
1853,0.014,-0.038,-0.035,0.02,-0.984,-0.083,0.421,-0.234,-0.508
1854,0.01,-0.032,-0.036,0.022,-0.984,-0.086,0.391,-0.228,-0.481
1855,0.005,-0.02,-0.037,0.022,-0.983,-0.086,0.391,-0.228,-0.481
1856,0.006,-0.016,-0.037,0.022,-0.983,-0.086,0.4,-0.24,-0.501
1857,0.006,-0.009,-0.036,0.022,-0.981,-0.085,0.394,-0.232,-0.48
1858,0.006,-0.007,-0.035,0.021,-0.982,-0.08,0.394,-0.232,-0.48
1859,0.01,-0.007,-0.035,0.016,-0.984,-0.077,0.402,-0.232,-0.489
1860,0.017,-0.012,-0.032,0.01,-0.983,-0.081,0.399,-0.216,-0.475
1861,0.017,-0.012,-0.032,0.008,-0.981,-0.08,0.409,-0.214,-0.495
1862,0.023,-0.021,-0.03,0.002,-0.978,-0.079,0.409,-0.214,-0.495
1863,0.023,-0.025,-0.031,0.001,-0.977,-0.086,0.414,-0.222,-0.496
1864,0.016,-0.022,-0.035,0.0,-0.977,-0.088,0.402,-0.222,-0.475
1865,0.016,-0.023,-0.035,0.004,-0.977,-0.082,0.403,-0.226,-0.468
1866,0.013,-0.027,-0.032,0.011,-0.978,-0.077,0.385,-0.211,-0.48
1867,0.013,-0.037,-0.027,0.01,-0.981,-0.084,0.4,-0.238,-0.484
1868,0.014,-0.04,-0.021,0.005,-0.982,-0.094,0.4,-0.238,-0.484
1869,0.011,-0.037,-0.018,0.003,-0.981,-0.092,0.393,-0.231,-0.483
1870,0.011,-0.041,-0.018,0.007,-0.98,-0.083,0.402,-0.229,-0.496
1871,0.007,-0.045,-0.018,0.013,-0.982,-0.081,0.391,-0.222,-0.472
1872,0.005,-0.051,-0.016,0.016,-0.988,-0.084,0.409,-0.216,-0.498
1873,0.004,-0.05,-0.016,0.014,-0.99,-0.084,0.391,-0.223,-0.505
1874,0.004,-0.042,-0.021,0.009,-0.98,-0.076,0.405,-0.229,-0.486
1875,0.0,-0.035,-0.028,0.009,-0.98,-0.076,0.405,-0.229,-0.486
1876,-0.006,-0.038,-0.033,0.01,-0.973,-0.074,0.411,-0.211,-0.495
1877,-0.011,-0.042,-0.033,0.015,-0.977,-0.075,0.43,-0.231,-0.484
1878,-0.011,-0.04,-0.027,0.019,-0.987,-0.079,0.415,-0.226,-0.475
1879,-0.011,-0.04,-0.027,0.025,-0.996,-0.098,0.4,-0.217,-0.486
1880,0.002,-0.042,-0.018,0.023,-0.997,-0.108,0.4,-0.232,-0.474
1881,0.016,-0.045,-0.007,0.011,-0.988,-0.096,0.4,-0.232,-0.474
1882,0.023,-0.056,-0.004,0.0,-0.974,-0.084,0.412,-0.216,-0.492
1883,0.02,-0.063,-0.006,0.001,-0.968,-0.082,0.406,-0.213,-0.487
1884,0.017,-0.063,-0.008,0.008,-0.968,-0.086,0.391,-0.24,-0.502
1885,0.017,-0.058,-0.01,0.009,-0.971,-0.092,0.403,-0.231,-0.505
1886,0.011,-0.033,-0.018,0.01,-0.971,-0.094,0.391,-0.237,-0.492
1887,0.006,-0.018,-0.022,0.015,-0.971,-0.091,0.391,-0.237,-0.492
1888,0.002,-0.012,-0.025,0.022,-0.972,-0.087,0.408,-0.24,-0.477
1889,0.002,-0.01,-0.023,0.025,-0.975,-0.09,0.405,-0.232,-0.49
1890,0.006,-0.014,-0.021,0.026,-0.98,-0.094,0.406,-0.223,-0.501
1891,0.011,-0.021,-0.015,0.029,-0.983,-0.096,0.409,-0.247,-0.493
1892,0.019,-0.028,-0.009,0.028,-0.988,-0.1,0.375,-0.223,-0.486
1893,0.024,-0.034,-0.004,0.019,-0.988,-0.104,0.375,-0.223,-0.486
1894,0.025,-0.028,-0.005,0.009,-0.984,-0.098,0.408,-0.232,-0.487
1895,0.022,-0.018,-0.009,0.009,-0.984,-0.098,0.403,-0.232,-0.487
1896,0.016,-0.011,-0.011,0.008,-0.98,-0.087,0.405,-0.238,-0.499
1897,0.008,-0.001,-0.018,0.011,-0.974,-0.084,0.418,-0.24,-0.478
1898,0.008,-0.001,-0.018,0.016,-0.97,-0.087,0.405,-0.219,-0.496
1899,0.0,0.005,-0.021,0.022,-0.975,-0.089,0.405,-0.219,-0.496
1900,-0.003,0.004,-0.021,0.028,-0.982,-0.094,0.402,-0.24,-0.487
1901,0.0,0.002,-0.018,0.033,-0.984,-0.105,0.412,-0.241,-0.498
1902,0.001,0.002,-0.015,0.026,-0.983,-0.11,0.405,-0.223,-0.475
1903,0.005,0.004,-0.011,0.016,-0.978,-0.104,0.381,-0.216,-0.483
1904,0.001,0.01,-0.011,0.013,-0.974,-0.099,0.408,-0.232,-0.484
1905,0.002,0.007,-0.011,0.016,-0.975,-0.097,0.408,-0.232,-0.484
1906,0.007,0.002,-0.009,0.017,-0.974,-0.095,0.403,-0.232,-0.474
1907,0.004,0.004,-0.011,0.02,-0.973,-0.095,0.385,-0.223,-0.489
1908,0.002,0.005,-0.011,0.02,-0.973,-0.098,0.394,-0.22,-0.489
1909,0.003,0.008,-0.011,0.016,-0.973,-0.098,0.408,-0.228,-0.486
