,Gyroscope X (deg/s),Gyroscope Y (deg/s),Gyroscope Z (deg/s),Accelerometer X (g),Accelerometer Y (g),Accelerometer Z (g),Magnetometer X (G),Magnetometer Y (G),Magnetometer Z (G)
0,0.0,0.0,-0.016,0.079,-0.974,0.064,0.381,-0.211,-0.493
1,0.0,0.0,-0.016,0.079,-0.974,0.064,0.381,-0.211,-0.493
2,0.0,0.0,-0.016,0.079,-0.974,0.064,0.381,-0.211,-0.493
3,-0.003,-0.002,-0.016,0.079,-0.974,0.064,0.379,-0.204,-0.474
4,-0.002,0.004,-0.014,0.082,-0.974,0.062,0.379,-0.204,-0.474
5,-0.002,0.002,-0.013,0.084,-0.978,0.065,0.384,-0.19,-0.465
6,-0.001,0.001,-0.013,0.078,-0.976,0.066,0.382,-0.213,-0.475
7,-0.004,0.001,-0.012,0.075,-0.977,0.066,0.391,-0.198,-0.481
8,-0.007,0.002,-0.011,0.075,-0.977,0.066,0.372,-0.22,-0.493
9,-0.004,0.002,-0.011,0.079,-0.976,0.068,0.381,-0.196,-0.48
10,-0.002,0.003,-0.011,0.081,-0.975,0.067,0.373,-0.199,-0.456
11,0.0,0.004,-0.011,0.08,-0.975,0.068,0.373,-0.211,-0.469
12,0.0,-0.002,-0.009,0.078,-0.974,0.069,0.367,-0.207,-0.471
13,0.0,-0.002,-0.009,0.081,-0.977,0.069,0.376,-0.214,-0.48
14,-0.001,-0.003,-0.009,0.08,-0.981,0.07,0.361,-0.187,-0.463
15,-0.002,-0.004,-0.011,0.082,-0.979,0.069,0.391,-0.208,-0.477
16,-0.001,-0.004,-0.011,0.085,-0.976,0.066,0.379,-0.205,-0.489
17,-0.001,-0.008,-0.009,0.082,-0.975,0.066,0.367,-0.208,-0.486
18,-0.001,-0.007,-0.01,0.082,-0.976,0.066,0.367,-0.208,-0.486
19,0.0,-0.004,-0.011,0.083,-0.977,0.066,0.385,-0.193,-0.48
20,0.0,-0.007,-0.011,0.087,-0.977,0.067,0.363,-0.204,-0.477
21,0.0,-0.004,-0.011,0.089,-0.979,0.066,0.375,-0.205,-0.477
22,-0.002,0.0,-0.011,0.09,-0.98,0.064,0.379,-0.189,-0.471
23,-0.002,0.007,-0.011,0.089,-0.977,0.062,0.37,-0.193,-0.477
24,-0.003,0.005,-0.008,0.086,-0.976,0.066,0.39,-0.196,-0.502
25,-0.002,0.002,-0.009,0.086,-0.976,0.066,0.384,-0.204,-0.483
26,-0.001,0.0,-0.011,0.086,-0.976,0.064,0.369,-0.205,-0.477
27,-0.001,-0.002,-0.013,0.083,-0.979,0.065,0.387,-0.195,-0.484
28,0.001,-0.002,-0.012,0.077,-0.978,0.062,0.379,-0.19,-0.493
29,0.002,0.0,-0.013,0.078,-0.976,0.06,0.369,-0.195,-0.462
30,0.0,-0.006,-0.012,0.083,-0.979,0.063,0.363,-0.196,-0.486
31,-0.002,-0.011,-0.015,0.083,-0.978,0.062,0.363,-0.196,-0.486
32,-0.002,-0.007,-0.016,0.081,-0.974,0.058,0.393,-0.204,-0.487
33,0.0,-0.011,-0.013,0.084,-0.977,0.059,0.369,-0.199,-0.483
34,0.001,-0.014,-0.011,0.086,-0.978,0.064,0.367,-0.187,-0.489
35,0.001,-0.009,-0.012,0.087,-0.977,0.063,0.367,-0.201,-0.489
36,0.0,-0.007,-0.013,0.088,-0.975,0.063,0.388,-0.208,-0.478
37,0.0,-0.005,-0.015,0.086,-0.976,0.067,0.382,-0.216,-0.481
38,0.0,-0.005,-0.014,0.084,-0.976,0.065,0.372,-0.208,-0.481
39,0.001,-0.009,-0.014,0.086,-0.976,0.063,0.385,-0.214,-0.463
40,0.0,-0.007,-0.015,0.084,-0.976,0.063,0.382,-0.21,-0.475
41,0.0,-0.007,-0.016,0.083,-0.975,0.066,0.372,-0.187,-0.48
42,-0.001,-0.004,-0.016,0.083,-0.977,0.066,0.375,-0.204,-0.48
43,0.001,-0.006,-0.016,0.083,-0.977,0.066,0.384,-0.193,-0.489
44,0.001,-0.009,-0.015,0.083,-0.98,0.067,0.385,-0.193,-0.495
45,-0.001,-0.003,-0.016,0.082,-0.979,0.064,0.363,-0.201,-0.49
46,-0.002,-0.003,-0.016,0.082,-0.976,0.067,0.363,-0.201,-0.49
47,-0.001,-0.009,-0.014,0.082,-0.975,0.068,0.382,-0.192,-0.484
48,-0.001,-0.01,-0.014,0.079,-0.976,0.065,0.378,-0.21,-0.492
49,-0.002,-0.013,-0.014,0.082,-0.977,0.069,0.37,-0.199,-0.484
50,-0.003,-0.008,-0.014,0.086,-0.978,0.068,0.376,-0.201,-0.474
51,-0.003,-0.007,-0.014,0.089,-0.979,0.067,0.381,-0.189,-0.483
52,-0.003,-0.005,-0.015,0.089,-0.979,0.069,0.385,-0.186,-0.483
53,-0.004,-0.011,-0.015,0.087,-0.978,0.071,0.37,-0.204,-0.477
54,-0.002,-0.009,-0.014,0.086,-0.978,0.072,0.376,-0.196,-0.487
55,-0.002,-0.008,-0.015,0.081,-0.979,0.072,0.372,-0.195,-0.474
56,-0.002,-0.007,-0.015,0.083,-0.979,0.076,0.37,-0.207,-0.487
57,-0.001,-0.005,-0.015,0.083,-0.974,0.073,0.391,-0.204,-0.484
58,0.0,-0.004,-0.015,0.08,-0.974,0.069,0.384,-0.18,-0.472
59,0.0,-0.004,-0.014,0.08,-0.977,0.074,0.384,-0.18,-0.472
60,-0.002,-0.004,-0.013,0.08,-0.978,0.072,0.376,-0.196,-0.483
61,0.0,-0.002,-0.014,0.08,-0.978,0.072,0.382,-0.202,-0.477
62,0.001,-0.004,-0.014,0.083,-0.976,0.068,0.37,-0.211,-0.484
63,0.002,-0.004,-0.014,0.084,-0.974,0.071,0.39,-0.183,-0.48
64,0.004,-0.003,-0.015,0.081,-0.973,0.072,0.379,-0.202,-0.472
65,0.002,-0.004,-0.014,0.081,-0.976,0.07,0.364,-0.193,-0.483
66,0.0,-0.007,-0.014,0.083,-0.98,0.073,0.376,-0.205,-0.49
67,-0.001,-0.004,-0.014,0.081,-0.98,0.073,0.387,-0.189,-0.49
68,0.0,-0.002,-0.016,0.08,-0.98,0.07,0.387,-0.198,-0.477
69,0.003,-0.004,-0.014,0.08,-0.978,0.07,0.358,-0.205,-0.469
70,0.004,-0.009,-0.014,0.082,-0.977,0.07,0.378,-0.19,-0.481
71,0.002,-0.006,-0.014,0.084,-0.976,0.07,0.388,-0.192,-0.48
72,0.002,-0.002,-0.014,0.084,-0.975,0.069,0.378,-0.207,-0.49
73,0.002,0.0,-0.014,0.083,-0.976,0.068,0.378,-0.199,-0.48
74,0.0,0.001,-0.014,0.084,-0.977,0.072,0.375,-0.187,-0.496
75,0.0,0.0,-0.016,0.084,-0.98,0.073,0.375,-0.187,-0.496
76,0.003,-0.003,-0.017,0.082,-0.981,0.071,0.373,-0.207,-0.486
77,0.005,-0.002,-0.018,0.078,-0.976,0.067,0.388,-0.213,-0.477
78,0.005,-0.007,-0.018,0.083,-0.974,0.069,0.385,-0.196,-0.489
79,0.004,-0.007,-0.018,0.083,-0.974,0.069,0.375,-0.198,-0.471
80,0.003,-0.005,-0.021,0.084,-0.975,0.068,0.378,-0.195,-0.483
81,0.002,-0.009,-0.021,0.08,-0.976,0.071,0.363,-0.205,-0.49
82,0.001,-0.009,-0.021,0.079,-0.978,0.073,0.378,-0.202,-0.471
83,0.002,-0.01,-0.021,0.08,-0.978,0.068,0.379,-0.199,-0.499
84,0.002,-0.006,-0.02,0.082,-0.979,0.064,0.373,-0.204,-0.48
85,0.004,-0.003,-0.018,0.085,-0.979,0.064,0.373,-0.199,-0.495
86,0.007,-0.006,-0.019,0.082,-0.977,0.066,0.396,-0.186,-0.487
87,0.005,-0.007,-0.018,0.078,-0.978,0.066,0.409,-0.196,-0.481
88,0.001,-0.008,-0.018,0.079,-0.976,0.067,0.358,-0.195,-0.469
89,0.0,-0.002,-0.019,0.081,-0.973,0.066,0.376,-0.19,-0.484
90,0.002,0.002,-0.019,0.079,-0.977,0.064,0.391,-0.201,-0.489
91,0.002,0.004,-0.019,0.079,-0.979,0.068,0.384,-0.201,-0.495
92,0.004,0.0,-0.018,0.077,-0.978,0.072,0.385,-0.207,-0.483
93,0.004,0.002,-0.018,0.077,-0.977,0.068,0.382,-0.205,-0.48
94,0.005,0.005,-0.018,0.077,-0.977,0.067,0.382,-0.205,-0.48
95,0.003,0.007,-0.018,0.074,-0.975,0.066,0.375,-0.205,-0.481
96,0.002,0.006,-0.018,0.074,-0.975,0.066,0.375,-0.217,-0.468
97,0.002,0.002,-0.018,0.073,-0.979,0.069,0.375,-0.217,-0.468
98,0.004,-0.001,-0.018,0.073,-0.98,0.071,0.39,-0.204,-0.475
99,0.006,-0.007,-0.018,0.074,-0.979,0.071,0.358,-0.202,-0.471
100,0.004,-0.006,-0.017,0.076,-0.978,0.068,0.375,-0.211,-0.481
101,0.004,-0.002,-0.017,0.078,-0.976,0.069,0.381,-0.211,-0.478
102,0.004,-0.001,-0.018,0.077,-0.978,0.073,0.381,-0.193,-0.49
103,0.004,-0.006,-0.018,0.077,-0.978,0.074,0.385,-0.178,-0.465
104,0.005,-0.004,-0.016,0.078,-0.975,0.074,0.384,-0.192,-0.489
105,0.007,-0.002,-0.015,0.077,-0.976,0.074,0.393,-0.184,-0.483
106,0.008,-0.001,-0.015,0.078,-0.978,0.074,0.384,-0.195,-0.469
107,0.009,0.0,-0.015,0.08,-0.981,0.073,0.379,-0.205,-0.499
108,0.01,0.0,-0.013,0.081,-0.98,0.07,0.379,-0.205,-0.499
109,0.009,0.001,-0.014,0.08,-0.978,0.069,0.375,-0.199,-0.487
110,0.007,0.004,-0.014,0.077,-0.977,0.07,0.357,-0.186,-0.463
111,0.007,0.002,-0.012,0.075,-0.977,0.071,0.372,-0.19,-0.478
112,0.008,0.001,-0.011,0.073,-0.978,0.066,0.366,-0.202,-0.465
113,0.007,-0.001,-0.011,0.073,-0.978,0.066,0.391,-0.198,-0.481
114,0.007,-0.003,-0.011,0.071,-0.98,0.064,0.394,-0.199,-0.481
115,0.006,-0.004,-0.01,0.073,-0.981,0.062,0.391,-0.202,-0.486
116,0.006,-0.006,-0.01,0.073,-0.981,0.065,0.382,-0.195,-0.472
117,0.004,-0.009,-0.011,0.073,-0.983,0.066,0.376,-0.192,-0.477
118,0.004,-0.009,-0.012,0.074,-0.981,0.065,0.373,-0.207,-0.477
119,0.005,-0.005,-0.012,0.075,-0.979,0.066,0.379,-0.199,-0.462
120,0.009,-0.007,-0.011,0.077,-0.976,0.068,0.381,-0.195,-0.471
121,0.007,-0.001,-0.012,0.077,-0.976,0.066,0.381,-0.195,-0.471
122,0.005,0.009,-0.015,0.079,-0.984,0.067,0.378,-0.189,-0.471
123,0.008,0.007,-0.015,0.084,-0.988,0.073,0.39,-0.189,-0.483
124,0.009,0.009,-0.014,0.083,-0.981,0.068,0.382,-0.195,-0.483
125,0.012,0.008,-0.011,0.081,-0.972,0.066,0.373,-0.204,-0.487
126,0.018,0.009,-0.011,0.084,-0.968,0.068,0.375,-0.181,-0.459
127,0.02,0.014,-0.012,0.084,-0.972,0.063,0.384,-0.201,-0.478
128,0.018,0.011,-0.011,0.081,-0.975,0.06,0.366,-0.21,-0.463
129,0.014,0.006,-0.011,0.078,-0.973,0.06,0.378,-0.216,-0.472
130,0.016,0.007,-0.012,0.08,-0.982,0.058,0.393,-0.21,-0.465
131,0.014,0.007,-0.014,0.08,-0.982,0.058,0.391,-0.205,-0.487
132,0.011,0.004,-0.014,0.08,-0.984,0.061,0.369,-0.19,-0.471
133,0.008,0.007,-0.015,0.078,-0.979,0.057,0.367,-0.222,-0.483
134,0.008,0.004,-0.014,0.076,-0.976,0.056,0.367,-0.222,-0.483
135,0.009,0.0,-0.011,0.08,-0.978,0.055,0.39,-0.22,-0.486
136,0.004,-0.006,-0.014,0.08,-0.979,0.051,0.385,-0.198,-0.477
137,0.004,-0.006,-0.016,0.074,-0.98,0.049,0.375,-0.192,-0.456
138,0.005,-0.011,-0.014,0.07,-0.979,0.052,0.384,-0.202,-0.472
139,0.008,-0.013,-0.014,0.073,-0.978,0.056,0.375,-0.199,-0.463
140,0.009,-0.007,-0.015,0.076,-0.98,0.055,0.369,-0.198,-0.48
141,0.009,-0.003,-0.017,0.08,-0.98,0.055,0.375,-0.204,-0.475
142,0.01,0.003,-0.019,0.084,-0.979,0.055,0.381,-0.193,-0.475
143,0.008,0.009,-0.019,0.083,-0.977,0.061,0.385,-0.199,-0.483
144,0.009,0.015,-0.016,0.081,-0.976,0.063,0.394,-0.205,-0.502
145,0.007,0.017,-0.014,0.081,-0.974,0.062,0.394,-0.205,-0.502
146,0.004,0.02,-0.014,0.08,-0.977,0.065,0.385,-0.178,-0.48
147,0.007,0.027,-0.014,0.078,-0.979,0.062,0.37,-0.183,-0.468
148,0.009,0.031,-0.014,0.078,-0.978,0.062,0.388,-0.193,-0.489
149,0.012,0.034,-0.013,0.078,-0.978,0.062,0.379,-0.195,-0.466
150,0.016,0.031,-0.011,0.078,-0.978,0.064,0.373,-0.199,-0.475
151,0.014,0.025,-0.011,0.077,-0.978,0.063,0.367,-0.186,-0.462
152,0.012,0.021,-0.011,0.073,-0.976,0.056,0.369,-0.208,-0.463
153,0.007,0.015,-0.011,0.069,-0.98,0.054,0.379,-0.184,-0.478
154,0.001,0.009,-0.009,0.071,-0.981,0.058,0.376,-0.208,-0.486
155,0.002,0.004,-0.009,0.075,-0.982,0.059,0.379,-0.205,-0.495
156,0.006,0.014,-0.014,0.077,-0.981,0.053,0.391,-0.187,-0.459
157,0.005,0.013,-0.014,0.079,-0.98,0.049,0.394,-0.208,-0.469
158,0.002,0.004,-0.011,0.076,-0.98,0.056,0.378,-0.213,-0.478
159,0.0,-0.002,-0.01,0.074,-0.981,0.056,0.378,-0.199,-0.469
160,0.0,-0.001,-0.013,0.069,-0.982,0.052,0.375,-0.207,-0.49
161,-0.002,-0.005,-0.014,0.064,-0.983,0.05,0.375,-0.207,-0.49
162,-0.002,-0.008,-0.013,0.064,-0.981,0.048,0.394,-0.222,-0.475
163,0.0,-0.018,-0.012,0.063,-0.978,0.047,0.397,-0.207,-0.483
164,0.0,-0.021,-0.014,0.065,-0.979,0.048,0.385,-0.193,-0.489
165,0.0,-0.023,-0.014,0.071,-0.983,0.054,0.399,-0.199,-0.462
166,-0.001,-0.024,-0.012,0.072,-0.98,0.055,0.387,-0.204,-0.484
167,-0.003,-0.02,-0.011,0.072,-0.98,0.055,0.387,-0.198,-0.475
168,-0.002,-0.009,-0.011,0.076,-0.976,0.052,0.378,-0.19,-0.478
169,-0.003,-0.007,-0.011,0.078,-0.975,0.055,0.387,-0.204,-0.454
170,0.0,-0.001,-0.012,0.081,-0.978,0.06,0.382,-0.169,-0.469
171,-0.001,0.002,-0.014,0.082,-0.979,0.057,0.388,-0.183,-0.475
172,0.0,0.0,-0.012,0.08,-0.979,0.058,0.376,-0.207,-0.498
173,0.0,0.0,-0.01,0.077,-0.979,0.057,0.379,-0.21,-0.469
174,0.001,0.002,-0.009,0.075,-0.977,0.054,0.379,-0.205,-0.471
175,0.002,-0.002,-0.008,0.076,-0.977,0.058,0.388,-0.187,-0.471
176,0.0,0.0,-0.008,0.078,-0.978,0.061,0.375,-0.213,-0.466
177,-0.005,0.002,-0.011,0.078,-0.979,0.061,0.393,-0.22,-0.457
178,-0.006,0.003,-0.01,0.077,-0.978,0.059,0.384,-0.202,-0.478
179,-0.007,0.0,-0.009,0.076,-0.979,0.059,0.384,-0.201,-0.468
180,-0.004,-0.005,-0.007,0.076,-0.98,0.06,0.382,-0.19,-0.463
181,-0.002,-0.004,-0.008,0.077,-0.981,0.061,0.382,-0.19,-0.463
182,0.0,-0.004,-0.009,0.078,-0.978,0.061,0.361,-0.21,-0.481
183,0.003,0.0,-0.01,0.078,-0.976,0.058,0.385,-0.198,-0.471
184,0.003,0.0,-0.009,0.078,-0.976,0.058,0.385,-0.198,-0.471
185,0.004,0.0,-0.01,0.079,-0.977,0.06,0.376,-0.192,-0.495
186,0.003,0.004,-0.01,0.078,-0.978,0.062,0.384,-0.19,-0.48
187,0.003,0.01,-0.011,0.073,-0.978,0.06,0.376,-0.19,-0.48
188,0.001,0.007,-0.009,0.074,-0.977,0.061,0.387,-0.205,-0.483
189,0.001,0.002,-0.008,0.077,-0.976,0.062,0.385,-0.22,-0.454
190,0.0,0.006,-0.008,0.075,-0.979,0.059,0.379,-0.204,-0.468
191,-0.002,0.009,-0.008,0.075,-0.982,0.06,0.394,-0.211,-0.489
192,-0.004,0.007,-0.007,0.078,-0.982,0.062,0.375,-0.21,-0.472
193,0.0,0.004,-0.007,0.076,-0.979,0.061,0.39,-0.211,-0.493
194,0.0,0.004,-0.007,0.073,-0.977,0.057,0.372,-0.181,-0.478
195,-0.004,0.002,-0.007,0.071,-0.976,0.057,0.388,-0.198,-0.483
196,-0.003,0.002,-0.007,0.073,-0.978,0.06,0.379,-0.211,-0.454
197,0.0,0.0,-0.007,0.076,-0.976,0.059,0.379,-0.211,-0.454
198,0.002,0.0,-0.007,0.075,-0.976,0.056,0.376,-0.21,-0.465
199,0.001,-0.005,-0.004,0.077,-0.981,0.059,0.393,-0.198,-0.474
200,0.0,-0.007,-0.005,0.076,-0.979,0.062,0.393,-0.207,-0.463
201,-0.001,-0.002,-0.009,0.078,-0.982,0.06,0.391,-0.222,-0.487
202,-0.001,0.002,-0.008,0.078,-0.982,0.06,0.376,-0.199,-0.489
203,0.0,-0.001,-0.007,0.08,-0.981,0.059,0.363,-0.195,-0.45
204,0.003,-0.009,-0.006,0.079,-0.976,0.06,0.376,-0.184,-0.465
205,0.003,-0.009,-0.007,0.079,-0.977,0.061,0.376,-0.193,-0.474
206,0.002,-0.009,-0.008,0.079,-0.98,0.063,0.384,-0.207,-0.478
207,0.004,-0.009,-0.009,0.081,-0.98,0.062,0.373,-0.202,-0.483
208,0.004,-0.007,-0.009,0.085,-0.978,0.06,0.382,-0.214,-0.49
209,0.003,-0.007,-0.007,0.084,-0.976,0.061,0.379,-0.213,-0.478
210,0.002,-0.004,-0.007,0.081,-0.976,0.061,0.378,-0.198,-0.48
211,-0.002,-0.002,-0.007,0.08,-0.977,0.063,0.37,-0.219,-0.471
212,-0.006,-0.002,-0.007,0.08,-0.98,0.065,0.37,-0.205,-0.478
213,-0.007,-0.005,-0.007,0.083,-0.982,0.064,0.39,-0.201,-0.48
214,-0.006,-0.002,-0.007,0.085,-0.98,0.061,0.376,-0.207,-0.474
215,-0.004,0.002,-0.008,0.082,-0.977,0.06,0.366,-0.217,-0.481
216,0.0,0.002,-0.008,0.08,-0.977,0.063,0.379,-0.196,-0.481
217,0.0,-0.001,-0.007,0.082,-0.978,0.065,0.376,-0.193,-0.48
218,0.002,-0.007,-0.009,0.083,-0.978,0.064,0.376,-0.193,-0.48
219,0.004,-0.005,-0.012,0.083,-0.978,0.064,0.384,-0.202,-0.484
220,0.005,-0.007,-0.012,0.08,-0.979,0.064,0.384,-0.205,-0.487
221,0.003,-0.007,-0.01,0.082,-0.979,0.067,0.388,-0.19,-0.489
222,0.003,-0.014,-0.007,0.088,-0.976,0.068,0.378,-0.204,-0.483
223,0.003,-0.011,-0.008,0.091,-0.975,0.063,0.378,-0.201,-0.468
224,0.001,-0.004,-0.011,0.089,-0.976,0.06,0.381,-0.198,-0.475
225,0.0,0.0,-0.014,0.085,-0.977,0.061,0.385,-0.192,-0.454
226,0.0,-0.006,-0.013,0.086,-0.974,0.064,0.372,-0.192,-0.465
227,0.0,-0.012,-0.014,0.089,-0.973,0.066,0.39,-0.196,-0.466
228,0.002,-0.007,-0.016,0.089,-0.978,0.065,0.378,-0.21,-0.486
229,0.004,-0.002,-0.021,0.085,-0.978,0.065,0.375,-0.187,-0.468
230,0.008,-0.003,-0.021,0.085,-0.975,0.067,0.366,-0.202,-0.495
231,0.011,0.0,-0.017,0.087,-0.973,0.065,0.366,-0.202,-0.495
232,0.015,0.006,-0.016,0.089,-0.971,0.06,0.387,-0.201,-0.474
233,0.011,0.011,-0.017,0.086,-0.972,0.058,0.376,-0.204,-0.475
234,0.008,0.007,-0.017,0.079,-0.979,0.064,0.378,-0.205,-0.478
235,0.006,0.005,-0.016,0.079,-0.983,0.058,0.379,-0.204,-0.477
236,0.007,0.003,-0.014,0.078,-0.98,0.056,0.387,-0.193,-0.489
237,0.009,0.006,-0.011,0.078,-0.98,0.056,0.394,-0.195,-0.477
238,0.01,0.007,-0.011,0.078,-0.978,0.055,0.402,-0.213,-0.477
239,0.009,0.007,-0.012,0.078,-0.978,0.056,0.412,-0.19,-0.48
240,0.007,-0.003,-0.011,0.074,-0.978,0.059,0.381,-0.213,-0.483
241,0.008,-0.01,-0.01,0.07,-0.978,0.061,0.375,-0.21,-0.483
242,0.007,-0.006,-0.009,0.071,-0.977,0.055,0.385,-0.201,-0.475
243,0.002,-0.007,-0.007,0.071,-0.973,0.055,0.402,-0.193,-0.472
244,-0.002,-0.015,-0.002,0.073,-0.975,0.062,0.391,-0.205,-0.493
245,-0.005,-0.015,-0.004,0.079,-0.981,0.064,0.382,-0.193,-0.481
246,-0.004,-0.009,-0.006,0.085,-0.982,0.064,0.382,-0.193,-0.481
247,-0.001,-0.003,-0.007,0.089,-0.981,0.062,0.361,-0.204,-0.475
248,0.004,0.006,-0.004,0.09,-0.976,0.062,0.37,-0.199,-0.483
249,0.007,0.01,-0.001,0.09,-0.971,0.065,0.388,-0.21,-0.474
250,0.014,0.011,0.002,0.092,-0.975,0.072,0.381,-0.205,-0.48
251,0.018,0.014,0.002,0.094,-0.982,0.074,0.39,-0.207,-0.475
252,0.021,0.012,0.004,0.091,-0.982,0.072,0.37,-0.211,-0.49
253,0.018,0.014,0.003,0.072,-0.968,0.063,0.375,-0.198,-0.49
254,0.018,0.017,0.002,0.072,-0.968,0.063,0.39,-0.211,-0.486
255,0.022,0.011,0.007,0.07,-0.971,0.066,0.376,-0.214,-0.463
256,0.025,0.005,0.009,0.071,-0.974,0.069,0.379,-0.202,-0.492
257,0.027,0.0,0.01,0.073,-0.974,0.069,0.373,-0.207,-0.471
258,0.028,0.006,0.009,0.076,-0.975,0.065,0.375,-0.196,-0.468
259,0.033,0.007,0.008,0.077,-0.974,0.064,0.363,-0.22,-0.48
260,0.036,0.003,0.011,0.078,-0.972,0.067,0.375,-0.205,-0.465
261,0.038,-0.004,0.015,0.08,-0.968,0.072,0.375,-0.205,-0.465
262,0.039,0.002,0.017,0.083,-0.957,0.069,0.358,-0.198,-0.448
263,0.032,0.01,0.021,0.079,-0.944,0.063,0.373,-0.19,-0.481
264,0.027,0.006,0.028,0.075,-0.945,0.076,0.366,-0.19,-0.456
265,0.031,-0.01,0.035,0.079,-0.965,0.093,0.385,-0.213,-0.484
266,0.037,-0.021,0.042,0.089,-0.98,0.095,0.373,-0.21,-0.487
267,0.038,-0.031,0.044,0.095,-0.977,0.092,0.369,-0.202,-0.463
268,0.046,-0.025,0.046,0.091,-0.964,0.084,0.379,-0.195,-0.471
269,0.06,-0.034,0.061,0.088,-0.953,0.076,0.381,-0.192,-0.475
270,0.067,-0.048,0.074,0.091,-0.95,0.074,0.358,-0.204,-0.475
271,0.08,-0.065,0.082,0.089,-0.974,0.079,0.373,-0.216,-0.487
272,0.077,-0.101,0.074,0.089,-0.974,0.079,0.372,-0.202,-0.477
273,0.067,-0.123,0.051,0.095,-0.97,0.076,0.36,-0.204,-0.447
274,0.044,-0.13,0.029,0.103,-0.949,0.055,0.36,-0.204,-0.447
275,0.03,-0.136,0.028,0.132,-0.953,0.033,0.376,-0.217,-0.46
276,0.028,-0.182,0.051,0.157,-0.971,0.036,0.36,-0.204,-0.466
277,0.03,-0.209,0.072,0.164,-0.993,0.058,0.358,-0.21,-0.451
278,0.027,-0.24,0.072,0.185,-1.015,0.076,0.366,-0.208,-0.468
279,0.021,-0.239,0.059,0.2,-0.998,0.078,0.372,-0.205,-0.46
280,0.021,-0.24,0.043,0.191,-0.971,0.068,0.375,-0.199,-0.471
281,0.04,-0.203,0.037,0.193,-0.972,0.051,0.351,-0.217,-0.474
282,0.053,-0.149,0.033,0.208,-0.982,0.048,0.354,-0.22,-0.454
283,0.067,-0.147,0.051,0.214,-0.978,0.053,0.34,-0.205,-0.465
284,0.112,-0.154,0.082,0.214,-0.968,0.043,0.349,-0.177,-0.436
285,0.124,-0.159,0.102,0.231,-0.958,0.026,0.336,-0.21,-0.454
286,0.09,-0.158,0.098,0.233,-0.946,0.029,0.34,-0.18,-0.424
287,0.058,-0.154,0.082,0.205,-0.952,0.05,0.334,-0.195,-0.432
288,0.051,-0.156,0.064,0.177,-0.952,0.077,0.349,-0.199,-0.43
289,0.064,-0.161,0.045,0.177,-0.952,0.077,0.34,-0.198,-0.435
290,0.095,-0.151,0.029,0.178,-0.915,0.057,0.358,-0.205,-0.435
291,0.134,-0.138,0.01,0.19,-0.886,0.06,0.358,-0.205,-0.435
292,0.162,-0.126,-0.009,0.197,-0.872,0.064,0.351,-0.205,-0.429
293,0.177,-0.123,-0.029,0.213,-0.902,0.071,0.313,-0.192,-0.436
294,0.202,-0.098,-0.063,0.221,-0.938,0.074,0.331,-0.21,-0.429
295,0.201,-0.085,-0.079,0.197,-0.904,0.07,0.334,-0.213,-0.415
296,0.22,-0.098,-0.086,0.21,-0.891,0.075,0.339,-0.202,-0.412
297,0.242,-0.101,-0.095,0.242,-0.912,0.065,0.345,-0.201,-0.427
298,0.244,-0.102,-0.107,0.245,-0.919,0.04,0.33,-0.223,-0.403
299,0.24,-0.095,-0.112,0.254,-0.942,0.034,0.339,-0.189,-0.402
300,0.256,-0.106,-0.119,0.265,-0.966,0.045,0.336,-0.214,-0.405
301,0.238,-0.128,-0.151,0.245,-0.957,0.077,0.337,-0.193,-0.39
302,0.221,-0.127,-0.193,0.258,-0.963,0.085,0.345,-0.223,-0.382
303,0.201,-0.093,-0.237,0.275,-0.984,0.067,0.33,-0.22,-0.394
304,0.224,-0.086,-0.273,0.259,-0.992,0.066,0.342,-0.234,-0.394
305,0.196,-0.133,-0.244,0.265,-1.042,0.104,0.357,-0.247,-0.367
306,0.291,-0.151,-0.288,0.263,-1.043,0.135,0.345,-0.216,-0.396
307,0.158,-0.158,-0.268,0.306,-1.065,0.218,0.345,-0.216,-0.396
308,0.03,-0.109,-0.275,0.306,-1.065,0.218,0.358,-0.213,-0.372
309,-0.077,0.0,-0.313,0.354,-1.117,0.221,0.358,-0.213,-0.372
310,-0.326,0.213,-0.205,0.424,-1.215,0.171,0.361,-0.228,-0.367
311,-0.539,0.47,-0.086,0.458,-1.235,0.007,0.385,-0.25,-0.384
312,-0.765,0.602,-0.069,0.343,-1.129,-0.149,0.385,-0.232,-0.387
313,-0.991,0.643,-0.012,0.115,-1.089,-0.117,0.378,-0.249,-0.39
314,-1.131,0.669,0.08,-0.071,-1.093,-0.027,0.387,-0.229,-0.415
315,-1.207,0.59,0.118,-0.141,-1.042,-0.025,0.39,-0.228,-0.447
316,-1.246,0.128,0.194,-0.119,-1.102,0.071,0.39,-0.225,-0.459
317,-1.284,-0.066,0.207,-0.088,-1.189,0.123,0.394,-0.217,-0.472
318,-1.227,0.049,0.153,-0.016,-1.22,0.024,0.399,-0.21,-0.481
319,-1.055,0.403,0.033,0.026,-1.129,-0.084,0.396,-0.19,-0.508
320,-0.921,0.705,0.077,0.086,-0.988,-0.092,0.393,-0.174,-0.529
321,-0.884,0.898,0.166,0.183,-1.027,0.035,0.397,-0.172,-0.555
322,-0.814,1.004,0.206,0.205,-1.058,0.151,0.397,-0.172,-0.555
323,-0.809,1.132,0.136,0.005,-0.933,0.202,0.417,-0.16,-0.577
324,-0.725,1.171,0.151,-0.09,-0.861,0.199,0.429,-0.16,-0.586
325,-0.568,1.169,0.168,-0.09,-0.861,0.199,0.429,-0.16,-0.597
326,-0.459,1.188,0.075,-0.093,-0.791,0.141,0.447,-0.156,-0.628
327,-0.364,1.08,0.005,-0.105,-0.764,0.134,0.465,-0.13,-0.622
328,-0.135,0.812,-0.017,-0.158,-0.699,0.208,0.466,-0.132,-0.654
329,0.118,0.501,-0.06,-0.192,-0.659,0.272,0.481,-0.117,-0.652
330,0.179,0.166,0.061,-0.139,-0.746,0.387,0.498,-0.115,-0.643
331,0.241,0.112,0.092,-0.062,-0.759,0.366,0.481,-0.126,-0.642
332,0.31,0.119,0.058,-0.055,-0.642,0.286,0.486,-0.126,-0.637
333,0.349,0.044,0.081,-0.019,-0.627,0.332,0.508,-0.132,-0.631
334,0.464,0.009,0.079,-0.001,-0.62,0.355,0.493,-0.157,-0.64
335,0.513,-0.005,0.095,-0.009,-0.634,0.38,0.502,-0.139,-0.634
336,0.485,-0.054,0.165,0.004,-0.694,0.427,0.502,-0.139,-0.634
337,0.496,0.004,0.193,0.022,-0.728,0.461,0.501,-0.171,-0.631
338,0.448,0.034,0.259,0.023,-0.792,0.556,0.499,-0.165,-0.616
339,0.269,0.145,0.219,0.028,-0.898,0.657,0.502,-0.168,-0.6
340,-0.043,-0.028,0.198,0.097,-1.062,0.753,0.492,-0.181,-0.61
341,0.066,-0.165,0.235,0.118,-1.179,0.546,0.489,-0.183,-0.621
342,0.135,0.313,0.132,-0.023,-0.85,0.617,0.49,-0.171,-0.618
343,0.021,0.633,-0.012,-0.023,-0.85,0.617,0.48,-0.183,-0.61
344,-0.093,0.254,0.01,-0.176,-0.549,0.61,0.504,-0.171,-0.619
345,0.091,-0.513,-0.053,-0.303,-0.889,0.233,0.498,-0.18,-0.616
346,-0.068,-0.285,-0.234,-0.377,-1.642,-0.142,0.495,-0.172,-0.598
347,-0.105,-0.313,-0.092,-0.098,-1.905,0.033,0.511,-0.183,-0.621
348,-0.094,-0.692,-0.135,0.095,-1.184,0.101,0.505,-0.184,-0.636
349,-0.204,-0.472,-0.13,-0.03,-0.546,-0.08,0.487,-0.19,-0.615
350,0.329,-0.959,0.046,0.072,-0.599,-0.063,0.502,-0.187,-0.622
351,0.709,-1.286,0.188,0.232,-0.8,-0.135,0.477,-0.181,-0.619
352,0.662,-0.8,0.336,0.349,-1.174,-0.178,0.462,-0.184,-0.616
353,0.233,-0.723,0.229,0.259,-1.258,-0.002,0.472,-0.201,-0.609
354,-0.013,-0.938,0.007,-0.103,-0.933,0.364,0.454,-0.213,-0.603
355,0.221,-1.213,-0.028,-0.257,-0.711,0.363,0.454,-0.213,-0.603
356,0.406,-1.255,0.061,-0.074,-0.746,0.048,0.445,-0.195,-0.586
357,0.513,-1.162,0.134,0.204,-0.863,-0.154,0.433,-0.231,-0.594
358,0.576,-1.047,0.149,0.304,-0.814,0.03,0.412,-0.213,-0.582
359,0.556,-0.665,0.102,0.272,-0.835,0.006,0.411,-0.231,-0.559
360,0.519,-0.457,0.048,0.272,-0.835,0.006,0.396,-0.232,-0.532
361,0.438,-0.386,-0.024,0.292,-0.901,0.0,0.396,-0.232,-0.532
362,0.34,-0.373,-0.088,0.268,-0.895,0.066,0.399,-0.234,-0.531
363,0.296,-0.373,-0.106,0.233,-0.897,0.131,0.393,-0.25,-0.523
364,0.303,-0.347,-0.139,0.214,-0.902,0.115,0.37,-0.255,-0.516
365,0.361,-0.28,-0.179,0.195,-0.871,0.067,0.403,-0.258,-0.481
366,0.454,-0.243,-0.211,0.186,-0.865,0.055,0.376,-0.265,-0.489
367,0.535,-0.254,-0.259,0.177,-0.865,0.068,0.39,-0.283,-0.492
368,0.563,-0.287,-0.298,0.157,-0.849,0.09,0.399,-0.276,-0.46
369,0.551,-0.345,-0.324,0.147,-0.863,0.108,0.399,-0.28,-0.43
370,0.512,-0.378,-0.324,0.19,-0.906,0.096,0.382,-0.282,-0.429
371,0.456,-0.38,-0.287,0.256,-0.933,0.067,0.391,-0.286,-0.439
372,0.372,-0.357,-0.228,0.265,-0.958,0.057,0.391,-0.286,-0.439
373,0.275,-0.3,-0.167,0.235,-1.036,0.1,0.397,-0.304,-0.405
374,0.24,-0.197,-0.139,0.243,-1.088,0.098,0.415,-0.304,-0.411
375,0.229,-0.144,-0.156,0.263,-1.049,0.098,0.402,-0.319,-0.421
376,0.112,-0.148,-0.154,0.335,-1.104,0.282,0.399,-0.288,-0.396
377,-0.072,-0.132,-0.134,0.466,-1.15,0.135,0.42,-0.292,-0.382
378,-0.222,0.056,-0.063,0.466,-1.15,0.135,0.4,-0.297,-0.369
379,-0.463,0.396,0.077,0.59,-1.251,-0.045,0.426,-0.298,-0.381
380,-0.84,0.703,0.133,0.544,-1.325,-0.151,0.42,-0.295,-0.39
381,-1.127,0.879,0.142,0.275,-1.358,-0.22,0.429,-0.289,-0.397
382,-1.188,1.036,0.188,-0.026,-1.29,-0.206,0.429,-0.285,-0.408
383,-1.315,0.899,0.218,-0.11,-1.194,-0.116,0.43,-0.285,-0.435
384,-1.261,0.492,0.258,-0.053,-1.249,0.045,0.435,-0.267,-0.448
385,-1.206,0.273,0.2,-0.018,-1.27,0.052,0.424,-0.238,-0.484
386,-1.232,0.068,0.141,-0.044,-1.168,0.022,0.402,-0.225,-0.499
387,-1.11,0.089,0.086,-0.069,-1.071,0.076,0.418,-0.217,-0.51
388,-0.991,0.595,0.191,0.106,-1.104,-0.001,0.414,-0.204,-0.528
389,-1.074,0.903,0.305,0.305,-1.174,-0.041,0.432,-0.195,-0.535
390,-1.045,1.341,0.171,0.226,-1.101,0.052,0.444,-0.19,-0.558
391,-0.917,1.507,0.024,0.072,-0.884,0.02,0.456,-0.171,-0.57
392,-0.701,1.355,0.011,-0.018,-0.708,0.074,0.456,-0.171,-0.57
393,-0.544,1.232,0.003,-0.098,-0.784,0.188,0.466,-0.162,-0.567
394,-0.356,1.18,0.011,-0.145,-0.673,0.154,0.487,-0.16,-0.6
395,-0.153,1.067,-0.067,-0.153,-0.522,0.148,0.493,-0.144,-0.594
396,0.167,0.714,-0.126,-0.153,-0.522,0.148,0.51,-0.154,-0.601
397,0.387,0.298,-0.051,-0.133,-0.477,0.206,0.522,-0.133,-0.589
398,0.45,0.164,-0.004,-0.069,-0.536,0.263,0.52,-0.13,-0.597
399,0.441,0.202,0.03,-0.027,-0.603,0.311,0.532,-0.148,-0.588
400,0.584,0.246,0.037,-0.017,-0.616,0.355,0.535,-0.147,-0.573
401,0.722,0.213,0.072,0.014,-0.604,0.411,0.516,-0.156,-0.58
402,0.702,0.183,0.16,0.07,-0.666,0.485,0.538,-0.15,-0.567
403,0.563,0.205,0.262,0.11,-0.836,0.62,0.525,-0.178,-0.568
404,0.264,0.21,0.304,0.111,-0.968,0.742,0.544,-0.174,-0.558
405,-0.065,0.098,0.306,0.123,-1.096,0.821,0.535,-0.169,-0.549
406,0.051,-0.14,0.303,0.084,-1.23,0.78,0.529,-0.187,-0.567
407,0.105,0.291,0.142,-0.007,-1.214,0.577,0.52,-0.18,-0.552
408,0.073,0.838,-0.07,-0.073,-0.872,0.496,0.505,-0.171,-0.544
409,-0.01,0.73,-0.08,-0.152,-0.46,0.517,0.513,-0.162,-0.522
410,-0.003,0.004,0.051,-0.269,-0.633,0.441,0.513,-0.162,-0.522
411,0.093,-0.448,-0.106,-0.142,-1.994,0.103,0.502,-0.183,-0.532
412,-0.086,-0.345,0.121,0.016,-1.26,0.01,0.495,-0.165,-0.532
413,-0.004,-0.633,-0.069,0.016,-1.26,0.01,0.516,-0.163,-0.543
414,-0.483,-0.312,-0.183,-0.123,-0.454,-0.047,0.504,-0.172,-0.528
415,0.11,-0.889,0.102,-0.011,-0.515,0.035,0.513,-0.165,-0.558
416,0.725,-1.403,0.172,0.231,-0.691,-0.089,0.507,-0.171,-0.552
417,0.717,-0.709,0.301,0.337,-1.056,-0.259,0.475,-0.172,-0.546
418,0.348,-0.618,0.273,0.414,-1.361,-0.086,0.454,-0.172,-0.528
419,0.09,-0.901,0.05,0.048,-1.059,0.347,0.448,-0.189,-0.514
420,0.275,-1.085,0.01,-0.285,-0.71,0.376,0.453,-0.175,-0.504
421,0.49,-1.252,0.099,-0.068,-0.718,0.076,0.421,-0.178,-0.508
422,0.658,-1.318,0.219,0.241,-0.872,-0.094,0.411,-0.177,-0.478
423,0.714,-1.223,0.233,0.366,-0.904,-0.079,0.406,-0.193,-0.462
424,0.657,-0.837,0.149,0.345,-0.772,0.005,0.406,-0.193,-0.462
425,0.549,-0.459,0.0,0.283,-0.709,-0.016,0.381,-0.186,-0.436
426,0.409,-0.386,-0.082,0.297,-0.816,-0.022,0.381,-0.186,-0.436
427,0.342,-0.372,-0.098,0.314,-0.915,0.06,0.385,-0.205,-0.438
428,0.368,-0.362,-0.099,0.279,-0.878,0.077,0.355,-0.192,-0.42
429,0.458,-0.314,-0.114,0.263,-0.832,0.037,0.376,-0.204,-0.4
430,0.546,-0.225,-0.16,0.206,-0.845,0.06,0.352,-0.211,-0.414
431,0.603,-0.189,-0.224,0.206,-0.845,0.06,0.363,-0.201,-0.382
432,0.627,-0.228,-0.288,0.145,-0.864,0.092,0.397,-0.213,-0.388
433,0.592,-0.289,-0.336,0.116,-0.896,0.108,0.369,-0.222,-0.372
434,0.507,-0.339,-0.352,0.15,-0.937,0.112,0.363,-0.231,-0.361
435,0.438,-0.35,-0.32,0.239,-0.97,0.082,0.375,-0.238,-0.358
436,0.369,-0.345,-0.251,0.322,-1.009,0.064,0.397,-0.237,-0.369
437,0.264,-0.282,-0.177,0.317,-1.064,0.09,0.369,-0.226,-0.342
438,0.203,-0.219,-0.134,0.283,-1.097,0.095,0.385,-0.244,-0.351
439,0.135,-0.249,-0.158,0.224,-1.08,0.129,0.376,-0.237,-0.333
440,-0.006,-0.342,-0.163,0.206,-1.103,0.262,0.382,-0.225,-0.319
441,-0.18,-0.312,-0.19,0.289,-1.116,0.316,0.376,-0.249,-0.34
442,-0.366,-0.081,-0.173,0.555,-1.152,-0.091,0.376,-0.244,-0.336
443,-0.62,0.417,-0.007,0.555,-1.152,-0.091,0.376,-0.244,-0.336
444,-0.978,0.847,0.113,0.656,-1.27,-0.232,0.369,-0.252,-0.324
445,-1.32,1.03,0.219,0.443,-1.291,-0.268,0.352,-0.249,-0.358
446,-1.393,1.108,0.301,-0.151,-1.31,-0.04,0.352,-0.249,-0.358
447,-1.327,0.789,0.268,-0.11,-1.364,0.066,0.372,-0.225,-0.408
448,-1.293,0.287,0.254,-0.11,-1.364,0.066,0.361,-0.228,-0.421
449,-1.262,0.036,0.207,-0.098,-1.36,0.079,0.388,-0.222,-0.432
450,-1.306,-0.098,0.079,-0.093,-1.182,0.045,0.36,-0.207,-0.478
451,-1.087,0.213,0.081,-0.059,-1.025,0.09,0.361,-0.202,-0.492
452,-1.057,0.747,0.226,0.073,-0.941,-0.071,0.385,-0.192,-0.499
453,-1.076,1.071,0.237,0.243,-1.008,-0.026,0.366,-0.178,-0.505
454,-0.961,1.465,0.103,0.219,-0.987,0.091,0.375,-0.157,-0.55
455,-0.751,1.46,-0.011,0.065,-0.76,0.067,0.393,-0.157,-0.565
456,-0.538,1.244,0.051,-0.022,-0.656,0.195,0.423,-0.147,-0.588
457,-0.288,1.106,0.114,-0.026,-0.748,0.249,0.436,-0.136,-0.586
458,-0.113,1.111,0.049,-0.047,-0.75,0.187,0.436,-0.136,-0.586
459,0.07,0.905,-0.032,-0.117,-0.633,0.143,0.448,-0.136,-0.607
460,0.334,0.451,-0.037,-0.181,-0.519,0.181,0.46,-0.133,-0.619
461,0.528,0.154,-0.018,-0.172,-0.484,0.229,0.459,-0.136,-0.636
462,0.565,0.073,-0.005,-0.118,-0.519,0.252,0.453,-0.162,-0.625
463,0.625,0.095,0.01,-0.068,-0.56,0.323,0.463,-0.124,-0.603
464,0.739,0.112,0.019,0.036,-0.623,0.508,0.46,-0.15,-0.606
465,0.721,0.059,0.088,0.036,-0.623,0.508,0.462,-0.168,-0.61
466,0.559,0.077,0.193,0.106,-0.792,0.611,0.475,-0.172,-0.583
467,0.269,0.122,0.271,0.174,-1.049,0.744,0.466,-0.183,-0.579
468,-0.079,0.109,0.249,0.171,-1.228,0.774,0.462,-0.162,-0.592
469,-0.046,-0.112,0.275,0.054,-1.281,0.706,0.451,-0.154,-0.588
470,0.216,0.097,0.171,-0.025,-1.301,0.67,0.457,-0.183,-0.574
471,0.206,0.718,-0.066,-0.026,-0.986,0.63,0.45,-0.201,-0.574
472,0.141,0.915,-0.098,-0.078,-0.447,0.619,0.45,-0.201,-0.574
473,-0.056,0.417,0.133,-0.149,-0.337,0.57,0.459,-0.184,-0.58
474,0.274,-0.723,0.151,-0.247,-0.926,0.294,0.483,-0.177,-0.6
475,0.075,-0.357,0.102,-0.301,-1.685,-0.118,0.468,-0.184,-0.588
476,0.161,-0.364,0.095,0.157,-1.934,0.091,0.462,-0.172,-0.58
477,-0.372,-0.379,-0.306,0.062,-1.003,0.078,0.451,-0.193,-0.585
478,-0.442,-0.197,-0.252,-0.231,-0.343,-0.181,0.453,-0.177,-0.579
479,0.317,-1.128,0.039,0.145,-0.617,-0.088,0.442,-0.196,-0.582
480,0.802,-1.162,0.229,0.236,-0.771,-0.209,0.456,-0.183,-0.57
481,0.719,-0.73,0.464,0.353,-1.201,-0.236,0.415,-0.195,-0.561
482,0.284,-1.0,0.349,-0.055,-0.962,0.449,0.4,-0.189,-0.54
483,0.183,-1.189,0.084,-0.055,-0.962,0.449,0.39,-0.195,-0.538
484,0.477,-1.253,0.036,-0.129,-0.689,0.213,0.402,-0.193,-0.547
485,0.704,-1.126,0.154,0.181,-0.762,-0.097,0.358,-0.192,-0.496
486,0.69,-0.966,0.163,0.366,-0.867,-0.093,0.34,-0.195,-0.493
487,0.667,-0.673,0.105,0.37,-0.803,-0.044,0.34,-0.195,-0.493
488,0.662,-0.412,0.041,0.323,-0.772,-0.017,0.351,-0.205,-0.484
489,0.563,-0.375,-0.035,0.312,-0.836,-0.026,0.334,-0.232,-0.475
490,0.492,-0.383,-0.089,0.296,-0.883,0.006,0.346,-0.213,-0.439
491,0.512,-0.352,-0.132,0.221,-0.846,0.047,0.343,-0.207,-0.453
492,0.557,-0.312,-0.181,0.154,-0.805,0.056,0.327,-0.217,-0.45
493,0.58,-0.26,-0.228,0.151,-0.796,0.092,0.361,-0.228,-0.43
494,0.61,-0.254,-0.252,0.186,-0.803,0.116,0.337,-0.22,-0.424
495,0.617,-0.291,-0.273,0.197,-0.838,0.117,0.349,-0.234,-0.414
496,0.59,-0.301,-0.287,0.179,-0.931,0.13,0.336,-0.231,-0.403
497,0.518,-0.315,-0.292,0.202,-1.021,0.144,0.342,-0.246,-0.381
498,0.42,-0.347,-0.262,0.275,-1.044,0.132,0.342,-0.246,-0.381
499,0.268,-0.401,-0.219,0.299,-1.076,0.157,0.336,-0.252,-0.366
500,0.142,-0.329,-0.191,0.321,-1.058,0.12,0.339,-0.261,-0.346
501,0.081,-0.216,-0.173,0.321,-1.058,0.12,0.346,-0.267,-0.367
502,-0.067,-0.224,-0.163,0.317,-1.05,0.128,0.343,-0.249,-0.343
503,-0.297,-0.182,-0.093,0.341,-1.153,0.183,0.345,-0.258,-0.361
504,-0.522,0.112,0.0,0.377,-1.21,0.055,0.348,-0.235,-0.361
505,-0.857,0.483,0.076,0.447,-1.222,-0.129,0.346,-0.238,-0.378
506,-1.31,0.619,0.131,0.404,-1.313,-0.193,0.343,-0.238,-0.385
507,-1.418,0.823,0.215,0.094,-1.348,-0.185,0.345,-0.232,-0.394
508,-1.307,0.781,0.248,-0.094,-1.297,-0.132,0.354,-0.214,-0.441
509,-1.314,0.27,0.273,-0.108,-1.31,0.02,0.352,-0.217,-0.457
510,-1.215,-0.088,0.214,-0.084,-1.379,0.135,0.363,-0.21,-0.463
511,-1.297,-0.099,0.123,-0.037,-1.272,0.088,0.349,-0.175,-0.514
512,-1.348,0.163,0.008,-0.002,-1.1,0.082,0.351,-0.183,-0.507
513,-1.133,0.716,0.011,0.106,-1.045,0.021,0.354,-0.178,-0.498
514,-1.097,0.94,0.112,0.264,-1.085,-0.064,0.354,-0.178,-0.498
515,-1.078,1.149,0.092,0.243,-1.074,0.055,0.345,-0.157,-0.513
516,-0.891,1.336,-0.053,-0.069,-0.708,0.114,0.36,-0.144,-0.552
517,-0.723,1.251,-0.135,-0.048,-0.726,0.172,0.382,-0.117,-0.586
518,-0.49,0.944,0.007,-0.048,-0.726,0.172,0.39,-0.102,-0.583
519,-0.261,0.828,0.058,-0.003,-0.806,0.197,0.39,-0.102,-0.583
520,-0.009,0.75,0.007,-0.078,-0.676,0.162,0.412,-0.109,-0.624
521,0.284,0.489,-0.007,-0.158,-0.514,0.144,0.442,-0.102,-0.634
522,0.548,0.188,0.017,-0.138,-0.477,0.198,0.432,-0.087,-0.616
523,0.653,0.054,0.047,-0.088,-0.478,0.259,0.45,-0.105,-0.609
524,0.62,0.097,0.056,-0.041,-0.504,0.328,0.418,-0.117,-0.609
525,0.662,0.205,0.044,0.016,-0.529,0.415,0.447,-0.099,-0.595
526,0.721,0.262,0.076,0.058,-0.52,0.466,0.435,-0.124,-0.586
527,0.674,0.294,0.168,0.097,-0.611,0.514,0.435,-0.133,-0.607
528,0.527,0.4,0.261,0.129,-0.835,0.636,0.442,-0.133,-0.576
529,0.09,0.346,0.28,0.132,-1.077,0.775,0.429,-0.132,-0.592
530,-0.068,-0.194,0.385,0.131,-1.316,0.889,0.438,-0.135,-0.58
531,0.179,-0.112,0.269,0.001,-1.36,0.74,0.436,-0.135,-0.589
532,0.006,0.772,-0.027,-0.138,-1.082,0.556,0.43,-0.132,-0.589
533,-0.264,1.078,-0.181,-0.194,-0.574,0.584,0.432,-0.112,-0.591
534,-0.136,0.128,-0.107,-0.336,-1.395,0.141,0.432,-0.112,-0.591
535,-0.082,-0.16,-0.187,-0.136,-1.993,0.095,0.436,-0.115,-0.594
536,-0.176,-0.176,0.097,-0.136,-1.993,0.095,0.462,-0.129,-0.577
537,-0.161,-0.455,-0.121,0.033,-1.173,0.064,0.45,-0.111,-0.589
538,-0.499,-0.158,-0.201,-0.096,-0.449,-0.071,0.448,-0.109,-0.585
539,0.138,-0.747,0.056,0.048,-0.633,0.015,0.444,-0.111,-0.586
540,0.641,-1.31,0.121,0.231,-0.754,-0.039,0.435,-0.112,-0.592
541,0.666,-0.635,0.27,0.272,-1.104,-0.184,0.43,-0.112,-0.576
542,0.538,-0.497,0.347,0.368,-1.399,-0.133,0.42,-0.117,-0.555
543,0.216,-0.896,0.17,0.115,-1.12,0.284,0.412,-0.111,-0.552
544,0.191,-1.11,0.075,-0.227,-0.746,0.4,0.411,-0.118,-0.54
545,0.466,-1.302,0.117,-0.166,-0.708,0.13,0.364,-0.124,-0.52
546,0.632,-1.347,0.238,0.145,-0.859,-0.066,0.373,-0.106,-0.517
547,0.64,-1.237,0.252,0.351,-0.929,-0.077,0.369,-0.124,-0.507
548,0.697,-0.978,0.196,0.324,-0.84,0.003,0.369,-0.124,-0.507
549,0.657,-0.654,0.081,0.255,-0.74,0.028,0.355,-0.12,-0.492
550,0.553,-0.536,-0.049,0.28,-0.747,-0.035,0.34,-0.127,-0.483
551,0.466,-0.487,-0.132,0.283,-0.799,-0.011,0.354,-0.145,-0.463
552,0.466,-0.443,-0.165,0.226,-0.854,0.1,0.348,-0.129,-0.472
553,0.513,-0.453,-0.192,0.208,-0.833,0.096,0.331,-0.126,-0.442
554,0.581,-0.428,-0.225,0.208,-0.833,0.096,0.322,-0.13,-0.453
555,0.665,-0.373,-0.278,0.192,-0.822,0.062,0.333,-0.153,-0.42
556,0.701,-0.338,-0.343,0.147,-0.81,0.074,0.33,-0.166,-0.429
557,0.663,-0.349,-0.385,0.125,-0.843,0.137,0.339,-0.166,-0.408
558,0.588,-0.372,-0.385,0.184,-0.916,0.168,0.342,-0.163,-0.408
559,0.499,-0.393,-0.321,0.28,-0.965,0.129,0.337,-0.163,-0.394
560,0.348,-0.401,-0.247,0.325,-1.015,0.119,0.345,-0.172,-0.37
561,0.254,-0.284,-0.178,0.351,-1.07,0.123,0.34,-0.174,-0.349
562,0.189,-0.179,-0.174,0.328,-1.09,0.139,0.33,-0.181,-0.355
563,0.021,-0.247,-0.179,0.25,-1.136,0.216,0.33,-0.181,-0.355
564,-0.22,-0.233,-0.178,0.262,-1.168,0.272,0.334,-0.177,-0.352
565,-0.389,0.03,-0.097,0.377,-1.129,0.117,0.351,-0.18,-0.348
566,-0.679,0.466,-0.001,0.529,-1.185,-0.087,0.342,-0.171,-0.36
567,-1.173,0.669,0.077,0.549,-1.279,-0.194,0.358,-0.157,-0.349
568,-1.376,0.817,0.235,0.221,-1.341,-0.233,0.348,-0.159,-0.375
569,-1.255,0.876,0.334,-0.161,-1.347,-0.03,0.364,-0.156,-0.399
570,-1.29,0.367,0.401,-0.12,-1.444,0.166,0.349,-0.157,-0.429
571,-1.157,-0.181,0.389,-0.12,-1.444,0.166,0.346,-0.142,-0.457
572,-1.324,-0.31,0.249,-0.08,-1.407,0.144,0.343,-0.124,-0.448
573,-1.367,-0.212,0.127,-0.063,-1.173,0.092,0.336,-0.112,-0.474
574,-1.048,0.293,0.056,0.053,-1.016,0.039,0.324,-0.121,-0.468
575,-1.11,0.933,0.172,0.238,-0.974,-0.194,0.327,-0.106,-0.483
576,-1.111,1.378,0.138,0.308,-1.033,-0.095,0.343,-0.1,-0.513
577,-0.931,1.682,-0.084,0.167,-0.937,0.038,0.334,-0.081,-0.514
578,-0.726,1.352,-0.111,-0.008,-0.737,0.08,0.334,-0.081,-0.514
579,-0.547,1.054,-0.003,-0.049,-0.728,0.244,0.364,-0.067,-0.561
580,-0.376,1.044,0.042,-0.055,-0.772,0.231,0.381,-0.054,-0.583
581,-0.193,0.997,-0.02,-0.101,-0.713,0.15,0.378,-0.037,-0.576
582,0.065,0.743,-0.075,-0.175,-0.554,0.129,0.415,-0.046,-0.595
583,0.449,0.362,-0.046,-0.174,-0.476,0.151,0.429,-0.061,-0.589
584,0.706,0.045,0.008,-0.119,-0.464,0.183,0.423,-0.064,-0.583
585,0.732,-0.036,0.055,-0.074,-0.468,0.256,0.432,-0.067,-0.588
586,0.709,0.06,0.084,-0.009,-0.524,0.353,0.403,-0.072,-0.582
587,0.751,0.14,0.086,0.093,-0.607,0.532,0.424,-0.045,-0.591
588,0.677,0.173,0.141,0.13,-0.838,0.683,0.427,-0.084,-0.589
589,0.536,0.259,0.263,0.13,-0.838,0.683,0.438,-0.066,-0.58
590,0.227,0.318,0.31,0.143,-1.065,0.785,0.417,-0.085,-0.556
591,-0.133,-0.009,0.364,0.148,-1.279,0.836,0.442,-0.076,-0.568
592,0.099,-0.301,0.359,0.018,-1.453,0.812,0.421,-0.073,-0.565
593,0.028,0.436,0.087,-0.117,-1.332,0.673,0.429,-0.058,-0.576
594,-0.222,1.169,-0.126,-0.142,-0.846,0.662,0.429,-0.058,-0.576
595,-0.284,0.616,0.0,-0.159,-0.596,0.702,0.451,-0.091,-0.594
596,0.163,-0.827,0.063,-0.144,-1.144,0.437,0.429,-0.066,-0.568
597,-0.085,-0.233,0.067,-0.138,-1.815,-0.125,0.445,-0.069,-0.574
598,-0.055,-0.261,-0.069,0.012,-1.489,0.012,0.441,-0.067,-0.571
599,-0.569,0.032,-0.219,-0.055,-0.72,0.145,0.444,-0.063,-0.571
600,-0.126,-0.476,0.112,-0.099,-0.617,0.055,0.442,-0.058,-0.585
601,0.672,-1.811,0.263,0.161,-0.775,0.167,0.445,-0.054,-0.594
602,0.659,-1.185,0.351,0.292,-1.024,-0.271,0.415,-0.048,-0.579
603,0.437,-0.61,0.371,0.308,-1.332,-0.279,0.405,-0.057,-0.559
604,0.122,-0.945,0.144,0.063,-1.127,0.296,0.4,-0.069,-0.544
605,0.083,-1.092,-0.023,-0.067,-0.779,0.212,0.4,-0.058,-0.538
606,0.375,-1.368,0.072,-0.067,-0.779,0.212,0.375,-0.064,-0.546
607,0.692,-1.359,0.21,0.26,-0.8,-0.092,0.366,-0.069,-0.522
608,0.788,-1.194,0.251,0.408,-0.81,-0.198,0.37,-0.067,-0.511
609,0.798,-0.903,0.146,0.36,-0.829,-0.087,0.363,-0.084,-0.484
610,0.798,-0.616,0.035,0.267,-0.765,0.015,0.363,-0.084,-0.484
611,0.646,-0.483,-0.104,0.223,-0.79,0.073,0.354,-0.078,-0.451
612,0.48,-0.489,-0.187,0.193,-0.871,0.084,0.349,-0.078,-0.477
613,0.485,-0.495,-0.226,0.178,-0.895,0.086,0.36,-0.084,-0.451
614,0.552,-0.465,-0.257,0.168,-0.846,0.06,0.361,-0.075,-0.433
615,0.632,-0.441,-0.299,0.179,-0.799,0.036,0.345,-0.109,-0.445
616,0.701,-0.411,-0.357,0.21,-0.794,0.063,0.355,-0.097,-0.421
617,0.704,-0.387,-0.389,0.226,-0.818,0.061,0.342,-0.102,-0.43
618,0.626,-0.415,-0.394,0.23,-0.887,0.115,0.348,-0.112,-0.429
619,0.512,-0.419,-0.355,0.258,-0.956,0.156,0.367,-0.139,-0.393
620,0.398,-0.432,-0.268,0.306,-0.968,0.124,0.369,-0.12,-0.397
621,0.281,-0.425,-0.2,0.36,-0.999,0.108,0.361,-0.124,-0.391
622,0.176,-0.298,-0.159,0.412,-1.061,0.128,0.367,-0.124,-0.378
623,0.054,-0.266,-0.151,0.237,-1.197,0.308,0.343,-0.132,-0.384
624,-0.211,-0.35,-0.173,0.237,-1.197,0.308,0.379,-0.127,-0.369
625,-0.409,-0.17,-0.033,0.297,-1.204,0.189,0.382,-0.132,-0.379
626,-0.672,0.324,0.087,0.453,-1.195,-0.068,0.366,-0.138,-0.37
627,-1.081,0.616,0.116,0.616,-1.246,-0.198,0.366,-0.138,-0.37
628,-1.418,0.735,0.179,0.381,-1.298,-0.218,0.358,-0.133,-0.402
629,-1.446,0.835,0.209,-0.111,-1.358,-0.138,0.379,-0.127,-0.394
630,-1.381,0.339,0.24,-0.254,-1.425,0.009,0.361,-0.129,-0.405
631,-1.348,0.162,0.161,-0.186,-1.494,0.133,0.354,-0.099,-0.418
632,-1.306,0.237,0.004,-0.106,-1.446,0.068,0.363,-0.111,-0.441
633,-1.289,0.438,-0.2,-0.079,-1.181,0.004,0.381,-0.103,-0.466
634,-1.349,0.777,-0.23,-0.017,-0.994,0.025,0.381,-0.105,-0.46
635,-1.233,0.832,-0.103,0.155,-1.071,0.062,0.372,-0.079,-0.478
636,-1.194,0.805,-0.073,0.241,-1.107,0.116,0.396,-0.078,-0.502
637,-1.012,1.099,-0.224,0.054,-0.944,0.158,0.394,-0.082,-0.513
638,-0.713,1.013,-0.214,-0.174,-0.676,0.131,0.406,-0.064,-0.534
639,-0.504,0.83,-0.099,-0.141,-0.666,0.143,0.423,-0.045,-0.55
640,-0.263,0.704,-0.061,-0.065,-0.558,0.102,0.412,-0.045,-0.549
641,0.054,0.542,-0.087,-0.065,-0.558,0.102,0.423,-0.045,-0.559
642,0.341,0.377,-0.111,-0.108,-0.428,0.158,0.439,-0.046,-0.544
643,0.605,0.16,-0.067,-0.113,-0.399,0.204,0.439,-0.046,-0.544
644,0.674,0.011,0.006,-0.088,-0.449,0.263,0.433,-0.054,-0.576
645,0.693,-0.028,0.054,-0.061,-0.516,0.357,0.42,-0.063,-0.544
646,0.774,-0.033,0.109,-0.052,-0.514,0.461,0.436,-0.064,-0.537
647,0.721,0.049,0.161,0.002,-0.556,0.576,0.435,-0.084,-0.537
648,0.539,0.241,0.228,0.087,-0.739,0.714,0.432,-0.088,-0.513
649,0.34,0.427,0.249,0.115,-0.932,0.819,0.444,-0.085,-0.528
650,-0.049,0.033,0.279,0.138,-1.206,0.882,0.45,-0.093,-0.526
651,0.116,-0.456,0.392,0.08,-1.597,0.87,0.442,-0.082,-0.517
652,-0.01,0.444,0.176,-0.06,-1.545,0.695,0.453,-0.079,-0.528
653,-0.32,1.213,-0.184,-0.221,-0.873,0.689,0.439,-0.097,-0.525
654,-0.273,0.346,-0.156,-0.357,-0.435,0.706,0.438,-0.081,-0.525
655,-0.189,-0.046,-0.25,-0.311,-1.01,0.064,0.444,-0.085,-0.537
656,-0.226,-0.066,-0.086,-0.232,-1.797,-0.162,0.439,-0.084,-0.52
657,-0.063,-0.582,-0.207,0.127,-1.417,0.077,0.462,-0.07,-0.54
658,-0.353,-0.195,-0.233,-0.065,-0.804,0.029,0.459,-0.07,-0.516
659,0.236,-0.619,-0.033,-0.065,-0.804,0.029,0.466,-0.073,-0.525
660,0.59,-1.211,0.117,0.02,-0.835,0.069,0.466,-0.073,-0.525
661,0.695,-0.903,0.385,0.208,-1.045,-0.078,0.45,-0.081,-0.523
662,0.661,-0.795,0.455,0.314,-1.23,-0.143,0.424,-0.057,-0.523
663,0.303,-1.157,0.172,0.07,-1.034,0.185,0.402,-0.079,-0.496
664,0.303,-1.249,0.029,-0.24,-0.745,0.366,0.406,-0.097,-0.468
665,0.482,-1.157,0.022,-0.141,-0.694,0.128,0.393,-0.094,-0.486
666,0.731,-1.097,0.154,0.2,-0.845,-0.075,0.354,-0.102,-0.444
667,0.805,-1.015,0.214,0.38,-0.906,-0.103,0.366,-0.102,-0.454
668,0.776,-0.827,0.158,0.348,-0.789,-0.01,0.381,-0.091,-0.43
669,0.677,-0.579,0.046,0.241,-0.712,0.101,0.361,-0.085,-0.411
670,0.591,-0.487,-0.058,0.219,-0.779,0.058,0.363,-0.097,-0.406
671,0.562,-0.44,-0.135,0.264,-0.841,0.029,0.375,-0.09,-0.381
672,0.616,-0.326,-0.19,0.26,-0.817,0.022,0.352,-0.117,-0.384
673,0.672,-0.249,-0.238,0.229,-0.784,0.044,0.358,-0.115,-0.393
674,0.717,-0.228,-0.289,0.217,-0.797,0.102,0.358,-0.115,-0.393
675,0.74,-0.247,-0.334,0.174,-0.893,0.118,0.37,-0.118,-0.372
676,0.683,-0.275,-0.382,0.142,-0.933,0.134,0.367,-0.118,-0.37
677,0.577,-0.301,-0.404,0.142,-0.933,0.134,0.385,-0.136,-0.34
678,0.487,-0.317,-0.333,0.201,-1.021,0.128,0.385,-0.136,-0.34
679,0.354,-0.321,-0.242,0.276,-1.085,0.114,0.382,-0.132,-0.355
680,0.236,-0.205,-0.172,0.312,-1.075,0.116,0.385,-0.132,-0.328
681,0.122,-0.093,-0.154,0.355,-1.057,0.133,0.364,-0.118,-0.324
682,-0.074,-0.053,-0.156,0.352,-1.146,0.184,0.382,-0.139,-0.337
683,-0.268,0.074,-0.014,0.383,-1.321,0.175,0.384,-0.148,-0.334
684,-0.478,0.359,0.046,0.521,-1.384,0.018,0.387,-0.121,-0.333
685,-0.926,0.678,0.035,0.502,-1.338,-0.145,0.391,-0.141,-0.345
686,-1.323,0.848,0.068,0.238,-1.336,-0.162,0.397,-0.138,-0.361
687,-1.29,1.201,0.105,-0.013,-1.248,-0.186,0.397,-0.127,-0.375
688,-1.182,1.038,0.165,-0.112,-1.134,-0.156,0.373,-0.123,-0.411
689,-1.148,0.64,0.227,-0.072,-1.191,0.018,0.399,-0.138,-0.417
690,-1.12,0.355,0.194,-0.006,-1.242,0.052,0.405,-0.117,-0.448
691,-1.263,0.154,0.028,-0.009,-1.175,0.059,0.396,-0.106,-0.459
692,-1.252,0.286,-0.121,-0.074,-1.101,0.103,0.4,-0.103,-0.466
693,-1.212,0.626,0.035,0.04,-1.125,0.015,0.4,-0.103,-0.466
694,-1.216,0.918,0.155,0.245,-1.172,-0.035,0.385,-0.1,-0.456
695,-1.15,1.088,0.114,0.197,-1.034,0.053,0.402,-0.084,-0.495
696,-0.935,1.052,0.032,0.037,-0.843,0.14,0.417,-0.081,-0.505
697,-0.69,1.033,0.049,-0.06,-0.759,0.165,0.412,-0.051,-0.517
698,-0.39,1.026,0.169,-0.002,-0.822,0.086,0.394,-0.061,-0.532
699,-0.111,0.983,0.175,0.023,-0.81,0.064,0.433,-0.063,-0.54
700,0.158,0.809,0.086,-0.089,-0.567,0.121,0.451,-0.052,-0.558
701,0.394,0.527,0.039,-0.135,-0.4,0.159,0.427,-0.052,-0.547
702,0.499,0.284,0.088,-0.095,-0.41,0.244,0.447,-0.061,-0.561
703,0.539,0.198,0.146,-0.061,-0.486,0.303,0.445,-0.06,-0.549
704,0.665,0.229,0.137,-0.069,-0.495,0.36,0.447,-0.075,-0.546
705,0.746,0.33,0.095,-0.052,-0.451,0.407,0.451,-0.07,-0.555
706,0.656,0.422,0.117,-0.001,-0.537,0.508,0.453,-0.076,-0.55
707,0.418,0.515,0.189,0.074,-0.792,0.657,0.456,-0.088,-0.546
708,0.021,0.395,0.257,0.179,-1.096,0.761,0.469,-0.088,-0.538
709,-0.094,-0.057,0.356,0.168,-1.355,0.826,0.448,-0.082,-0.549
710,0.095,0.08,0.272,0.023,-1.383,0.757,0.457,-0.073,-0.553
711,-0.128,0.917,0.035,-0.078,-1.071,0.67,0.457,-0.073,-0.553
712,-0.567,1.147,0.018,-0.134,-0.661,0.671,0.445,-0.07,-0.546
713,0.004,-0.49,0.126,-0.099,-0.922,0.53,0.469,-0.069,-0.556
714,-0.049,-0.114,0.053,-0.114,-1.673,0.009,0.492,-0.081,-0.562
715,-0.053,-0.021,-0.255,-0.133,-1.468,-0.056,0.469,-0.061,-0.555
716,-0.699,0.235,-0.304,-0.248,-0.765,0.135,0.481,-0.055,-0.574
717,-0.057,-0.555,0.119,-0.113,-0.802,0.187,0.475,-0.075,-0.558
718,0.716,-1.617,0.203,0.046,-0.923,0.226,0.481,-0.037,-0.558
719,0.591,-0.949,0.27,0.104,-1.034,-0.167,0.48,-0.052,-0.559
720,0.527,-0.538,0.409,0.376,-1.349,-0.236,0.442,-0.06,-0.553
721,0.356,-0.844,0.268,0.216,-1.192,0.174,0.456,-0.069,-0.541
722,0.221,-1.001,0.057,-0.124,-0.813,0.369,0.445,-0.076,-0.529
723,0.428,-1.183,0.08,-0.158,-0.713,0.21,0.432,-0.064,-0.532
724,0.618,-1.131,0.177,0.02,-0.761,0.04,0.421,-0.061,-0.534
725,0.802,-0.966,0.289,0.283,-0.844,-0.109,0.418,-0.06,-0.507
726,0.805,-0.921,0.23,0.361,-0.828,-0.132,0.402,-0.072,-0.511
727,0.758,-0.56,0.089,0.229,-0.75,0.045,0.366,-0.079,-0.468
728,0.689,-0.462,-0.012,0.211,-0.826,0.091,0.382,-0.081,-0.471
729,0.632,-0.419,-0.109,0.211,-0.826,0.091,0.381,-0.102,-0.465
730,0.609,-0.414,-0.175,0.21,-0.843,0.081,0.381,-0.102,-0.465
731,0.62,-0.445,-0.232,0.201,-0.838,0.058,0.366,-0.081,-0.441
732,0.671,-0.41,-0.282,0.185,-0.809,0.075,0.363,-0.09,-0.442
733,0.728,-0.38,-0.34,0.206,-0.795,0.053,0.357,-0.097,-0.445
734,0.762,-0.351,-0.397,0.231,-0.818,0.061,0.384,-0.105,-0.441
735,0.674,-0.376,-0.41,0.211,-0.886,0.145,0.384,-0.115,-0.424
736,0.552,-0.389,-0.37,0.192,-0.929,0.211,0.393,-0.123,-0.424
737,0.417,-0.431,-0.275,0.245,-0.963,0.173,0.399,-0.13,-0.432
738,0.263,-0.415,-0.167,0.317,-1.0,0.127,0.393,-0.133,-0.405
739,0.198,-0.249,-0.119,0.406,-1.033,0.107,0.394,-0.129,-0.427
740,0.107,-0.175,-0.12,0.383,-1.07,0.144,0.397,-0.132,-0.397
741,-0.175,-0.224,-0.14,0.258,-1.194,0.289,0.384,-0.136,-0.421
742,-0.285,0.009,0.044,0.337,-1.314,0.191,0.391,-0.141,-0.43
743,-0.478,0.372,0.068,0.489,-1.249,-0.059,0.405,-0.138,-0.397
744,-0.929,0.674,0.07,0.52,-1.202,-0.202,0.402,-0.126,-0.424
745,-1.309,0.891,0.084,0.281,-1.278,-0.262,0.406,-0.135,-0.438
746,-1.397,1.117,0.105,-0.17,-1.303,-0.11,0.39,-0.126,-0.429
747,-1.313,0.814,0.189,-0.17,-1.303,-0.11,0.417,-0.112,-0.468
748,-1.16,0.399,0.247,-0.112,-1.379,0.075,0.418,-0.09,-0.49
749,-1.148,0.116,0.141,-0.016,-1.364,0.035,0.418,-0.09,-0.49
750,-1.249,-0.157,-0.02,-0.058,-1.183,0.071,0.399,-0.097,-0.475
751,-1.209,0.193,-0.085,-0.123,-1.052,0.169,0.432,-0.103,-0.52
752,-1.067,0.681,0.049,0.099,-1.092,-0.02,0.406,-0.067,-0.517
753,-1.232,1.178,0.062,0.317,-1.121,-0.088,0.427,-0.051,-0.541
754,-1.06,1.258,-0.051,0.216,-0.969,0.08,0.435,-0.06,-0.564
755,-0.86,1.113,-0.133,0.017,-0.749,0.172,0.462,-0.036,-0.571
756,-0.555,0.893,-0.006,-0.005,-0.692,0.179,0.459,-0.04,-0.577
757,-0.38,0.883,0.093,0.034,-0.762,0.139,0.471,-0.06,-0.576
758,-0.187,0.847,0.072,-0.046,-0.726,0.125,0.478,-0.013,-0.597
759,0.058,0.738,-0.014,-0.151,-0.566,0.158,0.505,-0.03,-0.607
760,0.349,0.524,-0.03,-0.196,-0.459,0.18,0.501,-0.031,-0.6
761,0.571,0.253,0.03,-0.142,-0.473,0.206,0.511,-0.028,-0.586
762,0.637,0.146,0.07,-0.081,-0.524,0.272,0.511,-0.028,-0.586
763,0.698,0.177,0.088,0.0,-0.541,0.445,0.514,-0.042,-0.582
764,0.721,0.216,0.128,0.029,-0.64,0.587,0.514,-0.042,-0.582
765,0.625,0.308,0.172,0.029,-0.64,0.587,0.513,-0.048,-0.601
766,0.407,0.385,0.237,0.066,-0.879,0.762,0.499,-0.051,-0.591
767,0.067,0.368,0.257,0.14,-1.1,0.858,0.523,-0.069,-0.591
768,-0.086,0.011,0.317,0.165,-1.228,0.831,0.55,-0.078,-0.582
769,0.023,0.056,0.254,-0.002,-1.259,0.694,0.522,-0.061,-0.576
770,-0.224,0.841,0.001,-0.151,-1.114,0.566,0.514,-0.085,-0.58
771,-0.36,0.756,-0.072,-0.235,-0.954,0.56,0.529,-0.069,-0.591
772,0.009,-0.248,-0.036,-0.236,-1.297,0.43,0.543,-0.057,-0.565
773,-0.221,-0.133,-0.027,-0.157,-1.629,0.166,0.547,-0.054,-0.561
774,-0.282,-0.212,-0.113,-0.18,-1.112,0.152,0.543,-0.067,-0.591
775,-0.385,-0.308,-0.143,-0.186,-0.58,0.018,0.544,-0.058,-0.565
776,0.125,-0.748,0.072,0.013,-0.685,-0.105,0.544,-0.058,-0.565
777,0.523,-1.339,0.086,0.213,-0.868,-0.015,0.54,-0.045,-0.591
778,0.449,-0.702,0.161,0.309,-1.124,-0.144,0.519,-0.055,-0.6
779,0.459,-0.454,0.308,0.33,-1.357,-0.113,0.508,-0.06,-0.573
780,0.391,-0.81,0.277,0.14,-1.122,0.213,0.496,-0.069,-0.553
781,0.287,-1.008,0.128,-0.133,-0.743,0.223,0.492,-0.066,-0.568
782,0.338,-1.072,0.126,-0.133,-0.915,0.223,0.456,-0.066,-0.561
783,0.417,-1.098,0.177,0.052,-0.909,0.131,0.459,-0.072,-0.555
784,0.762,-1.173,0.347,0.264,-0.978,0.053,0.46,-0.076,-0.562
785,0.868,-0.974,0.291,0.351,-0.866,-0.047,0.442,-0.073,-0.535
786,0.836,-0.697,0.163,0.305,-0.765,-0.04,0.429,-0.103,-0.535
787,0.702,-0.513,0.009,0.237,-0.773,0.079,0.396,-0.1,-0.498
788,0.625,-0.47,-0.114,0.181,-0.797,0.13,0.39,-0.111,-0.498
789,0.606,-0.429,-0.182,0.177,-0.803,0.078,0.388,-0.12,-0.477
790,0.621,-0.454,-0.214,0.214,-0.813,0.027,0.387,-0.117,-0.484
791,0.652,-0.402,-0.259,0.205,-0.809,0.061,0.387,-0.117,-0.484
792,0.708,-0.371,-0.322,0.189,-0.807,0.055,0.394,-0.117,-0.46
793,0.764,-0.354,-0.382,0.202,-0.807,0.06,0.396,-0.13,-0.46
794,0.701,-0.386,-0.414,0.202,-0.843,0.126,0.396,-0.147,-0.454
795,0.56,-0.411,-0.4,0.209,-0.911,0.186,0.396,-0.144,-0.427
796,0.429,-0.429,-0.328,0.254,-0.949,0.126,0.372,-0.15,-0.418
797,0.261,-0.448,-0.223,0.28,-0.978,0.069,0.394,-0.157,-0.432
798,0.188,-0.271,-0.154,0.37,-1.029,0.104,0.381,-0.154,-0.417
799,0.151,-0.133,-0.159,0.282,-1.077,0.197,0.394,-0.159,-0.42
800,0.0,-0.193,-0.144,0.282,-1.077,0.197,0.381,-0.193,-0.409
801,-0.24,-0.215,-0.088,0.256,-1.189,0.292,0.403,-0.18,-0.397
802,-0.38,0.087,0.04,0.396,-1.203,0.099,0.393,-0.184,-0.391
803,-0.658,0.483,0.051,0.569,-1.207,-0.1,0.408,-0.169,-0.402
804,-1.115,0.658,0.059,0.566,-1.287,-0.172,0.397,-0.16,-0.408
805,-1.336,0.887,0.149,0.201,-1.363,-0.203,0.4,-0.169,-0.442
806,-1.281,1.026,0.182,-0.185,-1.29,-0.153,0.37,-0.148,-0.453
807,-1.316,0.487,0.283,-0.218,-1.254,-0.012,0.37,-0.148,-0.453
808,-1.262,0.072,0.296,-0.091,-1.353,0.152,0.405,-0.141,-0.477
809,-1.26,-0.021,0.164,0.012,-1.326,0.065,0.403,-0.121,-0.505
810,-1.276,0.008,0.014,0.001,-1.146,0.009,0.411,-0.115,-0.516
811,-1.166,0.287,-0.02,-0.032,-1.065,0.072,0.391,-0.1,-0.51
812,-1.11,0.655,0.081,0.122,-1.111,-0.014,0.387,-0.091,-0.535
813,-1.076,0.838,0.168,0.288,-1.153,-0.01,0.403,-0.073,-0.541
814,-0.947,1.09,0.086,0.167,-1.041,0.115,0.415,-0.072,-0.556
815,-0.835,1.318,-0.087,0.0,-0.845,0.152,0.409,-0.087,-0.564
816,-0.504,1.08,-0.007,-0.059,-0.735,0.259,0.423,-0.061,-0.58
817,-0.348,0.905,0.047,-0.059,-0.735,0.259,0.42,-0.057,-0.594
818,-0.162,0.77,-0.016,-0.02,-0.748,0.182,0.435,-0.052,-0.585
819,0.071,0.623,-0.074,-0.102,-0.597,0.202,0.453,-0.045,-0.588
820,0.309,0.419,-0.087,-0.145,-0.507,0.209,0.456,-0.049,-0.597
821,0.527,0.177,-0.026,-0.128,-0.503,0.218,0.468,-0.051,-0.571
822,0.613,0.054,0.039,-0.088,-0.531,0.252,0.468,-0.051,-0.571
823,0.675,0.087,0.063,-0.061,-0.516,0.312,0.436,-0.069,-0.573
824,0.773,0.18,0.066,-0.016,-0.48,0.419,0.468,-0.072,-0.577
825,0.766,0.267,0.114,0.05,-0.519,0.501,0.468,-0.079,-0.571
826,0.634,0.335,0.212,0.132,-0.719,0.564,0.456,-0.081,-0.568
827,0.323,0.287,0.294,0.205,-1.016,0.666,0.466,-0.076,-0.565
828,-0.089,-0.028,0.399,0.23,-1.276,0.748,0.481,-0.096,-0.555
829,0.079,-0.212,0.475,0.11,-1.403,0.747,0.466,-0.096,-0.544
830,0.074,0.413,0.2,-0.047,-1.249,0.677,0.471,-0.096,-0.561
831,-0.245,1.06,-0.157,-0.114,-0.801,0.671,0.454,-0.096,-0.571
832,-0.481,0.832,-0.17,-0.152,-0.512,0.621,0.448,-0.097,-0.555
833,-0.015,-0.082,-0.067,-0.127,-0.943,0.272,0.478,-0.096,-0.58
834,-0.331,0.247,-0.046,0.149,-1.876,0.388,0.469,-0.096,-0.567
835,-0.047,0.061,0.049,0.149,-1.876,0.388,0.475,-0.112,-0.561
836,-0.194,0.014,-0.271,0.094,-0.992,0.201,0.475,-0.078,-0.571
837,-0.219,0.341,-0.269,-0.16,-0.343,-0.246,0.477,-0.09,-0.577
838,0.266,-0.445,-0.019,0.139,-0.626,0.088,0.484,-0.096,-0.579
839,0.537,-0.749,0.184,0.298,-0.968,-0.006,0.484,-0.096,-0.579
840,0.582,-0.324,0.379,0.279,-1.256,-0.235,0.48,-0.129,-0.579
841,0.354,-0.464,0.387,0.132,-1.261,0.044,0.475,-0.087,-0.58
842,0.195,-0.814,0.291,-0.071,-1.035,0.48,0.466,-0.111,-0.564
843,0.22,-0.972,0.181,-0.153,-0.866,0.403,0.457,-0.105,-0.541
844,0.24,-1.026,0.137,-0.001,-0.874,0.124,0.457,-0.105,-0.541
845,0.353,-0.994,0.157,0.189,-0.946,-0.02,0.441,-0.12,-0.544
846,0.502,-0.922,0.199,0.28,-0.913,-0.048,0.411,-0.123,-0.522
847,0.552,-0.704,0.17,0.269,-0.842,0.03,0.399,-0.13,-0.52
848,0.526,-0.501,0.096,0.216,-0.82,0.07,0.388,-0.147,-0.52
849,0.469,-0.432,0.018,0.203,-0.847,0.063,0.393,-0.139,-0.528
850,0.43,-0.354,-0.028,0.203,-0.875,0.055,0.387,-0.15,-0.504
851,0.401,-0.317,-0.065,0.169,-0.858,0.109,0.409,-0.141,-0.486
852,0.394,-0.333,-0.096,0.185,-0.863,0.123,0.36,-0.145,-0.49
853,0.375,-0.338,-0.134,0.185,-0.863,0.123,0.379,-0.165,-0.481
854,0.403,-0.34,-0.162,0.178,-0.866,0.117,0.379,-0.154,-0.474
855,0.439,-0.357,-0.192,0.124,-0.868,0.124,0.373,-0.166,-0.457
856,0.427,-0.404,-0.207,0.113,-0.887,0.139,0.373,-0.166,-0.457
857,0.414,-0.441,-0.229,0.128,-0.906,0.156,0.387,-0.174,-0.456
858,0.411,-0.454,-0.248,0.162,-0.917,0.136,0.367,-0.186,-0.46
859,0.399,-0.43,-0.235,0.207,-0.944,0.115,0.369,-0.177,-0.45
860,0.355,-0.416,-0.196,0.243,-0.971,0.11,0.373,-0.189,-0.439
861,0.294,-0.397,-0.154,0.262,-0.984,0.101,0.379,-0.181,-0.418
862,0.237,-0.307,-0.133,0.282,-1.001,0.097,0.36,-0.186,-0.42
863,0.179,-0.17,-0.114,0.335,-1.006,0.097,0.372,-0.207,-0.409
864,0.109,-0.149,-0.089,0.361,-1.004,0.136,0.376,-0.204,-0.414
865,0.051,-0.223,-0.108,0.302,-1.018,0.231,0.372,-0.211,-0.396
866,-0.043,-0.227,-0.164,0.243,-0.992,0.257,0.37,-0.213,-0.406
867,-0.126,-0.016,-0.133,0.281,-0.966,0.113,0.381,-0.213,-0.399
868,-0.26,0.319,-0.046,0.386,-1.054,-0.053,0.367,-0.232,-0.403
869,-0.461,0.651,-0.028,0.211,-1.246,-0.154,0.397,-0.231,-0.414
870,-0.71,0.696,0.013,0.211,-1.246,-0.154,0.387,-0.237,-0.432
871,-0.885,0.63,0.093,-0.018,-1.275,-0.102,0.387,-0.237,-0.432
872,-0.88,0.541,0.165,-0.125,-1.296,-0.121,0.387,-0.213,-0.463
873,-0.89,0.298,0.177,-0.142,-1.25,-0.099,0.387,-0.213,-0.463
874,-0.919,0.023,0.112,-0.115,-1.184,0.004,0.411,-0.193,-0.465
875,-0.87,-0.125,0.044,-0.091,-1.119,0.024,0.376,-0.192,-0.496
876,-0.98,0.07,-0.084,-0.084,-1.037,-0.055,0.396,-0.195,-0.483
877,-0.826,0.282,-0.228,-0.091,-1.01,-0.059,0.382,-0.196,-0.498
878,-0.662,0.466,-0.275,-0.058,-0.998,-0.067,0.391,-0.196,-0.517
879,-0.604,0.514,-0.229,0.015,-0.986,-0.064,0.388,-0.184,-0.529
880,-0.599,0.454,-0.151,0.035,-0.987,0.06,0.409,-0.184,-0.544
881,-0.399,0.169,-0.081,0.02,-0.955,0.176,0.433,-0.181,-0.55
882,-0.22,0.087,-0.056,-0.012,-0.926,0.181,0.423,-0.165,-0.562
883,-0.081,0.254,-0.075,-0.074,-0.92,0.116,0.42,-0.175,-0.58
884,0.056,0.353,-0.082,-0.136,-0.894,0.099,0.421,-0.171,-0.567
885,0.285,0.249,-0.093,-0.159,-0.831,0.153,0.424,-0.163,-0.544
886,0.469,0.114,-0.111,-0.151,-0.762,0.231,0.433,-0.187,-0.549
887,0.483,0.025,-0.095,-0.089,-0.764,0.321,0.45,-0.183,-0.535
888,0.407,-0.042,-0.039,0.028,-0.834,0.416,0.45,-0.183,-0.535
889,0.286,-0.028,0.032,0.115,-0.864,0.402,0.415,-0.195,-0.553
890,0.223,0.064,0.093,0.123,-0.847,0.301,0.423,-0.202,-0.547
891,0.296,0.126,0.123,0.094,-0.825,0.214,0.42,-0.181,-0.519
892,0.311,0.127,0.107,0.032,-0.809,0.176,0.424,-0.208,-0.511
893,0.235,0.049,0.075,-0.027,-0.798,0.233,0.418,-0.199,-0.529
894,0.228,0.007,0.035,-0.032,-0.757,0.294,0.429,-0.214,-0.531
895,0.318,-0.054,0.007,-0.016,-0.742,0.214,0.426,-0.202,-0.531
896,0.351,0.0,0.037,-0.025,-0.888,0.072,0.432,-0.195,-0.52
897,0.338,-0.03,0.095,-0.019,-1.212,0.079,0.408,-0.196,-0.516
898,0.298,-0.143,0.147,-0.006,-1.402,0.228,0.433,-0.201,-0.523
899,0.191,-0.286,0.147,0.013,-1.276,0.285,0.408,-0.213,-0.507
900,0.203,-0.315,0.079,0.051,-1.055,0.153,0.408,-0.213,-0.507
901,0.198,-0.082,-0.048,0.052,-0.887,-0.003,0.412,-0.22,-0.499
902,0.182,0.21,-0.105,0.036,-0.821,-0.016,0.417,-0.216,-0.507
903,0.265,0.19,-0.032,0.054,-0.853,0.066,0.415,-0.211,-0.483
904,0.358,0.013,0.035,0.129,-0.945,0.121,0.417,-0.21,-0.496
905,0.361,-0.096,0.061,0.107,-0.982,0.07,0.418,-0.216,-0.481
906,0.333,-0.102,0.083,0.107,-0.982,0.07,0.421,-0.235,-0.478
907,0.284,-0.061,0.074,0.095,-1.025,0.059,0.408,-0.234,-0.48
908,0.237,-0.003,0.037,0.086,-1.032,0.049,0.406,-0.238,-0.49
909,0.184,0.081,-0.002,0.066,-1.016,0.024,0.399,-0.244,-0.454
910,0.123,0.112,-0.014,0.051,-1.004,0.023,0.408,-0.252,-0.469
911,0.084,0.079,0.01,0.068,-1.0,0.05,0.424,-0.246,-0.483
912,0.062,0.139,0.028,0.093,-0.973,0.036,0.391,-0.255,-0.459
913,0.049,0.227,0.027,0.095,-0.941,-0.043,0.418,-0.237,-0.478
914,0.056,0.282,0.032,0.107,-0.944,-0.052,0.396,-0.252,-0.478
915,0.107,0.208,0.08,0.15,-0.969,-0.007,0.396,-0.252,-0.478
916,0.161,0.112,0.123,0.18,-0.976,0.012,0.414,-0.235,-0.457
917,0.144,0.052,0.11,0.17,-0.959,0.027,0.418,-0.235,-0.462
918,0.111,0.036,0.051,0.138,-0.941,0.035,0.406,-0.226,-0.462
919,0.126,0.049,-0.005,0.119,-0.955,0.064,0.406,-0.226,-0.462
920,0.159,0.107,-0.018,0.149,-1.017,0.061,0.412,-0.232,-0.463
921,0.119,0.07,-0.031,0.141,-1.049,0.12,0.409,-0.234,-0.468
922,0.06,0.017,-0.065,0.078,-0.998,0.131,0.411,-0.231,-0.453
923,0.013,0.063,-0.12,0.078,-0.998,0.131,0.42,-0.243,-0.457
924,-0.027,0.13,-0.168,0.079,-0.956,0.095,0.418,-0.241,-0.459
925,-0.003,0.154,-0.148,0.134,-0.954,0.085,0.414,-0.244,-0.463
926,0.092,0.171,-0.07,0.169,-0.992,0.056,0.424,-0.243,-0.465
927,0.084,0.037,-0.026,0.158,-1.009,0.062,0.415,-0.231,-0.46
928,0.046,-0.079,-0.018,0.11,-0.998,0.114,0.429,-0.258,-0.475
929,0.047,-0.051,-0.039,0.088,-1.011,0.069,0.418,-0.246,-0.459
930,0.031,-0.057,-0.06,0.074,-1.034,0.033,0.411,-0.25,-0.445
931,0.018,-0.093,-0.06,0.037,-1.015,0.047,0.433,-0.25,-0.462
932,0.005,-0.09,-0.063,0.028,-0.973,0.006,0.427,-0.253,-0.465
933,0.002,-0.059,-0.07,0.035,-0.938,-0.04,0.427,-0.253,-0.465
934,0.01,-0.059,-0.067,0.05,-0.932,-0.029,0.414,-0.243,-0.43
935,0.008,-0.067,-0.067,0.057,-0.951,0.024,0.423,-0.252,-0.462
936,0.004,-0.116,-0.058,0.048,-0.962,0.067,0.418,-0.238,-0.457
937,-0.002,-0.166,-0.044,0.045,-0.972,0.077,0.411,-0.25,-0.45
938,-0.01,-0.18,-0.029,0.046,-0.993,0.061,0.417,-0.243,-0.454
939,-0.011,-0.153,-0.024,0.053,-1.003,0.036,0.438,-0.243,-0.436
940,-0.016,-0.124,-0.032,0.059,-0.993,0.04,0.433,-0.238,-0.453
941,-0.017,-0.107,-0.045,0.059,-0.993,0.04,0.435,-0.25,-0.435
942,-0.016,-0.102,-0.051,0.059,-0.982,0.041,0.444,-0.246,-0.439
943,-0.012,-0.107,-0.046,0.059,-0.975,0.04,0.426,-0.244,-0.462
944,-0.011,-0.112,-0.039,0.057,-0.978,0.039,0.432,-0.256,-0.462
945,-0.006,-0.105,-0.035,0.055,-0.977,0.033,0.436,-0.256,-0.438
946,0.0,-0.085,-0.042,0.049,-0.971,0.026,0.427,-0.247,-0.453
947,0.0,-0.07,-0.041,0.052,-0.968,0.031,0.417,-0.267,-0.43
948,-0.003,-0.075,-0.038,0.057,-0.975,0.035,0.417,-0.267,-0.43
949,-0.003,-0.083,-0.035,0.053,-0.982,0.041,0.415,-0.25,-0.469
950,-0.003,-0.081,-0.036,0.05,-0.984,0.047,0.423,-0.234,-0.451
951,-0.008,-0.069,-0.036,0.054,-0.983,0.048,0.414,-0.259,-0.448
952,-0.012,-0.051,-0.035,0.064,-0.982,0.051,0.438,-0.241,-0.454
953,-0.013,-0.044,-0.034,0.066,-0.985,0.055,0.412,-0.264,-0.444
954,-0.009,-0.039,-0.032,0.065,-0.984,0.059,0.423,-0.252,-0.456
955,-0.007,-0.036,-0.03,0.067,-0.979,0.059,0.424,-0.244,-0.451
956,-0.004,-0.031,-0.027,0.064,-0.976,0.056,0.429,-0.258,-0.453
957,-0.007,-0.023,-0.025,0.052,-0.978,0.06,0.411,-0.258,-0.454
958,-0.009,-0.028,-0.023,0.052,-0.978,0.06,0.409,-0.241,-0.447
959,-0.007,-0.03,-0.021,0.047,-0.978,0.062,0.433,-0.234,-0.45
960,-0.008,-0.029,-0.021,0.046,-0.981,0.057,0.441,-0.252,-0.441
961,-0.007,-0.025,-0.02,0.048,-0.983,0.056,0.426,-0.246,-0.451
962,-0.011,-0.026,-0.019,0.049,-0.982,0.056,0.42,-0.253,-0.441
963,-0.013,-0.028,-0.016,0.053,-0.977,0.056,0.42,-0.253,-0.441
964,-0.012,-0.025,-0.016,0.055,-0.975,0.057,0.432,-0.246,-0.445
965,-0.006,-0.023,-0.014,0.052,-0.974,0.056,0.439,-0.246,-0.441
966,0.0,-0.016,-0.013,0.05,-0.982,0.056,0.43,-0.237,-0.442
967,0.0,-0.023,-0.01,0.049,-0.984,0.06,0.4,-0.24,-0.444
968,0.004,-0.024,-0.008,0.053,-0.98,0.063,0.415,-0.244,-0.435
969,0.005,-0.016,-0.01,0.054,-0.979,0.057,0.414,-0.238,-0.447
970,0.002,-0.014,-0.009,0.055,-0.979,0.054,0.418,-0.259,-0.456
971,0.0,-0.017,-0.009,0.055,-0.979,0.057,0.417,-0.237,-0.447
972,-0.004,-0.011,-0.01,0.05,-0.979,0.058,0.418,-0.247,-0.445
973,-0.004,-0.007,-0.006,0.054,-0.981,0.056,0.436,-0.24,-0.441
974,-0.002,-0.005,-0.004,0.061,-0.983,0.052,0.409,-0.258,-0.45
975,-0.004,-0.004,-0.007,0.055,-0.98,0.052,0.403,-0.258,-0.46
976,0.0,-0.007,-0.009,0.055,-0.98,0.052,0.406,-0.24,-0.459
977,0.0,-0.003,-0.012,0.048,-0.98,0.049,0.408,-0.241,-0.448
978,0.0,-0.007,-0.011,0.045,-0.978,0.049,0.408,-0.241,-0.448
979,0.002,-0.016,-0.009,0.048,-0.975,0.054,0.408,-0.253,-0.429
980,0.0,-0.02,-0.009,0.049,-0.977,0.052,0.417,-0.235,-0.448
981,0.0,-0.012,-0.009,0.051,-0.983,0.048,0.402,-0.247,-0.457
982,-0.005,-0.01,-0.009,0.056,-0.982,0.048,0.418,-0.246,-0.43
983,-0.01,-0.007,-0.007,0.06,-0.976,0.05,0.409,-0.261,-0.45
984,-0.012,0.002,-0.007,0.06,-0.978,0.047,0.406,-0.261,-0.444
985,-0.012,0.011,-0.006,0.061,-0.982,0.048,0.42,-0.247,-0.441
986,-0.013,0.011,-0.006,0.059,-0.983,0.051,0.426,-0.249,-0.459
987,-0.011,0.011,-0.007,0.057,-0.985,0.053,0.423,-0.249,-0.456
988,-0.008,0.011,-0.011,0.053,-0.986,0.055,0.418,-0.25,-0.432
989,-0.008,0.011,-0.016,0.05,-0.982,0.056,0.39,-0.243,-0.441
990,-0.004,0.011,-0.018,0.052,-0.98,0.057,0.39,-0.243,-0.441
991,-0.002,0.009,-0.018,0.052,-0.978,0.055,0.415,-0.231,-0.456
992,0.001,0.003,-0.017,0.052,-0.983,0.062,0.414,-0.24,-0.441
993,0.0,-0.007,-0.014,0.061,-0.984,0.061,0.414,-0.24,-0.441
994,-0.004,-0.006,-0.013,0.061,-0.984,0.061,0.429,-0.252,-0.447
995,-0.004,0.0,-0.014,0.066,-0.985,0.06,0.43,-0.235,-0.435
996,-0.009,0.005,-0.016,0.062,-0.983,0.061,0.414,-0.241,-0.459
997,-0.009,0.002,-0.016,0.062,-0.979,0.06,0.412,-0.256,-0.438
998,-0.005,0.002,-0.018,0.059,-0.976,0.062,0.402,-0.237,-0.454
999,-0.007,-0.004,-0.014,0.056,-0.979,0.066,0.423,-0.262,-0.457
1000,-0.005,-0.009,-0.011,0.062,-0.977,0.067,0.414,-0.268,-0.441
1001,-0.005,-0.004,-0.011,0.066,-0.974,0.063,0.417,-0.25,-0.444
1002,-0.006,0.0,-0.012,0.066,-0.975,0.063,0.414,-0.258,-0.462
1003,-0.005,0.002,-0.015,0.065,-0.979,0.066,0.429,-0.25,-0.448
1004,-0.01,0.006,-0.017,0.062,-0.978,0.068,0.417,-0.225,-0.429
1005,-0.01,0.006,-0.016,0.062,-0.979,0.068,0.417,-0.261,-0.439
1006,-0.009,0.006,-0.014,0.063,-0.981,0.065,0.403,-0.249,-0.447
1007,-0.009,0.007,-0.015,0.065,-0.98,0.064,0.421,-0.244,-0.418
1008,-0.009,0.004,-0.016,0.062,-0.982,0.065,0.418,-0.241,-0.448
1009,-0.012,0.004,-0.017,0.057,-0.98,0.065,0.418,-0.241,-0.448
1010,-0.013,0.005,-0.018,0.061,-0.978,0.063,0.42,-0.234,-0.442
1011,-0.014,0.004,-0.018,0.061,-0.978,0.063,0.418,-0.237,-0.471
1012,-0.016,0.003,-0.016,0.061,-0.981,0.065,0.414,-0.238,-0.445
1013,-0.018,-0.001,-0.012,0.063,-0.985,0.068,0.426,-0.256,-0.454
1014,-0.019,0.002,-0.011,0.062,-0.978,0.069,0.415,-0.247,-0.468
1015,-0.023,0.008,-0.012,0.056,-0.973,0.064,0.436,-0.243,-0.469
1016,-0.016,0.009,-0.013,0.057,-0.984,0.06,0.411,-0.258,-0.457
1017,-0.015,0.013,-0.02,0.054,-0.997,0.065,0.411,-0.231,-0.453
1018,-0.015,-0.011,-0.023,0.044,-0.989,0.076,0.418,-0.246,-0.465
1019,-0.011,-0.013,-0.025,0.043,-0.976,0.071,0.424,-0.247,-0.447
1020,-0.007,-0.007,-0.023,0.049,-0.976,0.063,0.429,-0.241,-0.444
1021,-0.001,-0.011,-0.018,0.056,-0.976,0.071,0.417,-0.238,-0.462
1022,0.0,-0.021,-0.014,0.063,-0.976,0.076,0.424,-0.244,-0.453
1023,0.001,-0.024,-0.013,0.061,-0.978,0.078,0.424,-0.244,-0.453
1024,0.001,-0.018,-0.014,0.055,-0.981,0.077,0.43,-0.253,-0.459
1025,0.0,-0.016,-0.016,0.056,-0.984,0.08,0.412,-0.256,-0.454
1026,-0.004,-0.012,-0.017,0.06,-0.981,0.083,0.415,-0.252,-0.456
1027,-0.004,-0.009,-0.016,0.06,-0.979,0.083,0.406,-0.267,-0.463
1028,-0.004,-0.011,-0.014,0.061,-0.979,0.08,0.427,-0.24,-0.456
1029,-0.003,-0.008,-0.011,0.061,-0.979,0.08,0.424,-0.246,-0.454
1030,-0.004,-0.01,-0.009,0.063,-0.979,0.077,0.43,-0.229,-0.466
1031,-0.005,-0.007,-0.01,0.06,-0.98,0.077,0.424,-0.252,-0.441
1032,-0.001,-0.003,-0.012,0.056,-0.978,0.076,0.426,-0.256,-0.45
1033,-0.002,0.002,-0.014,0.054,-0.979,0.075,0.438,-0.243,-0.444
1034,-0.002,-0.002,-0.011,0.054,-0.982,0.081,0.42,-0.247,-0.439
1035,0.0,-0.009,-0.009,0.055,-0.979,0.082,0.42,-0.231,-0.474
1036,0.0,-0.014,-0.01,0.054,-0.977,0.079,0.409,-0.24,-0.456
1037,0.002,-0.016,-0.01,0.054,-0.977,0.08,0.409,-0.24,-0.456
1038,0.002,-0.012,-0.01,0.056,-0.975,0.079,0.426,-0.243,-0.465
1039,0.0,-0.007,-0.009,0.058,-0.977,0.078,0.424,-0.25,-0.459
1040,-0.001,-0.006,-0.008,0.061,-0.98,0.077,0.42,-0.237,-0.433
1041,-0.002,-0.007,-0.007,0.06,-0.978,0.077,0.43,-0.252,-0.462
1042,-0.003,-0.006,-0.009,0.057,-0.978,0.078,0.432,-0.256,-0.462
1043,-0.004,-0.002,-0.011,0.055,-0.98,0.079,0.421,-0.243,-0.444
1044,-0.004,-0.002,-0.01,0.057,-0.981,0.077,0.417,-0.241,-0.45
1045,-0.002,-0.002,-0.009,0.057,-0.973,0.071,0.423,-0.249,-0.454
1046,0.0,-0.002,-0.009,0.057,-0.973,0.071,0.42,-0.244,-0.448
1047,0.002,-0.002,-0.009,0.058,-0.974,0.071,0.429,-0.247,-0.451
1048,0.002,-0.006,-0.009,0.053,-0.978,0.073,0.411,-0.243,-0.463
1049,0.004,-0.007,-0.009,0.051,-0.982,0.073,0.42,-0.229,-0.459
1050,0.002,-0.006,-0.011,0.055,-0.98,0.071,0.415,-0.243,-0.456
1051,0.0,-0.004,-0.011,0.055,-0.981,0.072,0.417,-0.246,-0.466
1052,0.0,-0.004,-0.009,0.056,-0.979,0.073,0.417,-0.246,-0.466
1053,0.0,-0.003,-0.01,0.056,-0.977,0.075,0.426,-0.234,-0.433
1054,0.0,-0.005,-0.01,0.057,-0.981,0.077,0.435,-0.252,-0.465
1055,0.0,-0.007,-0.01,0.06,-0.986,0.076,0.42,-0.235,-0.454
1056,0.001,-0.002,-0.009,0.062,-0.983,0.075,0.432,-0.229,-0.469
1057,0.002,0.001,-0.011,0.06,-0.974,0.074,0.411,-0.256,-0.465
1058,0.002,0.002,-0.009,0.058,-0.972,0.073,0.409,-0.241,-0.457
1059,0.003,0.0,-0.007,0.059,-0.976,0.078,0.418,-0.24,-0.447
1060,0.006,-0.002,-0.007,0.059,-0.977,0.08,0.423,-0.258,-0.441
1061,0.004,-0.001,-0.008,0.055,-0.977,0.078,0.418,-0.241,-0.453
1062,0.003,-0.002,-0.009,0.053,-0.978,0.078,0.409,-0.249,-0.447
1063,0.002,0.0,-0.01,0.061,-0.98,0.076,0.4,-0.229,-0.457
1064,0.004,-0.002,-0.008,0.061,-0.98,0.076,0.4,-0.229,-0.457
1065,0.009,-0.003,-0.007,0.06,-0.976,0.078,0.397,-0.237,-0.441
1066,0.009,-0.007,-0.007,0.06,-0.977,0.076,0.42,-0.24,-0.456
1067,0.01,-0.008,-0.006,0.061,-0.979,0.079,0.42,-0.237,-0.436
1068,0.007,-0.004,-0.007,0.061,-0.979,0.08,0.402,-0.246,-0.442
1069,0.004,-0.002,-0.008,0.062,-0.98,0.079,0.423,-0.237,-0.472
1070,0.004,-0.002,-0.007,0.063,-0.982,0.077,0.423,-0.237,-0.468
1071,0.006,-0.006,-0.004,0.062,-0.98,0.077,0.411,-0.247,-0.451
1072,0.004,0.0,-0.006,0.063,-0.978,0.076,0.424,-0.261,-0.448
1073,0.002,0.003,-0.006,0.063,-0.979,0.078,0.418,-0.24,-0.463
1074,0.0,0.003,-0.007,0.062,-0.977,0.082,0.412,-0.247,-0.457
1075,-0.003,0.002,-0.007,0.059,-0.975,0.079,0.436,-0.246,-0.447
1076,-0.003,0.002,-0.007,0.058,-0.975,0.076,0.414,-0.247,-0.448
1077,-0.004,0.005,-0.007,0.06,-0.979,0.075,0.414,-0.247,-0.448
1078,-0.007,0.004,-0.006,0.062,-0.98,0.078,0.418,-0.25,-0.45
1079,-0.007,0.004,-0.004,0.064,-0.979,0.077,0.402,-0.241,-0.441
1080,-0.006,0.004,-0.003,0.062,-0.978,0.079,0.411,-0.255,-0.453
1081,-0.002,0.0,-0.004,0.066,-0.98,0.081,0.411,-0.246,-0.468
1082,-0.001,-0.004,-0.003,0.066,-0.98,0.081,0.411,-0.246,-0.468
1083,0.0,-0.004,-0.003,0.065,-0.981,0.083,0.421,-0.229,-0.459
1084,0.002,-0.003,-0.004,0.066,-0.981,0.081,0.415,-0.238,-0.462
1085,0.003,-0.004,-0.004,0.069,-0.978,0.078,0.415,-0.246,-0.447
1086,0.004,-0.001,-0.006,0.067,-0.977,0.078,0.424,-0.231,-0.451
1087,0.004,-0.002,-0.005,0.067,-0.977,0.078,0.4,-0.24,-0.451
1088,0.006,-0.001,-0.004,0.069,-0.979,0.078,0.414,-0.241,-0.468
1089,0.007,-0.004,-0.004,0.065,-0.98,0.079,0.421,-0.238,-0.453
1090,0.006,-0.007,-0.004,0.063,-0.978,0.08,0.423,-0.225,-0.456
1091,0.007,-0.004,-0.005,0.064,-0.976,0.081,0.408,-0.249,-0.465
1092,0.005,-0.002,-0.004,0.065,-0.976,0.08,0.408,-0.25,-0.439
1093,0.006,-0.004,-0.005,0.066,-0.977,0.078,0.406,-0.244,-0.459
1094,0.007,-0.002,-0.009,0.067,-0.978,0.077,0.417,-0.244,-0.453
1095,0.007,-0.006,-0.009,0.068,-0.98,0.079,0.417,-0.244,-0.453
1096,0.009,-0.003,-0.009,0.069,-0.982,0.077,0.426,-0.261,-0.459
1097,0.009,-0.002,-0.009,0.066,-0.975,0.075,0.426,-0.225,-0.472
1098,0.009,-0.006,-0.008,0.068,-0.974,0.075,0.412,-0.241,-0.457
1099,0.01,-0.003,-0.007,0.068,-0.974,0.075,0.427,-0.247,-0.462
1100,0.01,0.0,-0.009,0.073,-0.977,0.075,0.421,-0.246,-0.447
1101,0.009,0.004,-0.009,0.076,-0.98,0.076,0.417,-0.253,-0.447
1102,0.009,0.009,-0.011,0.076,-0.98,0.077,0.426,-0.243,-0.45
1103,0.009,0.014,-0.011,0.079,-0.977,0.076,0.424,-0.243,-0.457
1104,0.009,0.018,-0.011,0.08,-0.977,0.076,0.42,-0.241,-0.457
1105,0.008,0.017,-0.009,0.077,-0.98,0.074,0.414,-0.226,-0.454
1106,0.007,0.014,-0.009,0.074,-0.981,0.073,0.406,-0.232,-0.462
1107,0.003,0.012,-0.007,0.069,-0.978,0.072,0.411,-0.231,-0.454
1108,0.002,0.011,-0.006,0.065,-0.978,0.072,0.418,-0.24,-0.466
1109,0.0,0.011,-0.008,0.065,-0.98,0.069,0.418,-0.241,-0.46
1110,-0.003,0.007,-0.007,0.067,-0.981,0.069,0.418,-0.241,-0.46
1111,-0.002,0.003,-0.007,0.069,-0.98,0.075,0.426,-0.252,-0.456
1112,-0.002,0.0,-0.008,0.069,-0.979,0.073,0.418,-0.238,-0.45
1113,-0.002,0.0,-0.009,0.067,-0.975,0.072,0.423,-0.243,-0.447
1114,0.001,0.004,-0.01,0.066,-0.977,0.073,0.418,-0.247,-0.441
1115,0.003,0.002,-0.01,0.066,-0.978,0.075,0.411,-0.235,-0.46
1116,0.007,-0.003,-0.01,0.067,-0.98,0.076,0.421,-0.237,-0.457
1117,0.008,-0.004,-0.011,0.067,-0.98,0.076,0.423,-0.226,-0.466
1118,0.007,-0.002,-0.012,0.07,-0.978,0.075,0.409,-0.25,-0.459
1119,0.007,0.0,-0.011,0.071,-0.977,0.072,0.427,-0.25,-0.433
1120,0.004,0.0,-0.009,0.07,-0.978,0.07,0.417,-0.246,-0.448
1121,0.004,-0.002,-0.008,0.071,-0.979,0.071,0.423,-0.241,-0.417
1122,0.004,0.0,-0.009,0.073,-0.98,0.072,0.415,-0.238,-0.462
1123,0.002,-0.002,-0.009,0.072,-0.98,0.075,0.418,-0.238,-0.453
1124,0.001,-0.003,-0.009,0.071,-0.976,0.074,0.42,-0.235,-0.448
1125,0.0,-0.001,-0.009,0.069,-0.975,0.071,0.42,-0.235,-0.448
1126,-0.001,0.0,-0.007,0.068,-0.979,0.069,0.417,-0.252,-0.45
1127,-0.001,-0.002,-0.007,0.069,-0.98,0.068,0.418,-0.252,-0.46
1128,-0.002,-0.005,-0.009,0.069,-0.977,0.071,0.412,-0.24,-0.448
1129,-0.003,-0.005,-0.012,0.07,-0.977,0.073,0.405,-0.24,-0.465
1130,-0.002,-0.008,-0.012,0.072,-0.977,0.073,0.417,-0.247,-0.442
1131,0.002,-0.009,-0.012,0.072,-0.977,0.072,0.411,-0.237,-0.448
1132,0.002,-0.008,-0.012,0.072,-0.978,0.07,0.414,-0.243,-0.466
1133,0.004,-0.01,-0.014,0.069,-0.976,0.07,0.417,-0.255,-0.46
1134,0.004,-0.007,-0.014,0.069,-0.976,0.07,0.396,-0.256,-0.465
1135,0.004,-0.006,-0.014,0.071,-0.978,0.067,0.417,-0.241,-0.477
1136,0.003,-0.006,-0.014,0.072,-0.979,0.07,0.412,-0.255,-0.454
1137,0.002,-0.007,-0.014,0.071,-0.981,0.073,0.409,-0.24,-0.459
1138,0.0,-0.005,-0.014,0.072,-0.98,0.074,0.408,-0.255,-0.447
1139,0.0,-0.003,-0.013,0.074,-0.977,0.072,0.421,-0.238,-0.469
1140,0.001,0.003,-0.013,0.072,-0.975,0.072,0.406,-0.249,-0.459
1141,0.0,0.002,-0.013,0.069,-0.977,0.073,0.406,-0.249,-0.459
1142,0.001,-0.001,-0.012,0.071,-0.978,0.074,0.424,-0.228,-0.465
1143,0.003,-0.001,-0.014,0.073,-0.98,0.075,0.411,-0.232,-0.453
1144,0.002,-0.002,-0.013,0.071,-0.981,0.076,0.403,-0.244,-0.45
1145,0.002,-0.005,-0.011,0.068,-0.977,0.076,0.411,-0.232,-0.441
1146,0.003,-0.002,-0.012,0.067,-0.976,0.073,0.409,-0.249,-0.447
1147,0.002,-0.002,-0.011,0.07,-0.976,0.074,0.424,-0.255,-0.444
1148,0.001,-0.002,-0.011,0.073,-0.976,0.076,0.415,-0.256,-0.453
