,Gyroscope X (deg/s),Gyroscope Y (deg/s),Gyroscope Z (deg/s),Accelerometer X (g),Accelerometer Y (g),Accelerometer Z (g),Magnetometer X (G),Magnetometer Y (G),Magnetometer Z (G)
0,-0.026,0.025,-0.029,0.154,0.057,1.006,0.312,0.123,-0.7
1,-0.026,0.025,-0.029,0.154,0.057,1.006,0.312,0.123,-0.7
2,-0.026,0.025,-0.029,0.154,0.057,1.006,0.312,0.123,-0.7
3,-0.034,0.039,-0.029,0.154,0.057,1.006,0.324,0.151,-0.684
4,-0.023,0.058,-0.037,0.151,0.062,0.996,0.288,0.127,-0.69
5,-0.001,0.058,-0.05,0.146,0.061,0.99,0.288,0.127,-0.69
6,0.0,0.038,-0.048,0.12,0.045,0.983,0.297,0.133,-0.694
7,-0.021,0.023,-0.031,0.115,0.043,0.98,0.306,0.142,-0.684
8,-0.021,0.002,-0.021,0.115,0.043,0.98,0.316,0.147,-0.702
9,-0.032,-0.002,-0.018,0.119,0.048,0.984,0.306,0.141,-0.672
10,-0.032,-0.008,-0.02,0.129,0.042,0.992,0.318,0.139,-0.675
11,-0.026,0.015,-0.032,0.133,0.045,0.993,0.319,0.135,-0.693
12,-0.012,0.021,-0.045,0.135,0.059,0.987,0.316,0.126,-0.688
13,-0.027,0.01,-0.038,0.133,0.059,0.987,0.303,0.135,-0.675
14,-0.029,0.007,-0.04,0.127,0.055,0.982,0.324,0.133,-0.685
15,-0.022,-0.011,-0.029,0.123,0.066,0.971,0.313,0.138,-0.687
16,-0.031,-0.02,0.0,0.126,0.072,0.975,0.301,0.126,-0.673
17,0.018,0.014,-0.053,0.122,0.076,0.975,0.304,0.133,-0.688
18,0.028,0.033,-0.079,0.121,0.073,0.988,0.304,0.133,-0.688
19,-0.005,0.002,-0.042,0.128,0.058,1.017,0.295,0.126,-0.681
20,-0.038,-0.023,0.006,0.127,0.046,1.023,0.315,0.133,-0.697
21,-0.021,-0.003,-0.007,0.122,0.048,1.007,0.301,0.118,-0.696
22,-0.002,0.004,-0.017,0.113,0.069,0.983,0.294,0.153,-0.682
23,-0.016,-0.023,0.008,0.106,0.073,0.977,0.31,0.13,-0.691
24,-0.021,-0.018,0.013,0.097,0.072,0.972,0.298,0.133,-0.69
25,0.006,0.027,-0.037,0.099,0.074,0.979,0.309,0.15,-0.702
26,0.006,0.023,-0.035,0.099,0.074,0.979,0.304,0.13,-0.688
27,-0.004,0.001,-0.013,0.103,0.064,0.995,0.3,0.133,-0.7
28,-0.01,-0.011,-0.004,0.097,0.064,0.987,0.309,0.139,-0.7
29,-0.005,-0.025,0.009,0.098,0.063,0.988,0.298,0.133,-0.681
30,-0.027,-0.034,0.039,0.106,0.061,1.0,0.31,0.142,-0.702
31,-0.028,-0.015,0.028,0.114,0.057,1.011,0.328,0.147,-0.699
32,-0.004,0.009,0.011,0.117,0.061,1.014,0.328,0.147,-0.699
33,-0.001,0.019,0.0,0.125,0.067,1.019,0.309,0.151,-0.697
34,-0.016,0.011,0.011,0.129,0.06,1.021,0.291,0.123,-0.705
35,-0.026,0.01,0.018,0.123,0.05,1.011,0.288,0.147,-0.673
36,-0.025,0.006,0.008,0.121,0.056,0.993,0.288,0.147,-0.673
37,-0.025,-0.011,0.019,0.125,0.069,0.976,0.307,0.138,-0.708
38,-0.023,-0.032,0.059,0.122,0.075,0.961,0.322,0.135,-0.7
39,-0.003,-0.021,0.037,0.117,0.085,0.951,0.31,0.147,-0.684
40,0.0,-0.022,0.032,0.122,0.083,0.961,0.324,0.132,-0.694
41,-0.026,-0.037,0.076,0.13,0.072,0.975,0.321,0.135,-0.702
42,0.009,-0.002,0.035,0.138,0.079,0.984,0.3,0.151,-0.675
43,0.062,0.037,-0.014,0.138,0.079,0.984,0.292,0.148,-0.688
44,0.044,0.025,0.013,0.142,0.088,0.987,0.318,0.139,-0.702
45,0.007,0.0,0.065,0.143,0.075,1.001,0.309,0.133,-0.687
46,0.03,-0.005,0.076,0.139,0.066,0.997,0.298,0.145,-0.702
47,0.037,0.0,0.077,0.134,0.079,0.99,0.298,0.145,-0.702
48,0.03,0.014,0.074,0.134,0.072,0.998,0.309,0.159,-0.693
49,0.032,0.056,0.034,0.129,0.062,0.993,0.322,0.136,-0.7
50,0.013,0.058,0.035,0.122,0.058,0.987,0.291,0.142,-0.69
51,-0.003,0.037,0.051,0.121,0.04,0.999,0.301,0.145,-0.685
52,0.001,0.028,0.032,0.116,0.04,0.996,0.327,0.159,-0.711
53,-0.005,0.002,0.051,0.113,0.052,0.98,0.306,0.142,-0.696
54,-0.007,-0.013,0.095,0.117,0.058,0.975,0.28,0.156,-0.694
55,0.028,0.015,0.054,0.123,0.075,0.98,0.298,0.162,-0.675
56,0.042,0.03,0.038,0.135,0.083,0.99,0.307,0.138,-0.706
57,0.008,0.014,0.086,0.137,0.07,0.997,0.312,0.154,-0.69
58,0.06,0.042,0.049,0.13,0.062,1.0,0.321,0.145,-0.672
59,0.088,0.089,-0.009,0.134,0.07,0.999,0.321,0.145,-0.672
60,0.042,0.064,0.014,0.11,0.044,1.005,0.322,0.166,-0.685
61,-0.001,0.034,0.04,0.11,0.044,1.005,0.319,0.142,-0.693
62,0.008,0.04,0.028,0.098,0.049,0.99,0.298,0.156,-0.676
63,-0.002,0.049,0.035,0.108,0.067,0.981,0.307,0.148,-0.696
64,0.008,0.103,-0.014,0.12,0.069,0.991,0.315,0.15,-0.696
65,0.002,0.154,-0.049,0.106,0.075,0.979,0.313,0.163,-0.706
66,-0.021,0.123,-0.028,0.102,0.073,0.984,0.325,0.157,-0.712
67,-0.037,0.079,0.009,0.109,0.064,1.009,0.315,0.157,-0.697
68,-0.037,0.053,0.028,0.108,0.068,1.009,0.337,0.156,-0.714
69,-0.032,0.027,0.042,0.109,0.071,1.009,0.315,0.16,-0.712
70,-0.023,0.019,0.048,0.113,0.074,1.011,0.316,0.153,-0.708
71,-0.006,0.025,0.033,0.111,0.079,0.999,0.327,0.159,-0.699
72,0.004,0.043,0.018,0.103,0.08,0.977,0.313,0.162,-0.705
73,-0.008,0.03,0.03,0.098,0.077,0.964,0.336,0.151,-0.714
74,-0.009,0.013,0.039,0.098,0.069,0.971,0.324,0.16,-0.711
75,0.004,0.006,0.043,0.092,0.071,0.969,0.331,0.159,-0.696
76,0.004,-0.017,0.058,0.089,0.075,0.969,0.33,0.16,-0.712
77,0.016,-0.021,0.046,0.085,0.071,0.98,0.324,0.135,-0.717
78,0.035,0.005,0.007,0.085,0.071,0.98,0.321,0.156,-0.705
79,0.023,-0.006,0.004,0.081,0.068,0.982,0.321,0.156,-0.705
80,-0.004,-0.025,0.016,0.089,0.058,1.009,0.315,0.172,-0.714
81,-0.014,-0.032,0.016,0.096,0.058,1.024,0.328,0.147,-0.705
82,-0.011,-0.022,0.004,0.094,0.074,1.011,0.319,0.156,-0.715
83,-0.007,-0.026,0.004,0.095,0.087,1.003,0.33,0.144,-0.718
84,-0.026,-0.035,0.038,0.101,0.096,1.001,0.327,0.172,-0.717
85,-0.021,-0.008,0.032,0.102,0.104,0.998,0.319,0.144,-0.709
86,0.025,0.014,-0.007,0.1,0.111,1.0,0.331,0.175,-0.717
87,0.032,0.025,-0.011,0.102,0.118,1.003,0.321,0.172,-0.69
88,0.0,0.006,0.016,0.103,0.098,1.02,0.331,0.16,-0.715
89,-0.025,-0.001,0.04,0.099,0.074,1.027,0.295,0.181,-0.708
90,-0.017,0.013,0.017,0.096,0.076,1.017,0.319,0.171,-0.706
91,-0.033,0.006,0.037,0.094,0.083,1.005,0.3,0.163,-0.712
92,-0.062,-0.003,0.063,0.094,0.075,1.002,0.316,0.16,-0.703
93,-0.048,0.014,0.039,0.091,0.073,0.998,0.321,0.162,-0.7
94,-0.041,0.011,0.032,0.091,0.079,0.985,0.319,0.177,-0.706
95,-0.058,-0.016,0.045,0.093,0.068,0.979,0.328,0.159,-0.705
96,-0.022,-0.026,0.041,0.093,0.068,0.979,0.325,0.154,-0.708
97,0.039,0.002,0.002,0.097,0.085,0.962,0.325,0.154,-0.708
98,0.044,-0.002,0.007,0.099,0.095,0.958,0.325,0.153,-0.697
99,0.011,-0.018,0.038,0.092,0.071,0.971,0.322,0.162,-0.714
100,0.019,-0.012,0.007,0.08,0.065,0.981,0.325,0.184,-0.703
101,0.015,-0.007,0.008,0.087,0.076,0.983,0.334,0.171,-0.7
102,-0.018,-0.026,0.03,0.099,0.077,0.993,0.319,0.18,-0.703
103,0.015,-0.031,0.016,0.089,0.081,0.987,0.321,0.172,-0.706
104,0.023,-0.022,0.023,0.083,0.093,0.972,0.31,0.175,-0.706
105,-0.002,-0.028,0.041,0.094,0.089,0.992,0.342,0.157,-0.702
106,0.028,-0.002,0.007,0.089,0.082,0.999,0.313,0.157,-0.694
107,0.004,0.02,-0.046,0.081,0.097,1.008,0.345,0.171,-0.714
108,0.004,0.02,-0.046,0.081,0.097,1.008,0.345,0.171,-0.714
109,0.004,0.02,-0.046,0.081,0.097,1.008,0.345,0.171,-0.714
110,-0.003,0.012,-0.033,0.081,0.097,1.008,0.322,0.169,-0.715
111,-0.008,0.012,-0.023,0.082,0.104,0.999,0.322,0.169,-0.715
112,0.001,0.014,-0.024,0.079,0.112,0.987,0.328,0.186,-0.715
113,0.0,0.007,-0.018,0.063,0.099,0.984,0.336,0.168,-0.706
114,-0.007,0.0,-0.015,0.06,0.094,0.987,0.325,0.169,-0.703
115,0.0,-0.003,-0.016,0.06,0.094,0.987,0.321,0.166,-0.711
116,0.005,-0.004,-0.023,0.06,0.093,0.993,0.312,0.174,-0.706
117,0.006,-0.006,-0.029,0.059,0.09,0.998,0.325,0.168,-0.708
118,0.007,-0.009,-0.035,0.056,0.087,0.997,0.342,0.171,-0.684
119,0.0,-0.009,-0.034,0.056,0.086,0.996,0.322,0.171,-0.708
120,-0.005,-0.009,-0.032,0.059,0.087,0.999,0.322,0.177,-0.687
121,-0.011,-0.006,-0.03,0.062,0.091,1.0,0.312,0.162,-0.712
122,-0.014,-0.004,-0.028,0.067,0.095,1.003,0.322,0.16,-0.721
123,-0.014,0.0,-0.03,0.07,0.097,1.0,0.315,0.174,-0.688
124,-0.009,0.002,-0.029,0.071,0.101,1.0,0.331,0.18,-0.711
125,-0.004,0.0,-0.024,0.068,0.106,0.994,0.331,0.18,-0.711
126,-0.003,-0.004,-0.018,0.065,0.107,0.986,0.315,0.18,-0.708
127,-0.004,-0.004,-0.025,0.066,0.102,0.987,0.315,0.18,-0.708
128,-0.016,-0.008,-0.012,0.066,0.098,0.993,0.325,0.18,-0.688
129,-0.008,0.002,-0.021,0.069,0.1,0.996,0.358,0.165,-0.732
130,-0.007,0.015,-0.032,0.071,0.104,0.992,0.309,0.172,-0.703
131,-0.011,0.002,-0.023,0.072,0.101,0.994,0.337,0.175,-0.714
132,-0.027,-0.016,0.009,0.07,0.099,0.991,0.328,0.18,-0.703
133,-0.023,-0.006,-0.007,0.07,0.099,0.991,0.318,0.186,-0.708
134,-0.022,0.006,-0.023,0.07,0.097,0.994,0.343,0.204,-0.706
135,-0.037,-0.01,-0.004,0.07,0.1,0.993,0.321,0.175,-0.706
136,-0.03,-0.011,-0.002,0.069,0.1,0.988,0.31,0.187,-0.706
137,-0.002,0.005,-0.022,0.07,0.103,0.982,0.328,0.193,-0.717
138,0.016,0.016,-0.036,0.082,0.113,0.987,0.346,0.171,-0.715
139,0.014,0.004,-0.023,0.082,0.116,0.984,0.327,0.156,-0.685
140,-0.009,-0.02,-0.001,0.066,0.11,0.975,0.327,0.156,-0.685
141,-0.02,-0.035,0.008,0.062,0.102,0.978,0.331,0.174,-0.709
142,-0.011,-0.031,0.002,0.069,0.108,0.985,0.339,0.166,-0.697
143,0.004,-0.019,0.002,0.075,0.117,0.99,0.319,0.195,-0.703
144,0.004,-0.009,0.0,0.072,0.116,0.991,0.312,0.171,-0.714
145,-0.003,0.004,-0.011,0.071,0.109,1.0,0.321,0.18,-0.706
146,0.0,0.037,-0.037,0.069,0.108,0.994,0.312,0.18,-0.699
147,-0.013,0.058,-0.047,0.061,0.114,0.988,0.334,0.181,-0.717
148,-0.018,0.046,-0.038,0.055,0.106,1.0,0.325,0.183,-0.729
149,-0.028,0.044,-0.029,0.047,0.101,0.997,0.322,0.195,-0.709
150,-0.035,0.023,-0.023,0.047,0.101,0.997,0.334,0.159,-0.711
151,-0.037,0.028,-0.028,0.05,0.097,1.005,0.336,0.168,-0.69
152,-0.028,0.041,-0.041,0.051,0.106,1.002,0.333,0.19,-0.723
153,-0.036,0.047,-0.038,0.052,0.109,0.996,0.316,0.166,-0.729
154,-0.035,0.043,-0.042,0.052,0.104,0.997,0.316,0.166,-0.729
155,-0.028,0.028,-0.041,0.049,0.106,0.993,0.333,0.172,-0.709
156,-0.025,0.013,-0.033,0.05,0.111,0.985,0.343,0.174,-0.721
157,-0.023,-0.004,-0.021,0.055,0.112,0.983,0.336,0.187,-0.696
158,-0.013,-0.021,-0.011,0.058,0.119,0.98,0.333,0.186,-0.694
159,-0.008,-0.026,-0.002,0.061,0.126,0.977,0.325,0.183,-0.703
160,0.004,-0.017,-0.001,0.068,0.132,0.983,0.337,0.178,-0.726
161,0.019,0.002,-0.008,0.078,0.141,0.989,0.337,0.174,-0.709
162,0.024,0.015,0.008,0.088,0.143,0.999,0.33,0.204,-0.69
163,0.012,0.023,0.02,0.094,0.139,1.007,0.352,0.172,-0.702
164,0.004,0.01,0.037,0.092,0.137,1.008,0.349,0.19,-0.688
165,-0.011,0.0,0.056,0.09,0.14,1.005,0.334,0.184,-0.726
166,-0.013,-0.017,0.056,0.091,0.161,1.003,0.325,0.183,-0.72
167,-0.017,-0.027,0.066,0.096,0.172,0.996,0.325,0.183,-0.72
168,0.009,-0.021,0.056,0.096,0.172,0.996,0.331,0.174,-0.699
169,0.017,-0.016,0.058,0.098,0.18,0.982,0.34,0.183,-0.717
170,0.013,-0.016,0.058,0.094,0.183,0.977,0.337,0.193,-0.705
171,0.008,-0.014,0.054,0.09,0.181,0.977,0.345,0.187,-0.709
172,0.009,-0.012,0.05,0.088,0.179,0.976,0.346,0.183,-0.7
173,0.02,-0.009,0.046,0.089,0.186,0.968,0.333,0.189,-0.708
174,0.016,-0.019,0.056,0.089,0.193,0.958,0.346,0.187,-0.729
175,0.028,-0.019,0.061,0.089,0.199,0.952,0.333,0.187,-0.717
176,0.035,-0.021,0.074,0.086,0.207,0.947,0.327,0.199,-0.705
177,0.03,-0.027,0.088,0.083,0.199,0.958,0.33,0.19,-0.703
178,0.024,-0.029,0.102,0.083,0.187,0.971,0.328,0.198,-0.723
179,0.033,-0.018,0.101,0.087,0.183,0.975,0.312,0.183,-0.697
180,0.051,-0.004,0.098,0.091,0.186,0.976,0.298,0.183,-0.724
181,0.053,-0.011,0.112,0.087,0.19,0.972,0.325,0.18,-0.714
182,0.063,-0.007,0.113,0.081,0.184,0.97,0.327,0.178,-0.727
183,0.066,0.004,0.101,0.076,0.18,0.968,0.331,0.186,-0.718
184,0.07,0.002,0.094,0.062,0.182,0.965,0.327,0.186,-0.723
185,0.072,-0.01,0.103,0.062,0.182,0.965,0.36,0.196,-0.715
186,0.074,-0.011,0.102,0.062,0.191,0.96,0.333,0.187,-0.717
187,0.082,-0.021,0.102,0.063,0.197,0.964,0.339,0.186,-0.714
188,0.074,-0.029,0.104,0.061,0.203,0.965,0.339,0.186,-0.714
189,0.057,-0.031,0.104,0.062,0.197,0.972,0.331,0.204,-0.7
190,0.059,-0.017,0.081,0.068,0.193,0.98,0.324,0.195,-0.727
191,0.063,-0.016,0.065,0.071,0.199,0.978,0.342,0.186,-0.723
192,0.051,-0.035,0.07,0.064,0.2,0.965,0.339,0.178,-0.705
193,0.044,-0.06,0.046,0.058,0.195,0.954,0.334,0.18,-0.706
194,0.012,-0.114,0.046,0.047,0.196,0.944,0.322,0.181,-0.709
195,-0.024,-0.18,0.062,0.03,0.18,0.948,0.328,0.184,-0.736
196,-0.017,-0.226,0.056,0.03,0.166,0.975,0.315,0.18,-0.721
197,0.012,-0.237,0.044,0.042,0.175,0.998,0.327,0.19,-0.688
198,0.039,-0.263,0.071,0.064,0.178,1.028,0.325,0.189,-0.703
199,0.03,-0.263,0.093,0.095,0.165,1.091,0.319,0.192,-0.7
200,0.001,-0.207,0.074,0.137,0.127,1.184,0.334,0.195,-0.706
201,-0.046,-0.105,0.025,0.178,0.087,1.255,0.316,0.192,-0.7
202,-0.065,-0.009,-0.035,0.17,0.079,1.185,0.328,0.193,-0.675
203,-0.065,0.091,-0.108,0.17,0.079,1.185,0.292,0.186,-0.702
204,-0.107,0.099,-0.138,0.124,0.079,1.075,0.334,0.198,-0.7
205,-0.177,0.044,-0.126,0.069,0.061,0.971,0.334,0.198,-0.7
206,-0.205,-0.006,-0.113,0.035,0.066,0.888,0.315,0.19,-0.688
207,-0.182,-0.03,-0.12,0.035,0.101,0.843,0.306,0.199,-0.715
208,-0.169,-0.051,-0.111,0.05,0.118,0.853,0.322,0.201,-0.696
209,-0.155,-0.081,-0.079,0.064,0.111,0.897,0.327,0.193,-0.691
210,-0.13,-0.094,-0.036,0.082,0.107,0.952,0.301,0.192,-0.685
211,-0.08,-0.079,-0.005,0.105,0.105,1.016,0.3,0.181,-0.673
212,-0.029,-0.016,0.017,0.127,0.096,1.078,0.312,0.187,-0.678
213,0.034,0.074,0.023,0.14,0.082,1.115,0.304,0.214,-0.697
214,0.058,0.196,-0.032,0.136,0.051,1.129,0.318,0.205,-0.705
215,0.084,0.312,-0.154,0.106,0.005,1.103,0.306,0.207,-0.694
216,0.043,0.273,-0.138,0.075,-0.012,1.033,0.316,0.21,-0.678
217,0.018,0.2,-0.114,0.042,0.011,0.935,0.316,0.21,-0.678
218,0.045,0.163,-0.143,-0.002,0.062,0.817,0.315,0.193,-0.681
219,0.068,0.048,-0.088,0.027,0.134,0.773,0.315,0.193,-0.681
220,0.102,-0.021,-0.091,0.041,0.16,0.787,0.312,0.181,-0.705
221,0.136,-0.036,-0.124,0.041,0.16,0.787,0.31,0.184,-0.687
222,0.129,-0.087,-0.093,0.054,0.174,0.805,0.313,0.187,-0.688
223,0.126,-0.109,-0.077,0.081,0.171,0.86,0.328,0.177,-0.703
224,0.163,-0.08,-0.084,0.089,0.185,0.879,0.319,0.165,-0.696
225,0.228,-0.045,-0.102,0.087,0.197,0.885,0.333,0.195,-0.699
226,0.263,-0.035,-0.085,0.088,0.186,0.927,0.322,0.18,-0.7
227,0.296,-0.007,-0.095,0.083,0.167,0.955,0.327,0.172,-0.691
228,0.298,-0.017,-0.068,0.072,0.146,0.958,0.327,0.172,-0.691
229,0.268,-0.031,-0.044,0.063,0.117,0.977,0.331,0.159,-0.705
230,0.245,-0.024,-0.044,0.051,0.107,0.972,0.327,0.166,-0.7
231,0.231,-0.015,-0.048,0.037,0.121,0.947,0.303,0.162,-0.705
232,0.254,0.012,-0.078,0.023,0.132,0.925,0.319,0.145,-0.696
233,0.303,0.007,-0.066,0.001,0.138,0.9,0.315,0.166,-0.697
234,0.313,-0.066,-0.003,0.011,0.128,0.925,0.316,0.163,-0.693
235,0.303,-0.119,0.023,0.035,0.106,0.988,0.316,0.132,-0.691
236,0.321,-0.065,0.002,0.043,0.083,1.033,0.31,0.133,-0.696
237,0.399,-0.016,-0.01,0.04,0.074,1.036,0.313,0.139,-0.691
238,0.493,-0.028,0.035,0.04,0.074,1.036,0.312,0.144,-0.712
239,0.46,-0.239,0.263,0.088,0.023,1.144,0.319,0.12,-0.694
240,0.44,-0.413,0.443,0.166,-0.067,1.286,0.312,0.127,-0.699
241,0.344,-0.45,0.497,0.254,-0.145,1.387,0.292,0.112,-0.676
242,0.226,-0.29,0.335,0.315,-0.206,1.435,0.292,0.112,-0.676
243,0.106,-0.095,0.132,0.326,-0.217,1.398,0.279,0.111,-0.687
244,-0.07,-0.028,0.027,0.324,-0.191,1.316,0.292,0.133,-0.676
245,-0.262,-0.044,0.015,0.323,-0.163,1.209,0.285,0.133,-0.663
246,-0.421,-0.089,0.098,0.333,-0.115,1.045,0.31,0.103,-0.667
247,-0.467,-0.141,0.237,0.37,-0.034,0.892,0.298,0.135,-0.67
248,-0.329,-0.135,0.396,0.424,0.057,0.779,0.289,0.142,-0.684
249,-0.044,-0.003,0.527,0.455,0.121,0.697,0.309,0.133,-0.654
250,0.238,0.176,0.586,0.462,0.103,0.694,0.298,0.153,-0.687
251,0.396,0.353,0.554,0.439,-0.002,0.775,0.304,0.159,-0.687
252,0.372,0.387,0.521,0.376,-0.135,0.871,0.303,0.16,-0.687
253,0.231,0.245,0.506,0.289,-0.246,0.965,0.294,0.145,-0.685
254,0.121,0.064,0.478,0.199,-0.214,0.958,0.294,0.145,-0.685
255,0.053,-0.009,0.485,0.223,-0.12,0.891,0.306,0.154,-0.684
256,0.056,0.0,0.508,0.223,-0.12,0.891,0.307,0.159,-0.693
257,0.112,0.002,0.534,0.239,-0.023,0.841,0.318,0.166,-0.687
258,0.138,0.023,0.574,0.239,0.036,0.817,0.316,0.166,-0.679
259,0.166,0.028,0.6,0.233,0.043,0.834,0.319,0.16,-0.682
260,0.204,0.051,0.59,0.214,0.031,0.87,0.307,0.175,-0.682
261,0.222,0.072,0.567,0.195,0.01,0.902,0.303,0.186,-0.682
262,0.196,0.073,0.559,0.173,-0.008,0.923,0.316,0.186,-0.682
263,0.172,0.029,0.518,0.145,-0.026,0.945,0.309,0.186,-0.681
264,0.105,0.018,0.483,0.128,-0.038,0.96,0.321,0.192,-0.682
265,0.055,0.025,0.429,0.126,-0.029,0.965,0.313,0.183,-0.678
266,0.049,0.057,0.385,0.129,-0.001,0.947,0.324,0.193,-0.676
267,0.1,0.086,0.32,0.125,0.039,0.915,0.316,0.186,-0.688
268,0.102,0.109,0.27,0.118,0.062,0.912,0.327,0.217,-0.681
269,0.056,0.123,0.245,0.111,0.063,0.921,0.345,0.214,-0.673
270,0.034,0.154,0.205,0.095,0.074,0.919,0.327,0.19,-0.658
271,0.03,0.186,0.166,0.081,0.092,0.941,0.342,0.213,-0.676
272,0.041,0.211,0.12,0.059,0.09,1.034,0.346,0.22,-0.697
273,0.03,0.247,0.06,0.059,0.09,1.034,0.342,0.208,-0.682
274,0.015,0.329,-0.025,0.041,0.056,1.077,0.342,0.208,-0.682
275,0.032,0.356,-0.118,0.015,0.013,1.112,0.345,0.205,-0.685
276,0.163,0.383,-0.213,-0.017,-0.014,1.148,0.355,0.208,-0.697
277,0.268,0.402,-0.191,-0.041,0.005,1.17,0.354,0.198,-0.691
278,0.175,0.32,-0.099,-0.046,0.0,1.277,0.376,0.192,-0.696
279,-0.154,0.178,-0.121,-0.059,-0.126,1.495,0.366,0.202,-0.708
280,-0.473,0.15,-0.308,-0.074,-0.299,1.684,0.372,0.199,-0.712
281,-0.543,0.247,-0.583,-0.053,-0.347,1.658,0.376,0.193,-0.709
282,-0.438,0.18,-0.698,-0.029,-0.238,1.393,0.36,0.204,-0.706
283,-0.431,0.084,-0.644,-0.04,-0.117,1.067,0.372,0.211,-0.688
284,-0.544,-0.054,-0.415,-0.057,-0.057,0.843,0.354,0.204,-0.703
285,-0.632,-0.179,-0.184,-0.05,-0.04,0.795,0.37,0.222,-0.712
286,-0.554,-0.13,-0.132,0.0,-0.076,0.892,0.378,0.21,-0.706
287,-0.452,-0.011,-0.15,0.057,-0.128,1.013,0.357,0.232,-0.693
288,-0.427,0.074,-0.19,0.077,-0.19,1.084,0.372,0.217,-0.697
289,-0.422,0.114,-0.248,0.062,-0.246,1.07,0.358,0.238,-0.696
290,-0.385,0.138,-0.283,0.037,-0.236,0.937,0.373,0.237,-0.691
291,-0.308,0.137,-0.286,0.027,-0.174,0.775,0.373,0.237,-0.691
292,-0.202,0.1,-0.263,0.026,-0.101,0.641,0.36,0.24,-0.706
293,-0.072,0.042,-0.236,0.026,-0.048,0.545,0.376,0.258,-0.697
294,0.041,0.012,-0.203,0.031,-0.007,0.496,0.376,0.258,-0.697
295,0.127,-0.01,-0.179,0.039,0.013,0.502,0.352,0.246,-0.682
296,0.189,-0.044,-0.147,0.049,0.018,0.541,0.384,0.228,-0.706
297,0.245,-0.099,-0.111,0.067,0.033,0.596,0.355,0.223,-0.679
298,0.336,-0.149,-0.058,0.091,0.069,0.662,0.363,0.223,-0.697
299,0.429,-0.175,0.005,0.11,0.115,0.707,0.37,0.231,-0.687
300,0.489,-0.194,0.077,0.118,0.141,0.751,0.355,0.199,-0.696
301,0.469,-0.223,0.161,0.124,0.143,0.822,0.355,0.216,-0.688
302,0.389,-0.263,0.282,0.139,0.13,0.919,0.343,0.202,-0.696
303,0.313,-0.24,0.336,0.162,0.113,1.034,0.342,0.208,-0.691
304,0.273,-0.213,0.324,0.189,0.118,1.165,0.354,0.199,-0.684
305,0.257,-0.145,0.308,0.203,0.128,1.249,0.345,0.183,-0.681
306,0.307,-0.08,0.282,0.2,0.141,1.245,0.322,0.205,-0.681
307,0.318,-0.101,0.3,0.128,0.167,1.122,0.351,0.201,-0.679
308,0.311,-0.135,0.382,0.115,0.141,1.128,0.322,0.205,-0.676
309,0.43,-0.19,0.402,0.115,0.141,1.128,0.327,0.192,-0.7
310,0.459,-0.266,0.512,0.147,0.093,1.215,0.351,0.214,-0.702
311,0.262,-0.286,0.617,0.182,-0.054,1.362,0.339,0.199,-0.67
312,0.016,-0.23,0.546,0.182,-0.248,1.577,0.339,0.199,-0.67
313,-0.208,-0.08,0.294,0.175,-0.357,1.714,0.345,0.201,-0.693
314,-0.429,-0.011,0.067,0.166,-0.354,1.68,0.337,0.211,-0.694
315,-0.521,0.037,-0.072,0.178,-0.293,1.434,0.319,0.202,-0.676
316,-0.486,0.049,-0.102,0.233,-0.184,1.063,0.325,0.223,-0.672
317,-0.226,0.023,-0.083,0.298,-0.064,0.765,0.333,0.225,-0.67
318,0.089,0.004,0.015,0.367,0.055,0.596,0.336,0.229,-0.681
319,0.135,0.057,0.199,0.389,0.045,0.531,0.328,0.234,-0.67
320,0.156,0.133,0.311,0.352,-0.068,0.563,0.334,0.253,-0.66
321,0.194,0.186,0.33,0.274,-0.158,0.647,0.357,0.225,-0.687
322,0.163,0.235,0.349,0.163,-0.24,0.725,0.336,0.231,-0.685
323,0.174,0.207,0.321,0.073,-0.266,0.819,0.339,0.22,-0.681
324,0.237,0.119,0.3,0.024,-0.223,0.869,0.354,0.241,-0.696
325,0.314,0.076,0.21,0.064,-0.084,0.828,0.343,0.235,-0.675
326,0.422,-0.036,-0.028,0.064,-0.084,0.828,0.364,0.229,-0.669
327,0.432,-0.086,-0.226,0.089,-0.057,0.828,0.364,0.225,-0.7
328,0.252,0.039,-0.109,0.112,-0.026,0.866,0.349,0.21,-0.684
329,0.077,0.154,0.034,0.124,0.0,0.922,0.349,0.21,-0.684
330,0.006,0.314,0.032,0.122,-0.003,0.95,0.333,0.216,-0.687
331,-0.003,0.468,0.069,0.121,-0.003,0.956,0.351,0.216,-0.712
332,0.002,0.433,0.123,0.111,0.011,0.954,0.361,0.225,-0.697
333,-0.051,0.392,0.123,0.074,0.017,0.963,0.346,0.196,-0.687
334,-0.135,0.413,0.077,0.042,0.019,0.958,0.361,0.214,-0.687
335,-0.125,0.431,0.032,0.022,0.029,0.923,0.364,0.208,-0.691
336,-0.064,0.424,0.043,-0.009,0.052,0.895,0.378,0.217,-0.714
337,-0.013,0.352,-0.012,-0.04,0.074,0.897,0.396,0.223,-0.724
338,-0.052,0.364,-0.175,-0.047,0.089,0.931,0.396,0.213,-0.721
339,-0.202,0.37,-0.3,-0.044,0.091,0.968,0.399,0.232,-0.714
340,-0.334,0.203,-0.555,-0.073,0.073,1.018,0.409,0.222,-0.729
341,-0.533,0.152,-0.821,-0.102,0.079,1.112,0.409,0.228,-0.729
342,-0.679,0.284,-0.905,-0.092,0.094,1.193,0.396,0.237,-0.721
343,-0.608,0.441,-0.898,-0.134,0.211,1.309,0.394,0.241,-0.727
344,-0.044,0.276,-0.548,-0.134,0.211,1.309,0.4,0.223,-0.718
345,0.37,-0.004,-0.284,-0.234,0.229,1.353,0.414,0.21,-0.739
346,0.17,-0.291,-0.314,-0.303,0.117,1.441,0.414,0.21,-0.739
347,-0.155,-0.263,-0.415,-0.352,-0.007,1.541,0.408,0.225,-0.721
348,-0.472,-0.084,-0.602,-0.388,-0.014,1.493,0.385,0.216,-0.735
349,-0.683,0.177,-0.825,-0.374,-0.027,1.284,0.405,0.222,-0.72
350,-0.63,0.38,-0.999,-0.345,-0.06,1.003,0.373,0.231,-0.723
351,-0.389,0.319,-1.049,-0.321,-0.065,0.766,0.39,0.246,-0.742
352,-0.168,-0.025,-0.966,-0.305,-0.059,0.667,0.396,0.231,-0.72
353,-0.021,-0.378,-0.827,-0.291,-0.053,0.716,0.378,0.235,-0.729
354,0.086,-0.583,-0.756,-0.282,-0.085,0.823,0.384,0.217,-0.714
355,0.102,-0.635,-0.772,-0.297,-0.143,0.923,0.366,0.217,-0.712
356,0.134,-0.34,-0.943,-0.326,-0.16,0.993,0.345,0.201,-0.721
357,0.051,0.056,-1.089,-0.322,-0.163,1.003,0.345,0.201,-0.721
358,-0.013,0.383,-1.193,-0.299,-0.158,0.952,0.351,0.193,-0.708
359,-0.052,0.762,-1.267,-0.29,-0.143,0.856,0.349,0.184,-0.717
360,0.084,0.737,-1.206,-0.25,-0.106,0.679,0.351,0.187,-0.738
361,0.217,0.757,-1.257,-0.264,-0.113,0.675,0.367,0.175,-0.715
362,0.431,1.176,-1.394,-0.264,-0.113,0.675,0.372,0.151,-0.739
363,0.681,1.204,-1.835,-0.273,-0.118,0.673,0.402,0.145,-0.739
364,1.083,1.052,-1.925,-0.411,-0.08,0.676,0.414,0.138,-0.756
365,1.626,1.267,-1.244,-0.256,-0.074,0.649,0.433,0.109,-0.748
366,2.102,1.458,-0.537,0.055,-0.148,0.572,0.444,0.084,-0.775
367,1.806,1.105,-0.378,-0.015,-0.157,0.702,0.465,0.033,-0.751
368,1.057,0.298,-0.713,-0.258,-0.136,1.06,0.507,0.012,-0.742
369,0.709,-0.03,-0.88,-0.38,-0.163,1.165,0.492,-0.006,-0.742
370,0.557,-0.201,-0.807,-0.324,-0.14,1.022,0.499,-0.013,-0.741
371,0.392,-0.378,-0.767,-0.285,-0.102,0.982,0.508,-0.04,-0.73
372,0.387,-0.567,-0.897,-0.328,-0.102,0.977,0.537,-0.037,-0.745
373,0.513,-0.737,-0.86,-0.34,-0.11,0.894,0.513,-0.072,-0.706
374,0.561,-0.794,-0.695,-0.283,-0.086,0.868,0.513,-0.061,-0.708
375,0.492,-0.86,-0.802,-0.3,-0.089,0.914,0.492,-0.082,-0.727
376,0.65,-1.015,-1.028,-0.399,-0.184,0.958,0.492,-0.082,-0.727
377,0.921,-0.899,-1.427,-0.517,-0.354,0.912,0.496,-0.097,-0.7
378,0.814,-0.683,-1.788,-0.455,-0.539,1.135,0.486,-0.108,-0.685
379,0.606,-0.908,-2.14,-0.455,-0.539,1.135,0.504,-0.13,-0.673
380,0.285,-0.879,-2.422,-0.536,-0.531,1.282,0.505,-0.145,-0.681
381,0.123,-0.648,-2.475,-0.48,-0.493,1.314,0.528,-0.144,-0.669
382,0.196,-0.459,-2.314,-0.35,-0.461,1.156,0.522,-0.153,-0.669
383,0.42,-0.742,-2.07,-0.211,-0.432,0.934,0.558,-0.159,-0.658
384,0.722,-0.765,-1.798,-0.148,-0.439,0.82,0.577,-0.169,-0.658
385,0.709,-0.645,-1.589,-0.07,-0.398,0.888,0.598,-0.163,-0.667
386,0.611,-0.819,-1.516,-0.108,-0.403,1.024,0.595,-0.168,-0.651
387,0.445,-0.805,-1.393,-0.154,-0.46,1.107,0.606,-0.184,-0.648
388,0.411,-0.206,-1.284,-0.131,-0.451,1.111,0.607,-0.172,-0.636
389,0.462,0.052,-1.164,-0.188,-0.475,1.097,0.625,-0.192,-0.643
390,0.54,0.159,-1.059,-0.12,-0.527,1.032,0.648,-0.189,-0.639
391,0.597,0.156,-0.974,-0.069,-0.616,0.921,0.654,-0.184,-0.625
392,0.576,0.463,-0.898,-0.103,-0.666,0.856,0.654,-0.184,-0.625
393,0.534,1.091,-0.786,-0.093,-0.618,0.803,0.691,-0.172,-0.603
394,0.564,1.316,-0.704,-0.06,-0.579,0.726,0.705,-0.18,-0.598
395,0.527,1.327,-0.631,-0.199,-0.504,0.584,0.723,-0.199,-0.58
396,0.459,1.095,-0.602,-0.262,-0.455,0.558,0.735,-0.21,-0.558
397,0.448,0.98,-0.595,-0.262,-0.455,0.558,0.75,-0.207,-0.541
398,0.414,0.9,-0.584,-0.388,-0.462,0.542,0.784,-0.198,-0.537
399,0.319,0.617,-0.56,-0.439,-0.471,0.613,0.795,-0.187,-0.505
400,0.105,0.919,-0.326,-0.307,-0.459,0.705,0.805,-0.201,-0.516
401,0.037,0.737,0.072,-0.068,-0.462,0.933,0.822,-0.195,-0.511
402,0.0,0.368,0.045,-0.096,-0.546,0.984,0.813,-0.207,-0.475
403,-0.014,0.441,-0.024,-0.329,-0.603,0.78,0.807,-0.213,-0.502
404,0.086,0.973,0.223,-0.359,-0.59,0.627,0.831,-0.19,-0.489
405,0.06,1.607,0.545,-0.282,-0.598,0.492,0.831,-0.19,-0.489
406,-0.206,1.556,0.573,-0.395,-0.603,0.598,0.807,-0.201,-0.454
407,-0.372,1.144,0.512,-0.593,-0.599,0.798,0.843,-0.216,-0.477
408,-0.489,0.546,0.537,-0.686,-0.609,0.933,0.832,-0.216,-0.439
409,-0.397,0.399,0.842,-0.605,-0.677,0.857,0.825,-0.228,-0.448
410,-0.711,0.04,0.893,-0.541,-0.622,0.679,0.829,-0.228,-0.454
411,-0.89,0.194,1.087,-0.625,-0.452,0.742,0.774,-0.238,-0.463
412,-1.18,0.646,1.123,-0.681,-0.371,0.818,0.781,-0.243,-0.471
413,-1.598,-0.353,0.653,-0.634,-0.316,0.576,0.78,-0.241,-0.481
414,-1.603,-1.14,0.307,-0.634,-0.316,0.576,0.748,-0.24,-0.49
415,-1.261,-1.051,0.441,-0.584,-0.251,0.518,0.739,-0.217,-0.523
416,-0.646,-0.317,0.827,-0.619,-0.108,0.625,0.736,-0.238,-0.564
417,0.148,0.674,0.946,-0.775,-0.163,0.678,0.727,-0.214,-0.579
418,0.662,1.149,0.733,-1.017,-0.319,0.649,0.736,-0.231,-0.571
419,0.716,0.516,0.189,-1.071,-0.418,0.668,0.697,-0.253,-0.541
420,0.495,-0.142,-0.233,-1.043,-0.459,0.83,0.697,-0.253,-0.541
421,0.325,-0.419,-0.361,-1.055,-0.453,0.975,0.729,-0.271,-0.531
422,0.219,-0.621,-0.459,-1.012,-0.447,0.993,0.729,-0.252,-0.541
423,0.014,-0.542,-0.41,-0.815,-0.412,0.89,0.724,-0.246,-0.522
424,0.089,-0.32,-0.308,-0.589,-0.34,0.759,0.739,-0.249,-0.55
425,0.032,0.032,-0.375,-0.443,-0.292,0.625,0.73,-0.256,-0.532
426,0.019,0.642,-0.263,-0.411,-0.252,0.492,0.72,-0.235,-0.531
427,0.164,0.722,-0.557,-0.566,-0.199,0.49,0.744,-0.255,-0.528
428,0.891,0.975,-0.735,-0.724,-0.192,0.577,0.756,-0.259,-0.522
429,0.679,1.798,-0.63,-0.802,-0.267,0.653,0.772,-0.255,-0.501
430,0.213,1.438,-0.226,-0.474,-0.345,0.654,0.807,-0.253,-0.475
431,0.46,0.304,0.086,-0.24,-0.277,0.704,0.802,-0.253,-0.489
432,0.346,0.09,0.373,-0.24,-0.277,0.704,0.792,-0.259,-0.462
433,0.245,0.269,0.333,-0.412,-0.386,0.547,0.796,-0.279,-0.457
434,0.359,0.41,0.207,-0.638,-0.44,0.483,0.781,-0.274,-0.441
435,0.404,0.416,0.158,-0.674,-0.491,0.599,0.781,-0.274,-0.441
436,0.378,0.554,0.194,-0.61,-0.537,0.672,0.784,-0.28,-0.45
437,0.203,0.838,0.12,-0.599,-0.636,0.653,0.781,-0.3,-0.459
438,-0.161,0.707,0.126,-0.571,-0.627,0.621,0.787,-0.279,-0.429
439,-0.228,0.152,0.294,-0.544,-0.616,0.618,0.792,-0.286,-0.424
440,-0.141,-0.065,0.607,-0.474,-0.533,0.69,0.789,-0.304,-0.424
441,0.156,-0.644,0.565,-0.459,-0.531,0.613,0.783,-0.304,-0.43
442,0.318,-0.406,0.475,-0.514,-0.617,0.634,0.774,-0.297,-0.444
443,0.491,0.3,0.142,-0.717,-0.68,0.737,0.742,-0.295,-0.429
444,0.527,0.663,-0.28,-1.204,-0.713,0.63,0.738,-0.307,-0.418
445,0.463,0.413,-0.329,-1.406,-0.652,0.474,0.748,-0.298,-0.405
446,0.209,0.002,-0.215,-1.212,-0.515,0.364,0.748,-0.298,-0.405
447,0.245,-0.166,-0.063,-0.946,-0.15,0.272,0.765,-0.328,-0.412
448,0.683,-0.59,-0.183,-0.723,-0.266,0.011,0.771,-0.31,-0.396
449,0.84,-0.76,-0.338,-0.65,-0.251,0.256,0.777,-0.321,-0.397
450,0.723,-0.677,-0.361,-0.65,-0.251,0.256,0.778,-0.316,-0.381
451,0.618,-0.411,-0.404,-0.493,-0.33,0.502,0.766,-0.324,-0.375
452,0.644,-0.181,-0.69,-0.551,-0.393,0.525,0.756,-0.325,-0.376
453,0.653,0.082,-0.887,-0.73,-0.433,0.406,0.775,-0.315,-0.355
454,0.693,0.256,-0.86,-0.875,-0.489,0.314,0.802,-0.321,-0.349
455,0.79,0.287,-0.641,-0.913,-0.511,0.223,0.798,-0.307,-0.328
456,0.958,0.264,-0.483,-0.82,-0.486,0.126,0.811,-0.309,-0.315
457,1.2,0.035,-0.321,-0.692,-0.44,0.063,0.831,-0.301,-0.295
458,1.307,0.065,-0.226,-0.592,-0.426,0.094,0.85,-0.288,-0.288
459,1.288,0.354,-0.168,-0.633,-0.465,0.235,0.846,-0.288,-0.24
460,0.947,2.281,-0.008,-0.712,-0.484,0.23,0.846,-0.288,-0.24
461,0.777,2.355,-0.059,-0.688,-0.443,-0.339,0.834,-0.282,-0.234
462,0.219,2.093,0.704,-0.918,-0.553,0.066,0.829,-0.285,-0.187
463,0.435,0.799,0.633,-1.007,-0.816,0.67,0.801,-0.289,-0.147
464,0.63,0.05,0.436,-0.96,-0.913,0.306,0.784,-0.3,-0.132
465,0.485,-0.182,0.239,-1.0,-0.788,0.129,0.79,-0.291,-0.118
466,0.243,-0.363,0.198,-0.687,-0.759,0.035,0.793,-0.295,-0.106
467,0.275,-0.427,0.177,-0.687,-0.799,0.115,0.789,-0.304,-0.124
468,0.334,-0.329,0.166,-0.693,-0.799,0.115,0.766,-0.304,-0.115
469,0.299,-0.219,0.214,-0.664,-0.767,0.08,0.777,-0.292,-0.106
470,0.324,-0.38,0.159,-0.619,-0.766,0.093,0.766,-0.304,-0.109
471,0.443,-0.714,0.104,-0.709,-0.736,0.092,0.751,-0.294,-0.13
472,0.511,-1.226,0.023,-0.8,-0.718,0.178,0.753,-0.292,-0.108
473,0.486,-1.34,0.0,-0.8,-0.682,0.302,0.775,-0.289,-0.114
474,0.535,-1.423,0.01,-0.807,-0.668,0.28,0.783,-0.286,-0.114
475,0.653,-1.189,-0.071,-0.712,-0.804,0.12,0.783,-0.286,-0.114
476,0.718,-1.045,-0.224,-0.707,-0.85,-0.052,0.805,-0.277,-0.121
477,0.686,-0.875,-0.431,-0.812,-0.724,-0.073,0.817,-0.294,-0.112
478,0.464,-0.473,-0.462,-0.832,-0.598,-0.079,0.822,-0.27,-0.103
479,0.142,-0.173,-0.358,-0.949,-0.552,-0.076,0.831,-0.255,-0.099
480,0.006,-0.09,-0.329,-1.128,-0.539,0.102,0.835,-0.288,-0.096
481,0.125,-0.023,-0.266,-1.173,-0.556,0.293,0.847,-0.264,-0.12
482,0.34,-0.082,-0.129,-1.096,-0.637,0.319,0.846,-0.27,-0.111
483,0.389,0.074,0.162,-0.991,-0.724,0.226,0.856,-0.255,-0.114
484,0.415,0.17,0.332,-0.924,-0.707,0.21,0.847,-0.261,-0.097
485,-0.14,0.607,0.27,-0.924,-0.707,0.21,0.855,-0.252,-0.085
486,-0.645,1.824,-0.067,-0.989,-0.458,0.506,0.825,-0.256,-0.085
487,-0.536,1.486,-0.116,-0.873,-0.68,0.613,0.802,-0.265,-0.094
488,-0.205,1.058,-0.066,-0.593,-0.963,0.032,0.801,-0.264,-0.075
489,0.051,0.658,0.071,-0.483,-0.595,-0.178,0.801,-0.264,-0.075
490,0.17,0.142,0.152,-0.347,-0.435,-0.067,0.795,-0.283,-0.087
491,0.17,-0.119,0.341,-0.437,-0.41,-0.142,0.766,-0.289,-0.067
492,0.072,-0.546,0.671,-0.524,-0.431,-0.272,0.798,-0.277,-0.07
493,-0.293,-0.793,0.8,-0.495,-0.502,-0.052,0.798,-0.264,-0.064
494,-0.438,-1.115,0.777,-0.632,-0.473,0.15,0.762,-0.297,-0.066
495,-0.493,-1.085,0.719,-0.724,-0.488,0.154,0.756,-0.28,-0.105
496,-0.515,-1.066,0.714,-0.706,-0.545,0.187,0.753,-0.289,-0.115
497,-0.457,-0.807,0.695,-0.532,-0.554,0.185,0.756,-0.292,-0.114
498,-0.373,-0.365,0.592,-0.377,-0.535,0.251,0.747,-0.309,-0.141
499,-0.349,-0.014,0.605,-0.307,-0.556,0.371,0.729,-0.307,-0.166
500,-0.35,0.065,0.538,-0.303,-0.655,0.507,0.727,-0.328,-0.16
501,-0.274,0.137,0.555,-0.5,-1.081,0.514,0.732,-0.346,-0.16
502,-0.51,0.288,0.728,-0.5,-1.081,0.514,0.717,-0.33,-0.174
503,-0.731,0.348,0.947,-0.833,-0.957,0.354,0.693,-0.331,-0.171
504,-0.782,0.361,1.026,-1.082,-0.676,0.363,0.667,-0.333,-0.207
505,-1.049,1.157,-0.002,-1.192,-0.623,0.41,0.657,-0.345,-0.207
506,-1.118,1.323,-0.198,-1.266,-0.701,0.377,0.657,-0.345,-0.207
507,-0.457,0.014,-0.41,-0.678,-0.941,0.065,0.649,-0.34,-0.228
508,0.191,-1.394,-0.464,-0.327,-1.215,-0.308,0.634,-0.348,-0.241
509,0.514,-1.905,-0.719,-0.669,-1.162,-0.303,0.634,-0.348,-0.241
510,0.686,-1.402,-0.675,-0.675,-0.961,0.103,0.664,-0.339,-0.258
511,0.84,-0.593,-0.436,-0.448,-0.953,0.123,0.688,-0.336,-0.247
512,0.819,-0.559,-0.119,-0.469,-0.95,0.04,0.696,-0.346,-0.237
513,0.696,-1.134,0.11,-0.514,-0.916,0.187,0.693,-0.315,-0.208
514,0.683,-1.584,0.305,-0.562,-0.776,0.293,0.711,-0.327,-0.217
515,0.758,-1.442,0.427,-0.764,-0.579,0.315,0.702,-0.33,-0.183
516,0.931,-0.899,0.228,-0.718,-0.5,0.274,0.693,-0.325,-0.195
517,0.873,-0.149,0.018,-0.371,-0.435,0.136,0.723,-0.315,-0.186
518,0.968,0.332,-0.073,-0.212,-0.473,0.017,0.714,-0.318,-0.177
519,0.992,0.621,-0.17,-0.186,-0.605,0.163,0.708,-0.319,-0.144
520,0.79,0.385,-0.261,-0.186,-0.605,0.163,0.703,-0.301,-0.117
521,0.803,0.088,-0.172,-0.256,-0.637,0.19,0.705,-0.31,-0.114
522,1.04,0.171,-0.214,-0.512,-0.775,0.033,0.705,-0.291,-0.108
523,1.081,0.627,-0.221,-0.563,-0.88,0.037,0.729,-0.286,-0.09
524,1.118,1.108,-0.345,-0.481,-0.833,0.09,0.729,-0.286,-0.09
525,0.882,1.552,-0.373,-0.438,-0.901,-0.075,0.727,-0.282,-0.066
526,0.664,1.878,-0.13,-0.411,-1.035,-0.085,0.694,-0.258,-0.057
527,0.546,1.577,-0.193,-0.494,-0.836,0.125,0.691,-0.27,-0.022
528,0.473,1.012,-0.422,-0.568,-0.688,0.202,0.678,-0.237,-0.033
529,0.318,0.463,-0.422,-0.507,-0.849,0.07,0.639,-0.246,-0.001
530,0.083,-0.057,-0.352,-0.524,-0.866,-0.03,0.648,-0.237,0.012
531,-0.079,-0.541,-0.163,-0.537,-0.852,-0.004,0.652,-0.229,0.015
532,-0.162,-0.68,0.069,-0.43,-0.88,-0.024,0.678,-0.229,-0.003
533,-0.305,-0.972,0.329,-0.253,-0.891,0.029,0.673,-0.21,-0.006
534,-0.421,-1.33,0.525,-0.33,-0.915,0.121,0.66,-0.24,-0.004
535,-0.345,-1.228,0.607,-0.492,-1.035,-0.056,0.667,-0.226,-0.022
536,-0.444,-0.764,0.637,-0.683,-1.133,-0.291,0.667,-0.226,-0.022
537,-0.68,-0.093,0.525,-0.826,-1.069,-0.091,0.663,-0.247,-0.036
538,-0.85,0.263,0.317,-0.826,-1.069,-0.091,0.675,-0.238,-0.037
539,-0.761,0.137,0.05,-1.094,-0.939,0.165,0.648,-0.255,-0.054
540,-0.476,0.055,-0.029,-1.083,-0.892,0.188,0.664,-0.276,-0.067
541,-0.275,-0.251,0.065,-0.776,-0.987,0.04,0.655,-0.265,-0.081
542,-0.467,-0.737,0.17,-0.544,-1.097,0.07,0.654,-0.264,-0.078
543,-0.758,-1.167,0.273,-0.499,-1.062,0.127,0.657,-0.271,-0.073
544,-1.052,-1.214,0.385,-0.573,-1.033,0.09,0.661,-0.262,-0.1
545,-1.293,-0.69,0.397,-0.534,-0.943,0.077,0.66,-0.295,-0.114
546,-1.402,-0.072,-0.039,-0.423,-0.758,0.018,0.67,-0.309,-0.124
547,-1.227,0.429,-0.575,-0.439,-0.7,-0.024,0.651,-0.309,-0.156
548,-1.076,0.479,-0.92,-0.505,-0.728,0.142,0.655,-0.319,-0.202
549,-0.903,0.219,-1.079,-0.559,-0.83,0.252,0.7,-0.297,-0.204
550,-0.695,0.11,-1.072,-0.581,-0.619,0.237,0.702,-0.301,-0.228
551,-0.471,0.181,-1.034,-0.514,-0.454,0.191,0.705,-0.309,-0.249
552,-0.269,0.205,-0.998,-0.417,-0.48,0.196,0.705,-0.309,-0.249
553,-0.096,0.28,-0.614,-0.404,-0.599,0.244,0.733,-0.309,-0.247
554,0.091,0.233,-0.249,-0.42,-0.712,0.378,0.742,-0.271,-0.243
555,0.282,0.117,-0.081,-0.377,-0.68,0.463,0.753,-0.28,-0.25
556,0.449,0.035,0.009,-0.377,-0.68,0.463,0.75,-0.279,-0.235
557,0.474,0.275,0.131,-0.361,-0.683,0.512,0.732,-0.283,-0.225
558,0.438,0.532,0.296,-0.387,-0.698,0.489,0.724,-0.27,-0.214
559,0.453,0.281,0.489,-0.502,-0.754,0.442,0.726,-0.286,-0.205
560,0.436,0.106,0.803,-0.671,-0.873,0.444,0.717,-0.276,-0.204
561,0.369,0.058,1.025,-0.721,-1.004,0.694,0.715,-0.285,-0.192
562,0.171,-0.049,1.01,-0.443,-1.068,0.953,0.681,-0.273,-0.178
563,0.095,0.386,0.632,-0.457,-1.005,0.588,0.679,-0.294,-0.202
564,-0.052,0.903,0.435,-0.769,-0.877,-0.105,0.678,-0.297,-0.187
565,-0.209,1.042,0.674,-0.861,-0.955,-0.213,0.667,-0.298,-0.16
566,-0.539,1.273,0.643,-0.747,-1.016,0.058,0.651,-0.292,-0.186
567,-0.683,1.266,0.434,-0.658,-0.789,0.232,0.61,-0.295,-0.192
568,-0.515,1.267,0.478,-0.626,-0.706,0.146,0.61,-0.292,-0.183
569,-0.268,1.531,0.344,-0.694,-0.712,-0.05,0.606,-0.319,-0.196
570,-0.08,1.308,0.109,-0.808,-0.666,-0.133,0.576,-0.307,-0.187
571,0.081,0.754,-0.052,-0.723,-0.593,-0.08,0.576,-0.307,-0.187
572,0.193,0.504,-0.082,-0.488,-0.525,-0.012,0.571,-0.294,-0.196
573,0.309,0.297,-0.191,-0.51,-0.517,-0.012,0.586,-0.288,-0.204
574,0.359,0.142,-0.145,-0.51,-0.517,-0.012,0.571,-0.274,-0.187
575,0.455,-0.023,0.026,-0.527,-0.662,-0.015,0.601,-0.286,-0.193
576,0.47,-0.285,0.21,-0.574,-0.751,-0.035,0.565,-0.307,-0.172
577,0.485,-0.676,0.31,-0.481,-0.763,0.073,0.583,-0.303,-0.178
578,0.534,-0.672,-0.12,-0.591,-0.745,0.038,0.573,-0.28,-0.16
579,0.732,-0.423,-0.448,-0.675,-0.725,-0.04,0.577,-0.283,-0.147
580,0.769,-0.325,-0.466,-0.493,-0.821,-0.005,0.568,-0.271,-0.133
581,0.801,-0.21,-0.32,-0.446,-0.908,-0.044,0.58,-0.27,-0.114
582,0.828,-0.137,-0.156,-0.317,-0.826,-0.052,0.586,-0.279,-0.102
583,0.84,-0.217,-0.275,-0.294,-0.758,-0.024,0.594,-0.253,-0.102
584,0.867,-0.283,-0.422,-0.416,-0.823,0.057,0.612,-0.238,-0.075
585,0.807,-0.41,-0.598,-0.453,-0.887,0.094,0.616,-0.238,-0.081
586,0.576,-0.327,-0.584,-0.316,-1.014,-0.085,0.607,-0.234,-0.055
587,0.394,-0.361,-0.406,-0.369,-1.153,-0.137,0.621,-0.211,-0.046
588,0.321,-0.455,-0.121,-0.483,-1.147,0.015,0.621,-0.211,-0.046
589,0.217,-0.463,0.151,-0.365,-1.05,-0.108,0.634,-0.219,-0.024
590,0.165,-0.275,0.221,-0.558,-1.051,-0.177,0.634,-0.219,-0.024
591,-0.073,-0.193,0.14,-0.558,-1.051,-0.177,0.642,-0.229,-0.042
592,-0.457,-0.268,0.119,-0.807,-1.04,0.028,0.637,-0.211,-0.021
593,-0.654,-0.298,0.086,-0.889,-1.037,0.113,0.637,-0.211,-0.021
594,-0.615,-0.175,0.09,-0.881,-0.981,0.049,0.625,-0.223,-0.027
595,-0.41,0.096,0.184,-0.824,-0.92,0.02,0.64,-0.223,-0.039
596,-0.014,0.392,0.256,-0.736,-0.893,-0.009,0.628,-0.226,-0.063
597,0.082,0.435,0.235,-0.659,-0.843,-0.02,0.615,-0.228,-0.042
598,0.051,0.364,0.248,-0.669,-0.867,-0.056,0.625,-0.232,-0.045
599,0.028,0.198,0.298,-0.783,-0.941,-0.113,0.631,-0.214,-0.052
600,-0.063,-0.15,0.317,-0.838,-0.945,-0.076,0.604,-0.219,-0.048
601,-0.152,-0.308,0.308,-0.792,-0.902,-0.038,0.607,-0.231,-0.043
602,-0.138,-0.317,0.416,-0.692,-0.841,-0.051,0.607,-0.231,-0.043
603,-0.236,-0.227,0.301,-0.592,-0.825,-0.03,0.612,-0.223,-0.058
604,-0.277,0.045,0.144,-0.453,-0.785,-0.01,0.586,-0.217,-0.057
605,-0.277,0.187,0.075,-0.342,-0.734,0.027,0.604,-0.24,-0.04
606,-0.289,0.27,0.02,-0.307,-0.669,0.071,0.594,-0.241,-0.043
607,-0.289,0.352,-0.014,-0.243,-0.435,0.042,0.595,-0.241,-0.064
608,-0.219,0.48,-0.128,-0.244,-0.392,0.04,0.601,-0.241,-0.043
609,-0.187,0.609,-0.108,-0.244,-0.392,0.04,0.594,-0.238,-0.055
610,-0.128,0.56,-0.135,-0.336,-0.387,0.128,0.597,-0.21,-0.055
611,-0.076,0.466,-0.073,-0.35,-0.455,0.181,0.6,-0.241,-0.066
612,-0.021,0.424,0.029,-0.312,-0.628,0.208,0.589,-0.238,-0.055
613,-0.057,0.384,0.107,-0.327,-0.731,0.271,0.57,-0.247,-0.052
614,-0.17,0.071,0.194,-0.336,-0.822,0.339,0.585,-0.229,-0.04
615,-0.088,-0.321,0.298,-0.34,-0.887,0.289,0.588,-0.24,-0.064
616,-0.182,0.026,0.08,-0.507,-0.947,0.14,0.559,-0.253,-0.046
617,-0.352,0.017,0.135,-0.757,-0.98,0.251,0.583,-0.25,-0.034
618,-0.016,-0.172,0.111,-0.823,-1.05,0.418,0.576,-0.277,-0.046
619,0.009,-0.016,-0.111,-0.915,-0.979,0.009,0.573,-0.249,-0.055
620,-0.474,-0.556,0.025,-0.948,-0.921,-0.341,0.58,-0.253,-0.054
621,-0.629,-0.755,0.011,-0.777,-0.961,-0.276,0.595,-0.256,-0.061
622,-0.421,-0.408,-0.148,-0.629,-0.814,-0.176,0.595,-0.256,-0.061
623,-0.014,-0.12,-0.259,-0.519,-0.711,-0.114,0.603,-0.258,-0.064
624,0.294,-0.115,-0.309,-0.669,-0.894,-0.194,0.609,-0.265,-0.058
625,0.485,-0.343,-0.081,-0.856,-1.01,-0.296,0.616,-0.261,-0.06
626,0.653,-0.34,0.015,-0.856,-1.01,-0.296,0.628,-0.273,-0.06
627,0.725,-0.407,0.055,-0.837,-0.928,-0.266,0.627,-0.255,-0.042
628,0.786,-0.463,0.066,-0.65,-0.802,-0.167,0.633,-0.249,-0.042
629,0.863,-0.408,0.027,-0.561,-0.796,-0.114,0.645,-0.234,-0.022
630,0.858,-0.402,-0.093,-0.511,-0.838,-0.071,0.652,-0.226,-0.003
631,0.9,-0.36,-0.245,-0.465,-0.756,-0.091,0.655,-0.223,0.006
632,1.001,-0.298,-0.432,-0.451,-0.653,-0.123,0.666,-0.211,0.007
633,0.967,-0.229,-0.389,-0.43,-0.69,-0.124,0.661,-0.18,0.015
634,1.031,-0.147,-0.375,-0.462,-0.739,-0.175,0.688,-0.184,0.049
635,0.977,-0.177,-0.298,-0.475,-0.729,-0.127,0.705,-0.175,0.04
636,0.804,-0.144,-0.188,-0.508,-0.735,-0.037,0.708,-0.148,0.063
637,0.624,-0.245,-0.154,-0.51,-0.778,-0.059,0.688,-0.147,0.06
638,0.5,-0.327,-0.149,-0.435,-0.777,-0.075,0.688,-0.147,0.06
639,0.452,-0.38,-0.111,-0.432,-0.816,-0.05,0.693,-0.138,0.064
640,0.448,-0.461,0.0,-0.448,-0.884,-0.026,0.732,-0.129,0.078
641,0.463,-0.464,0.109,-0.442,-0.927,-0.019,0.738,-0.12,0.075
642,0.483,-0.329,0.102,-0.351,-0.928,-0.046,0.736,-0.132,0.066
643,0.427,-0.112,0.121,-0.378,-0.935,-0.057,0.729,-0.108,0.075
644,0.34,-0.019,0.152,-0.378,-0.935,-0.057,0.735,-0.105,0.088
645,0.229,-0.016,0.17,-0.393,-0.972,-0.014,0.727,-0.099,0.099
646,0.153,0.036,0.282,-0.37,-1.085,0.001,0.745,-0.081,0.114
647,0.119,0.039,0.305,-0.402,-1.14,-0.071,0.753,-0.094,0.088
648,0.522,0.679,0.655,-0.314,-1.139,-0.28,0.745,-0.105,0.1
649,-0.044,0.381,0.399,-0.327,-1.149,-0.282,0.723,-0.088,0.094
650,-0.685,-0.048,0.315,-0.576,-1.001,-0.186,0.706,-0.112,0.115
651,-1.221,-0.326,0.303,-0.791,-0.941,-0.281,0.706,-0.112,0.115
652,-1.549,0.144,0.163,-0.864,-1.061,-0.268,0.709,-0.115,0.094
653,-1.442,0.374,0.088,-0.804,-1.065,-0.199,0.73,-0.154,0.058
654,-1.132,0.428,-0.016,-0.684,-1.025,-0.149,0.717,-0.177,0.06
655,-1.053,0.385,-0.154,-0.563,-0.924,-0.095,0.715,-0.178,0.04
656,-1.098,0.48,-0.257,-0.614,-0.793,-0.09,0.717,-0.192,0.046
657,-1.066,0.612,-0.179,-0.661,-0.836,-0.143,0.712,-0.189,0.037
658,-0.821,0.66,0.061,-0.582,-0.918,-0.142,0.705,-0.216,-0.01
659,-0.558,0.533,0.394,-0.52,-0.909,-0.039,0.708,-0.216,-0.006
660,-0.412,0.505,0.429,-0.573,-0.658,-0.016,0.7,-0.232,-0.004
661,-0.321,0.622,0.338,-0.573,-0.658,-0.016,0.688,-0.253,-0.019
662,-0.147,0.676,0.308,-0.454,-0.584,-0.042,0.658,-0.265,-0.003
663,-0.13,0.418,0.14,-0.339,-0.575,-0.024,0.651,-0.271,-0.016
664,0.296,0.61,0.361,-0.331,-0.481,0.038,0.669,-0.27,-0.013
665,0.559,0.657,0.443,-0.384,-0.539,0.092,0.643,-0.246,-0.01
666,0.798,0.965,0.33,-0.312,-0.669,0.051,0.643,-0.246,-0.01
667,0.523,0.728,0.349,-0.19,-0.645,0.025,0.631,-0.247,0.004
668,-0.15,0.102,0.453,-0.328,-0.576,0.091,0.597,-0.228,0.025
669,-0.564,-0.28,0.627,-0.452,-0.55,0.103,0.601,-0.243,0.019
670,-0.89,-0.38,0.707,-0.386,-0.666,0.141,0.579,-0.255,0.019
671,-0.891,-0.229,0.875,-0.33,-0.87,0.248,0.576,-0.264,-0.006
672,-0.88,-0.219,1.045,-0.266,-1.021,0.327,0.583,-0.265,-0.01
673,-0.899,-0.27,1.003,-0.171,-1.066,0.278,0.552,-0.28,-0.022
674,-0.779,0.142,0.796,-0.28,-1.193,0.219,0.543,-0.282,-0.045
675,-0.404,0.203,0.52,-0.462,-1.365,0.322,0.537,-0.303,-0.022
676,-0.235,-0.051,0.153,-0.464,-1.447,0.136,0.523,-0.307,-0.082
677,0.031,-0.051,0.075,-0.408,-1.315,-0.04,0.516,-0.31,-0.076
678,-0.396,-0.205,0.088,-0.252,-0.975,-0.014,0.507,-0.307,-0.057
679,-0.499,-0.231,0.093,-0.252,-0.975,-0.014,0.519,-0.298,-0.085
680,-0.096,-0.198,0.1,-0.326,-0.964,-0.089,0.519,-0.298,-0.085
681,0.31,-0.17,0.063,-0.292,-0.872,-0.112,0.505,-0.319,-0.075
682,0.519,-0.14,0.148,-0.29,-0.884,-0.123,0.505,-0.319,-0.075
683,0.456,-0.229,0.29,-0.28,-0.914,-0.066,0.504,-0.346,-0.073
684,0.366,-0.357,0.378,-0.26,-0.935,-0.009,0.522,-0.313,-0.046
685,0.389,-0.385,0.319,-0.249,-0.962,-0.022,0.507,-0.313,-0.052
686,0.449,-0.435,0.195,-0.181,-0.961,-0.073,0.486,-0.309,-0.043
687,0.459,-0.531,0.033,-0.107,-0.916,-0.071,0.514,-0.297,-0.042
688,0.454,-0.49,-0.056,-0.118,-0.929,-0.055,0.501,-0.328,-0.033
689,0.478,-0.429,-0.074,-0.136,-0.962,-0.074,0.498,-0.301,-0.019
690,0.551,-0.302,-0.049,-0.114,-0.937,-0.057,0.519,-0.283,-0.039
691,0.585,-0.318,-0.132,-0.17,-0.873,-0.013,0.523,-0.295,-0.021
692,0.55,-0.303,-0.214,-0.179,-0.806,0.021,0.516,-0.292,0.001
693,0.518,-0.373,-0.269,-0.209,-0.811,0.006,0.541,-0.289,-0.003
694,0.443,-0.397,-0.22,-0.165,-0.861,-0.007,0.541,-0.289,-0.003
695,0.347,-0.314,-0.189,-0.042,-0.906,0.016,0.553,-0.279,0.04
696,0.286,-0.202,-0.224,-0.057,-0.918,0.043,0.553,-0.279,0.04
697,0.357,-0.095,-0.23,-0.057,-0.918,0.043,0.54,-0.271,0.013
698,0.284,-0.068,-0.129,0.013,-0.923,0.092,0.562,-0.267,0.03
699,0.258,-0.093,-0.028,0.001,-0.98,0.073,0.556,-0.265,0.021
700,0.185,-0.096,-0.015,-0.061,-1.052,0.04,0.568,-0.249,0.037
701,0.061,-0.06,-0.029,-0.022,-1.096,0.119,0.562,-0.25,0.019
702,-0.061,0.015,0.009,0.043,-1.127,0.103,0.567,-0.246,0.04
703,-0.145,0.109,0.046,0.076,-1.103,0.035,0.568,-0.261,0.043
704,-0.309,0.29,0.023,0.046,-1.099,-0.068,0.577,-0.264,0.04
705,-0.352,0.459,-0.001,0.016,-1.102,-0.114,0.549,-0.244,0.028
706,-0.236,0.393,-0.166,-0.071,-1.058,-0.155,0.561,-0.258,-0.003
707,-0.174,0.54,-0.436,-0.292,-1.135,-0.138,0.556,-0.244,0.018
708,-0.492,0.568,-0.466,-0.195,-0.981,0.207,0.555,-0.256,0.003
709,-0.521,0.499,-0.036,-0.345,-1.351,0.019,0.546,-0.27,0.004
710,-0.741,0.165,0.357,-0.434,-1.479,-0.249,0.559,-0.283,-0.015
711,-0.847,0.133,0.54,-0.183,-0.871,-0.097,0.546,-0.285,-0.018
712,-0.812,0.209,0.419,-0.36,-0.976,-0.165,0.538,-0.277,-0.034
713,-0.779,0.129,0.32,-0.418,-1.149,-0.142,0.525,-0.291,-0.063
714,-0.765,0.051,0.263,-0.289,-1.072,-0.049,0.525,-0.291,-0.063
715,-0.744,0.072,0.155,-0.289,-1.072,-0.049,0.495,-0.303,-0.06
716,-0.673,0.151,0.093,-0.253,-1.006,0.008,0.525,-0.31,-0.066
717,-0.58,0.284,0.05,-0.197,-0.925,0.04,0.502,-0.292,-0.091
718,-0.354,0.413,0.085,-0.102,-0.872,-0.057,0.495,-0.292,-0.109
719,-0.122,0.504,0.065,-0.048,-0.813,-0.045,0.511,-0.321,-0.124
720,-0.001,0.531,-0.07,-0.066,-0.752,0.095,0.486,-0.327,-0.13
721,0.107,0.499,-0.287,-0.065,-0.729,0.122,0.495,-0.297,-0.136
722,0.219,0.47,-0.525,-0.085,-0.703,0.118,0.493,-0.322,-0.142
723,-0.017,0.399,-0.744,-0.127,-0.637,0.174,0.495,-0.3,-0.132
724,-0.156,0.329,-0.106,-0.155,-0.527,0.288,0.513,-0.304,-0.147
725,-0.121,0.408,0.015,0.034,-0.394,0.31,0.507,-0.304,-0.139
726,-0.195,0.511,-0.029,0.083,-0.558,0.396,0.514,-0.298,-0.147
727,-0.475,0.492,0.032,-0.075,-0.828,0.511,0.514,-0.298,-0.147
728,-0.736,0.206,0.081,-0.089,-0.896,0.38,0.504,-0.301,-0.144
729,-0.401,0.589,-0.069,-0.243,-1.029,0.217,0.508,-0.298,-0.142
730,-0.199,0.639,0.1,-0.315,-1.108,0.763,0.496,-0.31,-0.175
731,-0.728,0.088,0.226,-0.282,-1.021,0.41,0.507,-0.306,-0.183
732,-0.602,-0.038,0.196,-0.282,-1.021,0.41,0.495,-0.318,-0.171
733,-0.249,0.093,0.196,-0.365,-1.046,-0.195,0.486,-0.286,-0.193
734,-0.337,0.018,0.273,-0.375,-1.165,-0.104,0.502,-0.294,-0.216
735,-0.371,-0.016,0.038,-0.27,-1.235,0.079,0.49,-0.276,-0.216
736,0.099,-0.022,-0.131,-0.191,-1.175,0.027,0.471,-0.319,-0.228
737,0.595,-0.168,-0.234,-0.122,-1.04,0.037,0.492,-0.292,-0.211
738,0.816,-0.259,-0.256,-0.08,-0.905,-0.016,0.48,-0.318,-0.207
739,0.863,-0.143,-0.281,-0.093,-1.002,-0.118,0.477,-0.289,-0.186
740,0.842,-0.105,-0.205,-0.182,-1.07,-0.12,0.507,-0.279,-0.186
741,0.781,-0.118,-0.178,-0.222,-1.008,-0.069,0.507,-0.279,-0.186
742,0.756,-0.249,-0.226,-0.206,-0.972,-0.013,0.492,-0.283,-0.163
743,0.66,-0.326,-0.249,-0.249,-0.867,0.032,0.51,-0.285,-0.147
744,0.644,-0.266,-0.262,-0.238,-0.893,0.006,0.496,-0.273,-0.133
745,0.668,-0.273,-0.224,-0.197,-0.95,0.024,0.504,-0.258,-0.139
746,0.638,-0.277,-0.166,-0.182,-0.914,0.065,0.492,-0.255,-0.106
747,0.536,-0.259,-0.123,-0.159,-0.869,0.037,0.507,-0.25,-0.09
748,0.519,-0.211,-0.167,-0.151,-0.814,0.003,0.528,-0.25,-0.082
749,0.515,-0.176,-0.235,-0.151,-0.815,0.015,0.525,-0.244,-0.085
750,0.504,-0.119,-0.281,-0.148,-0.815,0.015,0.529,-0.237,-0.076
751,0.479,-0.07,-0.303,-0.158,-0.83,0.071,0.553,-0.232,-0.079
752,0.445,-0.072,-0.304,-0.142,-0.855,0.098,0.496,-0.232,-0.067
753,0.413,-0.011,-0.243,-0.101,-0.911,0.118,0.552,-0.217,-0.069
754,0.38,0.027,-0.175,-0.07,-0.993,0.13,0.541,-0.21,-0.051
755,0.348,0.049,-0.106,-0.113,-1.027,0.095,0.553,-0.219,-0.057
756,0.249,-0.049,-0.018,-0.152,-1.012,0.118,0.558,-0.225,-0.054
757,0.247,-0.149,0.155,-0.098,-1.034,0.142,0.561,-0.207,-0.052
758,0.196,-0.254,0.381,-0.064,-1.103,0.046,0.568,-0.205,-0.087
759,-0.319,0.077,0.434,-0.111,-1.302,-0.116,0.568,-0.205,-0.087
760,-0.725,0.206,0.413,-0.179,-1.386,-0.127,0.553,-0.205,-0.057
761,-0.949,0.121,0.301,-0.282,-1.228,-0.078,0.555,-0.196,-0.07
762,-0.933,0.159,0.124,-0.424,-1.106,-0.098,0.528,-0.22,-0.076
763,-0.894,0.406,-0.053,-0.541,-1.061,-0.05,0.537,-0.237,-0.105
764,-0.83,0.369,-0.12,-0.522,-1.056,-0.081,0.555,-0.22,-0.085
765,-0.911,0.087,-0.085,-0.436,-1.037,0.07,0.546,-0.228,-0.106
766,-0.963,-0.002,-0.034,-0.413,-1.018,0.084,0.565,-0.231,-0.114
767,-0.885,-0.033,-0.002,-0.413,-1.018,0.084,0.537,-0.229,-0.126
768,-0.808,-0.051,0.046,-0.368,-0.966,0.06,0.535,-0.253,-0.15
769,-0.701,0.046,0.149,-0.272,-0.909,0.059,0.538,-0.255,-0.136
770,-0.662,0.098,0.166,-0.21,-0.851,0.082,0.547,-0.262,-0.178
771,-0.654,0.185,0.118,-0.151,-0.746,0.188,0.543,-0.259,-0.187
772,-0.639,0.116,0.248,-0.134,-0.846,0.129,0.54,-0.261,-0.178
773,-0.368,0.161,0.457,-0.031,-0.904,0.079,0.55,-0.262,-0.196
774,-0.103,0.321,0.403,-0.016,-0.72,0.235,0.546,-0.255,-0.201
775,-0.025,0.392,0.265,-0.17,-0.813,0.226,0.499,-0.24,-0.192
776,0.204,0.324,0.273,-0.189,-0.84,0.203,0.499,-0.24,-0.192
777,0.93,-0.07,0.329,-0.208,-0.657,0.26,0.538,-0.24,-0.201
778,0.428,0.043,0.416,-0.073,-0.667,0.396,0.505,-0.25,-0.18
779,0.029,0.224,0.329,-0.008,-0.738,0.466,0.505,-0.25,-0.18
780,-0.032,0.326,0.207,-0.058,-0.78,0.407,0.51,-0.25,-0.174
781,0.035,0.198,0.28,-0.009,-0.813,0.46,0.493,-0.24,-0.175
782,-0.078,0.004,0.418,0.018,-0.889,0.535,0.487,-0.253,-0.183
783,-0.372,0.297,0.464,-0.169,-1.31,0.472,0.498,-0.246,-0.19
784,-0.567,0.515,0.395,-0.219,-1.327,0.671,0.456,-0.244,-0.187
785,-0.693,0.251,0.317,-0.219,-1.327,0.671,0.484,-0.261,-0.208
786,-0.259,-0.155,0.145,-0.268,-1.307,0.548,0.465,-0.258,-0.22
787,0.198,-0.348,-0.156,-0.344,-1.113,0.042,0.462,-0.268,-0.21
788,0.179,-0.403,-0.28,-0.345,-0.854,-0.021,0.486,-0.25,-0.222
789,0.249,-0.458,-0.191,-0.23,-0.894,0.137,0.474,-0.253,-0.207
790,0.361,-0.351,-0.114,-0.112,-0.977,0.02,0.474,-0.253,-0.207
791,0.557,-0.361,-0.046,-0.093,-1.031,-0.029,0.489,-0.258,-0.207
792,0.828,-0.616,-0.067,-0.145,-0.985,0.032,0.477,-0.261,-0.156
793,0.911,-0.762,-0.174,-0.205,-0.646,0.078,0.477,-0.261,-0.156
794,0.96,-0.732,-0.284,-0.149,-0.572,-0.048,0.496,-0.24,-0.162
795,1.157,-0.749,-0.406,-0.032,-0.894,-0.182,0.501,-0.249,-0.138
796,0.992,-0.578,-0.216,0.015,-1.007,-0.155,0.505,-0.261,-0.129
797,0.832,-0.658,-0.483,-0.06,-0.952,-0.125,0.513,-0.243,-0.096
798,0.749,-0.863,-1.237,-0.044,-1.035,-0.076,0.522,-0.217,-0.066
799,0.676,-0.452,-1.184,0.012,-1.212,-0.04,0.556,-0.211,-0.069
800,0.736,-0.176,-0.774,-0.146,-0.961,-0.309,0.577,-0.205,-0.069
801,0.928,0.247,-0.287,-0.398,-1.594,-0.076,0.589,-0.201,-0.042
802,0.798,-0.084,0.099,-0.398,-1.594,-0.076,0.574,-0.183,-0.028
803,0.635,-0.31,0.072,-0.393,-1.436,-0.003,0.58,-0.166,-0.015
804,0.599,-0.359,0.008,-0.165,-1.193,-0.171,0.55,-0.172,-0.013
805,0.526,-0.374,-0.029,-0.107,-1.26,-0.071,0.567,-0.151,0.0
806,0.477,-0.415,-0.138,-0.101,-1.154,-0.038,0.567,-0.151,0.0
807,0.459,-0.434,-0.262,-0.114,-1.055,-0.055,0.583,-0.148,0.003
808,0.486,-0.446,-0.315,-0.062,-1.063,0.009,0.585,-0.159,0.013
809,0.464,-0.406,-0.295,0.034,-0.959,0.033,0.571,-0.145,0.009
810,0.417,-0.353,-0.169,0.102,-0.96,-0.038,0.595,-0.132,0.027
811,0.274,-0.305,0.047,0.141,-0.933,0.088,0.597,-0.118,0.042
812,0.066,-0.269,0.191,0.149,-0.978,0.1,0.604,-0.13,0.04
813,-0.204,-0.074,0.305,0.159,-1.173,-0.138,0.585,-0.111,0.019
814,-0.413,0.102,0.289,0.034,-1.323,-0.262,0.601,-0.115,0.037
815,-0.567,-0.113,0.193,-0.314,-1.374,-0.099,0.592,-0.127,0.009
816,-0.565,-0.226,0.088,-0.479,-1.285,0.007,0.585,-0.133,0.004
817,-0.585,-0.284,-0.068,-0.401,-1.158,-0.059,0.585,-0.133,0.004
818,-0.356,-0.212,-0.158,-0.32,-1.061,-0.125,0.589,-0.126,0.006
819,-0.286,-0.387,-0.104,-0.175,-1.226,-0.279,0.58,-0.135,0.012
820,-0.548,-0.296,-0.13,-0.175,-1.226,-0.279,0.595,-0.135,-0.01
821,-0.648,-0.013,0.09,-0.349,-1.187,-0.094,0.586,-0.135,-0.024
822,-0.542,-0.038,0.364,-0.507,-1.178,-0.04,0.576,-0.171,-0.01
823,-0.58,-0.032,0.558,-0.403,-1.266,-0.194,0.594,-0.162,-0.043
824,-0.664,0.079,0.55,-0.365,-1.125,-0.102,0.577,-0.169,-0.042
825,-0.616,0.1,0.294,-0.391,-0.939,-0.009,0.574,-0.169,-0.052
826,-0.585,0.085,0.231,-0.259,-0.866,-0.002,0.573,-0.175,-0.045
827,-0.654,0.125,0.319,-0.165,-0.769,0.028,0.556,-0.177,-0.045
828,-0.647,0.233,0.364,-0.178,-0.744,-0.001,0.561,-0.193,-0.052
829,-0.461,0.473,0.291,-0.19,-0.843,-0.043,0.555,-0.183,-0.072
830,-0.358,0.524,0.299,-0.107,-0.765,-0.016,0.537,-0.211,-0.085
831,-0.487,0.567,0.415,-0.077,-0.653,0.089,0.522,-0.219,-0.099
832,-0.646,0.555,0.561,-0.082,-0.696,0.118,0.514,-0.208,-0.112
833,-0.886,0.693,0.47,-0.016,-0.814,0.089,0.514,-0.208,-0.112
834,-0.865,0.882,0.158,0.045,-0.933,0.19,0.49,-0.205,-0.126
835,-0.395,0.657,0.078,0.117,-0.888,0.335,0.493,-0.216,-0.127
836,-0.014,0.315,0.197,0.226,-0.779,0.604,0.484,-0.214,-0.139
837,0.228,-0.087,0.292,0.067,-0.872,0.393,0.48,-0.208,-0.151
838,-0.336,0.525,0.538,0.067,-0.872,0.393,0.486,-0.219,-0.139
839,-0.782,0.362,0.572,-0.124,-1.116,0.519,0.478,-0.225,-0.147
840,-0.513,-0.165,0.375,-0.277,-1.101,0.716,0.454,-0.213,-0.147
841,-0.141,-0.085,0.036,-0.444,-1.282,0.155,0.435,-0.235,-0.154
842,0.041,-0.411,-0.162,-0.431,-1.314,-0.047,0.444,-0.24,-0.147
843,0.415,-0.576,-0.326,-0.245,-1.067,-0.007,0.442,-0.231,-0.144
844,0.543,-0.23,-0.402,-0.137,-1.034,-0.149,0.432,-0.24,-0.154
845,0.497,0.043,-0.347,-0.119,-1.106,-0.115,0.453,-0.228,-0.151
846,0.539,0.213,-0.142,-0.15,-1.111,-0.11,0.451,-0.261,-0.141
847,0.994,0.026,0.106,-0.198,-1.02,-0.092,0.454,-0.226,-0.132
848,1.267,-0.405,0.455,-0.191,-0.935,-0.031,0.442,-0.24,-0.138
849,1.367,-0.955,0.809,0.076,-0.976,-0.021,0.442,-0.226,-0.09
850,1.372,-1.309,0.594,0.164,-1.116,-0.186,0.441,-0.208,-0.078
851,1.253,-1.236,0.193,-0.109,-1.274,-0.315,0.43,-0.204,-0.063
852,0.638,-1.101,-0.448,-0.38,-1.329,-0.226,0.427,-0.183,-0.039
853,0.714,-0.658,-0.947,-0.34,-0.236,-0.075,0.427,-0.183,-0.039
854,0.881,0.282,-1.348,0.156,-0.921,-0.059,0.451,-0.171,-0.016
855,0.13,0.135,-1.179,-0.449,0.694,-0.076,0.492,-0.18,-0.012
856,0.466,-0.431,-1.42,-0.449,0.694,-0.076,0.49,-0.162,0.004
857,0.606,-0.381,-1.296,-0.674,1.14,-0.456,0.514,-0.171,0.022
858,0.119,-0.308,-0.725,-0.469,-0.12,-0.49,0.532,-0.154,0.012
859,0.07,-0.329,-0.528,-0.427,-0.952,-0.165,0.544,-0.148,0.025
860,0.077,-0.287,-0.49,-0.302,-1.108,-0.059,0.553,-0.163,0.025
861,0.073,-0.14,-0.397,-0.21,-0.693,-0.004,0.568,-0.168,0.001
862,0.585,-0.234,-0.397,-0.111,-0.744,0.015,0.576,-0.151,0.033
863,0.327,-0.315,-0.31,-0.013,-0.99,0.156,0.564,-0.144,0.036
864,0.184,-0.332,-0.088,0.05,-1.069,0.169,0.591,-0.151,0.01
865,0.056,-0.111,0.192,0.119,-1.12,-0.007,0.589,-0.142,0.019
866,-0.242,0.205,0.254,0.242,-1.062,0.079,0.586,-0.15,0.051
867,-0.455,0.121,0.254,0.166,-1.076,0.25,0.586,-0.148,0.021
868,-0.611,-0.122,0.056,-0.067,-1.2,0.141,0.604,-0.138,0.012
869,-0.772,-0.094,0.051,-0.051,-1.284,-0.151,0.577,-0.153,0.021
870,-0.966,-0.018,0.508,0.074,-1.341,-0.132,0.577,-0.153,0.021
871,-1.082,-0.4,0.647,-0.5,-1.16,0.123,0.583,-0.162,0.016
872,-0.994,-0.6,0.595,-0.543,-1.317,-0.106,0.562,-0.199,-0.019
873,-0.43,-1.648,1.652,-0.543,-1.317,-0.106,0.562,-0.199,-0.019
874,-0.641,-1.544,2.057,-0.459,-1.308,-0.177,0.582,-0.213,-0.046
875,-0.921,-1.433,1.612,-0.13,-1.171,-0.101,0.567,-0.214,-0.069
876,-0.921,-1.058,0.815,0.06,-1.208,0.093,0.556,-0.21,-0.076
877,-0.912,-0.336,0.79,0.049,-1.017,0.209,0.529,-0.228,-0.072
878,-0.969,0.07,1.262,0.024,-0.957,-0.022,0.535,-0.237,-0.09
879,-0.656,0.46,1.675,-0.187,-1.023,-0.124,0.502,-0.246,-0.099
880,-0.27,0.728,1.918,-0.204,-0.994,0.157,0.483,-0.235,-0.108
881,0.151,0.889,2.36,-0.024,-1.135,0.213,0.45,-0.219,-0.138
882,0.4,1.18,2.458,0.012,-1.163,-0.019,0.39,-0.225,-0.12
883,0.295,1.148,2.411,0.124,-0.966,-0.127,0.369,-0.201,-0.118
884,0.324,0.913,1.99,0.134,-0.816,0.033,0.327,-0.19,-0.142
885,0.366,0.877,1.423,-0.005,-0.752,-0.091,0.327,-0.19,-0.142
886,0.427,0.844,0.742,0.097,-0.827,-0.162,0.304,-0.177,-0.136
887,0.39,0.643,0.103,0.094,-0.867,0.055,0.282,-0.126,-0.121
888,0.481,0.276,-0.135,0.103,-0.785,0.179,0.283,-0.135,-0.16
889,0.504,0.201,-0.257,0.333,-0.644,0.206,0.262,-0.148,-0.147
890,0.527,0.52,-0.525,0.322,-0.654,0.205,0.252,-0.136,-0.133
891,0.561,0.868,-0.733,0.322,-0.654,0.205,0.25,-0.124,-0.15
892,0.681,1.015,-0.391,0.4,-0.733,0.299,0.258,-0.121,-0.132
893,0.403,1.024,0.04,0.608,-0.765,0.47,0.264,-0.153,-0.142
894,0.081,0.833,0.415,1.013,-0.861,0.638,0.258,-0.124,-0.153
895,-0.165,0.877,0.517,1.277,-1.166,0.73,0.243,-0.135,-0.144
896,-0.035,0.653,0.225,0.869,-0.945,0.821,0.216,-0.109,-0.172
897,0.341,0.494,-0.107,0.237,-0.434,0.766,0.223,-0.109,-0.186
898,0.294,0.412,-0.392,-0.109,-0.627,0.355,0.22,-0.105,-0.168
899,-0.212,0.165,-0.336,-0.131,-1.45,-0.02,0.216,-0.096,-0.196
900,-0.193,-0.674,-0.469,0.157,-1.824,0.251,0.214,-0.1,-0.184
901,0.142,-0.472,-0.858,0.059,-1.05,0.094,0.241,-0.111,-0.18
902,0.559,-1.15,-1.167,-0.321,-0.429,-0.286,0.237,-0.121,-0.18
903,0.585,-1.5,-1.146,0.007,-0.592,-0.202,0.253,-0.132,-0.156
904,0.632,-0.774,-0.771,0.467,-0.885,-0.401,0.253,-0.132,-0.156
905,0.504,-0.334,-0.525,0.637,-1.327,-0.414,0.289,-0.165,-0.138
906,0.445,-0.142,-0.326,0.323,-0.917,-0.07,0.294,-0.132,-0.13
907,0.588,-0.098,-0.187,0.037,-0.811,0.011,0.301,-0.157,-0.136
908,0.561,-0.497,-0.325,0.037,-0.811,0.011,0.288,-0.148,-0.12
909,0.548,-0.57,-0.352,-0.181,-0.796,0.061,0.312,-0.138,-0.115
910,0.723,-0.778,-0.369,-0.137,-0.861,-0.126,0.322,-0.15,-0.091
911,0.686,-0.833,-0.331,0.222,-0.899,-0.191,0.345,-0.132,-0.069
912,0.521,-0.686,-0.274,0.361,-0.89,-0.096,0.352,-0.118,-0.07
913,0.326,-0.62,-0.123,0.27,-0.925,-0.065,0.364,-0.123,-0.036
914,0.193,-0.66,-0.004,0.198,-0.976,-0.052,0.334,-0.136,-0.039
915,0.135,-0.788,0.035,0.175,-0.947,-0.078,0.354,-0.126,-0.042
916,0.14,-0.718,-0.023,0.255,-0.884,-0.061,0.382,-0.121,-0.048
917,0.294,-0.575,-0.065,0.408,-0.835,-0.019,0.378,-0.127,-0.012
918,0.415,-0.619,-0.242,0.428,-0.851,0.014,0.385,-0.106,-0.016
919,0.487,-0.681,-0.273,0.308,-0.934,0.041,0.402,-0.123,-0.003
920,0.442,-0.62,-0.302,0.279,-1.034,0.039,0.402,-0.123,-0.003
921,0.295,-0.588,-0.27,0.314,-0.991,0.037,0.411,-0.1,0.01
922,0.197,-0.472,-0.284,0.408,-0.875,0.032,0.405,-0.108,0.009
923,0.145,-0.403,-0.238,0.536,-0.869,0.01,0.429,-0.096,0.007
924,0.001,-0.282,-0.126,0.509,-0.971,0.025,0.447,-0.085,0.024
925,-0.124,-0.025,-0.021,0.48,-1.041,0.007,0.439,-0.106,0.039
926,-0.318,0.262,0.205,0.48,-1.041,0.007,0.448,-0.07,0.021
927,-0.529,0.469,0.412,0.541,-1.153,-0.059,0.444,-0.094,0.018
928,-0.847,0.62,0.617,0.558,-1.254,0.013,0.436,-0.094,0.027
929,-1.403,0.526,0.7,0.366,-1.29,0.217,0.426,-0.096,0.016
930,-1.794,0.245,0.645,0.19,-1.292,0.246,0.406,-0.111,0.009
931,-1.912,0.166,0.697,0.119,-1.171,0.135,0.412,-0.121,-0.033
932,-1.719,0.507,0.695,0.207,-1.225,0.06,0.387,-0.153,-0.076
933,-1.539,0.595,0.685,0.314,-1.361,-0.038,0.387,-0.153,-0.076
934,-1.38,0.029,0.817,0.102,-1.185,0.003,0.378,-0.151,-0.094
935,-1.231,-0.745,1.162,-0.144,-1.023,0.268,0.372,-0.154,-0.1
936,-1.147,-1.183,1.983,0.057,-1.103,0.301,0.355,-0.168,-0.115
937,-1.039,-0.909,2.074,0.458,-1.144,0.098,0.346,-0.151,-0.127
938,-0.872,-0.783,1.696,0.535,-1.021,0.083,0.339,-0.139,-0.114
939,-0.627,-0.485,1.124,0.384,-0.936,0.06,0.318,-0.133,-0.133
940,-0.389,-0.127,0.924,0.284,-0.801,-0.041,0.336,-0.138,-0.144
941,-0.199,0.374,0.865,0.477,-0.744,-0.05,0.319,-0.129,-0.115
942,0.022,0.499,0.675,0.546,-0.547,0.143,0.292,-0.118,-0.136
943,0.254,0.215,0.706,0.546,-0.547,0.143,0.286,-0.115,-0.144
944,0.408,0.273,0.614,0.389,-0.508,0.165,0.28,-0.118,-0.142
945,0.429,0.372,0.236,0.267,-0.461,0.133,0.264,-0.094,-0.145
946,0.597,0.497,-0.22,0.202,-0.268,0.068,0.268,-0.093,-0.13
947,0.808,0.371,-0.445,0.142,-0.157,0.063,0.276,-0.091,-0.144
948,0.901,0.365,-0.46,0.391,-0.243,0.195,0.277,-0.097,-0.15
949,0.849,0.427,-0.367,0.635,-0.299,0.374,0.274,-0.078,-0.129
950,0.631,0.346,-0.182,0.676,-0.337,0.562,0.283,-0.081,-0.138
951,0.288,0.576,0.226,0.894,-0.41,0.733,0.283,-0.081,-0.138
952,0.252,1.007,0.794,1.336,-0.799,0.739,0.267,-0.081,-0.132
953,0.121,0.388,0.686,1.428,-1.128,0.8,0.262,-0.087,-0.145
954,0.198,-0.41,0.292,0.643,-0.73,0.984,0.261,-0.061,-0.133
955,-0.245,0.16,-0.121,0.081,-0.705,0.415,0.258,-0.076,-0.145
956,-0.646,-0.394,-0.191,0.478,-1.364,-0.127,0.253,-0.096,-0.145
957,-0.541,-0.602,-0.301,0.813,-1.311,-0.223,0.261,-0.078,-0.138
958,-0.286,-0.794,-0.441,0.395,-0.956,-0.229,0.271,-0.106,-0.148
959,0.017,-1.228,-0.667,0.408,-0.845,-0.284,0.255,-0.111,-0.118
960,0.38,-1.197,-0.723,0.661,-0.912,-0.285,0.295,-0.1,-0.135
961,0.676,-0.784,-0.659,0.661,-0.912,-0.285,0.304,-0.099,-0.112
962,0.907,-0.431,-0.656,0.732,-0.851,-0.154,0.306,-0.097,-0.091
963,0.975,-0.022,-0.671,0.639,-0.815,-0.113,0.321,-0.105,-0.096
964,1.0,0.149,-0.667,0.608,-0.936,-0.109,0.34,-0.099,-0.094
965,0.812,-0.035,-0.721,0.573,-0.946,-0.041,0.333,-0.1,-0.078
966,0.68,-0.463,-0.652,0.298,-0.853,0.108,0.36,-0.117,-0.072
967,0.632,-0.459,-0.616,0.287,-0.757,0.093,0.364,-0.109,-0.067
968,0.613,-0.389,-0.591,0.497,-0.715,-0.067,0.364,-0.109,-0.067
969,0.55,-0.578,-0.485,0.434,-0.676,-0.078,0.364,-0.102,-0.048
970,0.38,-0.728,-0.37,0.454,-0.69,-0.015,0.381,-0.094,-0.061
971,0.407,-0.539,-0.318,0.453,-0.748,0.0,0.376,-0.102,-0.037
972,0.44,-0.415,-0.456,0.374,-0.774,-0.08,0.393,-0.103,-0.019
973,0.405,-0.639,-0.942,0.249,-0.765,-0.105,0.402,-0.085,-0.015
974,0.359,-0.481,-1.4,0.114,-0.745,-0.035,0.429,-0.096,0.019
975,0.355,-0.095,-1.444,0.309,-0.858,-0.011,0.442,-0.082,0.01
976,0.343,-0.369,-1.093,0.622,-0.992,0.227,0.45,-0.09,0.015
977,0.298,-0.581,-0.688,0.757,-0.968,-0.015,0.478,-0.111,0.012
978,0.177,-0.588,-0.48,0.757,-0.968,-0.015,0.496,-0.091,0.004
979,0.07,-0.547,-0.423,0.742,-0.93,-0.026,0.51,-0.097,0.006
980,0.002,-0.406,-0.241,0.678,-0.86,-0.019,0.507,-0.085,0.039
981,-0.085,-0.436,-0.054,0.627,-0.829,0.015,0.508,-0.1,0.019
982,-0.247,-0.348,0.023,0.513,-0.85,0.119,0.508,-0.1,0.019
983,-0.44,-0.017,0.214,0.57,-0.986,0.113,0.525,-0.1,0.024
984,-0.588,0.362,0.438,0.715,-1.085,-0.05,0.519,-0.093,0.016
985,-0.777,0.786,0.572,0.726,-1.101,-0.075,0.546,-0.093,-0.003
986,-1.068,0.809,0.736,0.661,-1.091,-0.021,0.51,-0.105,-0.004
987,-1.106,0.788,0.778,0.498,-1.097,0.075,0.517,-0.123,-0.028
988,-1.061,0.528,0.443,0.252,-1.213,0.099,0.481,-0.115,-0.027
989,-1.07,0.065,0.211,-0.065,-1.296,0.015,0.469,-0.159,-0.052
990,-1.29,-0.436,0.006,-0.143,-1.195,-0.28,0.477,-0.178,-0.075
991,-1.207,-0.399,0.016,0.072,-1.057,-0.313,0.471,-0.169,-0.085
992,-1.005,-0.823,0.228,0.36,-1.297,0.122,0.478,-0.189,-0.085
993,-0.531,-1.041,0.417,0.663,-1.52,0.227,0.468,-0.201,-0.102
994,-0.368,-0.452,0.523,0.448,-1.25,0.18,0.492,-0.187,-0.102
995,-0.307,-0.136,0.642,0.482,-1.252,0.28,0.477,-0.187,-0.114
996,-0.209,-0.125,0.616,0.482,-1.252,0.28,0.465,-0.187,-0.111
997,-0.138,0.336,0.608,0.403,-1.102,0.095,0.468,-0.198,-0.102
998,-0.081,0.609,0.435,0.344,-0.995,-0.054,0.45,-0.201,-0.12
999,-0.106,0.872,0.352,0.341,-0.815,0.0,0.45,-0.201,-0.12
1000,-0.048,0.904,0.253,0.278,-0.68,-0.062,0.438,-0.199,-0.124
1001,0.04,0.937,0.166,0.089,-0.558,-0.135,0.447,-0.163,-0.129
1002,0.132,1.168,0.04,0.071,-0.524,-0.14,0.436,-0.183,-0.132
1003,0.199,1.042,0.007,-0.171,-0.395,-0.235,0.411,-0.172,-0.124
1004,0.223,1.22,-0.093,-0.115,-0.326,-0.075,0.399,-0.192,-0.138
1005,0.285,0.954,-0.347,0.401,-0.554,0.296,0.411,-0.18,-0.144
1006,0.248,0.82,-0.323,0.645,-0.636,0.505,0.39,-0.184,-0.147
1007,0.018,0.87,0.036,0.795,-0.621,0.624,0.369,-0.178,-0.15
1008,0.155,0.873,0.562,0.996,-0.915,0.696,0.373,-0.18,-0.145
1009,0.334,0.543,0.679,0.933,-1.218,0.621,0.381,-0.168,-0.151
1010,0.311,-0.209,0.486,0.585,-1.006,0.616,0.357,-0.193,-0.147
1011,0.207,0.453,0.142,0.256,-0.777,0.682,0.361,-0.169,-0.151
1012,-0.102,0.249,0.016,0.016,-1.14,0.188,0.361,-0.169,-0.151
1013,-0.163,-0.283,-0.243,0.165,-1.477,0.054,0.354,-0.177,-0.16
1014,-0.005,-0.149,-0.618,0.179,-1.143,0.008,0.352,-0.16,-0.157
1015,0.158,-0.119,-0.911,-0.081,-0.702,-0.283,0.351,-0.172,-0.16
1016,0.434,-0.28,-0.859,0.08,-0.828,-0.25,0.358,-0.156,-0.147
1017,0.62,-0.074,-0.717,0.415,-1.08,-0.253,0.378,-0.174,-0.157
1018,0.637,0.121,-0.727,0.533,-1.124,-0.146,0.364,-0.175,-0.15
1019,0.676,0.207,-0.812,0.403,-1.0,-0.086,0.387,-0.153,-0.135
1020,0.754,0.221,-0.799,0.325,-0.939,-0.092,0.406,-0.174,-0.114
1021,0.672,0.264,-0.595,0.262,-0.976,-0.095,0.427,-0.163,-0.109
1022,0.602,0.177,-0.521,0.105,-0.948,-0.054,0.43,-0.193,-0.129
1023,0.539,0.114,-0.52,0.068,-0.932,-0.021,0.424,-0.175,-0.12
1024,0.552,0.016,-0.527,0.178,-0.96,-0.013,0.433,-0.174,-0.1
1025,0.572,-0.065,-0.533,0.245,-0.929,0.012,0.438,-0.154,-0.106
1026,0.546,-0.116,-0.445,0.255,-0.876,-0.017,0.439,-0.157,-0.102
1027,0.483,-0.091,-0.431,0.254,-0.823,-0.029,0.459,-0.166,-0.075
1028,0.436,-0.01,-0.417,0.202,-0.816,0.007,0.463,-0.151,-0.073
1029,0.42,0.042,-0.368,0.153,-0.856,0.014,0.463,-0.151,-0.073
1030,0.381,-0.032,-0.336,0.175,-0.923,0.04,0.471,-0.166,-0.085
1031,0.352,-0.2,-0.367,0.144,-0.894,0.033,0.463,-0.135,-0.069
1032,0.317,-0.303,-0.385,0.144,-0.894,0.033,0.49,-0.16,-0.073
1033,0.267,-0.397,-0.367,0.179,-0.941,0.04,0.499,-0.138,-0.061
1034,0.22,-0.452,-0.374,0.265,-1.011,0.028,0.504,-0.15,-0.064
1035,0.143,-0.343,-0.333,0.35,-1.014,0.018,0.516,-0.15,-0.057
1036,0.065,-0.2,-0.252,0.431,-0.962,0.035,0.526,-0.147,-0.06
1037,-0.058,0.09,-0.191,0.457,-0.976,0.091,0.522,-0.154,-0.063
1038,-0.224,0.382,-0.087,0.531,-0.957,0.104,0.517,-0.154,-0.049
1039,-0.498,0.562,0.036,0.597,-0.899,0.07,0.523,-0.145,-0.057
1040,-0.758,0.627,0.222,0.591,-0.971,0.037,0.51,-0.148,-0.061
1041,-0.873,0.742,0.43,0.552,-1.199,0.042,0.51,-0.153,-0.072
1042,-1.185,0.627,0.639,0.529,-1.278,0.117,0.489,-0.18,-0.069
1043,-1.225,0.436,0.805,0.45,-1.243,0.143,0.478,-0.169,-0.078
1044,-1.122,0.453,0.923,0.318,-1.298,0.08,0.475,-0.193,-0.105
1045,-0.844,0.64,0.919,0.221,-1.276,0.003,0.475,-0.193,-0.105
1046,-0.52,0.901,0.797,0.168,-1.252,-0.136,0.447,-0.189,-0.129
1047,-0.362,0.842,0.847,0.323,-0.947,0.008,0.421,-0.186,-0.142
1048,-0.273,0.422,0.961,0.371,-1.093,0.129,0.396,-0.189,-0.16
1049,-0.277,-0.074,1.06,0.371,-1.093,0.129,0.391,-0.181,-0.166
1050,-0.221,-0.4,1.024,0.329,-1.209,-0.002,0.367,-0.186,-0.156
1051,0.132,-0.317,0.868,0.247,-1.162,-0.084,0.361,-0.166,-0.169
1052,0.389,0.051,0.921,0.156,-1.03,-0.057,0.351,-0.163,-0.175
1053,0.443,0.55,1.009,0.16,-0.986,0.004,0.333,-0.157,-0.153
1054,0.386,0.939,1.01,0.236,-0.986,0.014,0.337,-0.151,-0.175
1055,0.368,1.145,0.905,0.288,-0.925,-0.013,0.315,-0.151,-0.18
1056,0.428,1.323,0.753,0.219,-0.795,0.0,0.297,-0.118,-0.169
1057,0.452,1.192,0.6,0.089,-0.693,0.039,0.283,-0.114,-0.187
1058,0.521,1.01,0.412,0.008,-0.649,0.088,0.288,-0.115,-0.207
1059,0.577,0.812,0.219,-0.028,-0.644,0.141,0.252,-0.108,-0.174
1060,0.594,0.714,0.004,0.018,-0.604,0.18,0.283,-0.103,-0.217
1061,0.563,0.742,-0.196,0.106,-0.538,0.226,0.283,-0.103,-0.217
1062,0.498,0.877,-0.368,0.19,-0.58,0.279,0.27,-0.09,-0.202
1063,0.416,1.086,-0.486,0.36,-0.652,0.343,0.27,-0.09,-0.202
1064,0.392,1.199,-0.42,0.591,-0.739,0.4,0.268,-0.103,-0.201
1065,0.317,1.124,-0.134,0.901,-0.973,0.449,0.244,-0.108,-0.232
1066,0.32,0.817,0.316,0.931,-1.064,0.358,0.255,-0.106,-0.243
1067,0.38,0.557,0.555,0.931,-1.064,0.358,0.262,-0.099,-0.252
1068,0.292,0.406,0.397,0.792,-0.949,0.463,0.256,-0.108,-0.249
1069,0.267,0.475,0.056,0.444,-0.787,0.583,0.24,-0.097,-0.267
1070,0.093,0.662,-0.095,0.221,-1.092,0.263,0.255,-0.103,-0.267
1071,-0.163,-0.13,-0.083,0.101,-1.489,0.073,0.234,-0.084,-0.247
1072,-0.137,-0.574,-0.384,0.104,-1.201,0.103,0.246,-0.096,-0.258
1073,0.052,-0.443,-0.639,0.05,-0.659,-0.135,0.25,-0.106,-0.261
1074,0.378,-0.463,-0.678,-0.106,-0.52,-0.231,0.262,-0.124,-0.255
1075,0.489,-0.263,-0.632,0.246,-0.812,-0.198,0.262,-0.124,-0.255
1076,0.377,0.443,-0.583,0.686,-1.123,-0.223,0.271,-0.112,-0.246
1077,0.378,0.807,-0.491,0.726,-1.158,-0.156,0.274,-0.111,-0.244
1078,0.443,0.865,-0.405,0.514,-1.037,-0.136,0.252,-0.12,-0.237
1079,0.515,0.754,-0.38,0.314,-0.95,-0.121,0.25,-0.135,-0.222
1080,0.576,0.592,-0.392,0.151,-0.942,-0.073,0.28,-0.138,-0.249
1081,0.616,0.457,-0.413,0.044,-0.927,-0.025,0.267,-0.127,-0.238
1082,0.64,0.416,-0.434,0.08,-0.937,0.018,0.267,-0.153,-0.25
1083,0.655,0.348,-0.436,0.212,-0.935,0.037,0.276,-0.138,-0.243
1084,0.665,0.318,-0.497,0.212,-0.935,0.037,0.307,-0.153,-0.241
1085,0.666,0.277,-0.576,0.143,-0.876,0.01,0.277,-0.145,-0.237
1086,0.655,0.182,-0.63,0.091,-0.85,-0.015,0.288,-0.135,-0.232
1087,0.611,0.135,-0.663,0.087,-0.859,-0.03,0.312,-0.147,-0.229
1088,0.58,0.088,-0.653,0.106,-0.874,-0.051,0.318,-0.156,-0.196
1089,0.569,0.041,-0.644,0.104,-0.864,-0.06,0.316,-0.172,-0.211
1090,0.543,-0.073,-0.645,0.109,-0.874,-0.053,0.312,-0.154,-0.205
1091,0.486,-0.217,-0.635,0.138,-0.915,-0.024,0.333,-0.172,-0.201
1092,0.41,-0.304,-0.634,0.168,-0.956,0.0,0.333,-0.172,-0.201
1093,0.331,-0.341,-0.626,0.203,-0.971,0.005,0.345,-0.175,-0.199
1094,0.261,-0.376,-0.574,0.258,-0.964,-0.001,0.346,-0.169,-0.193
1095,0.234,-0.249,-0.485,0.32,-0.977,0.002,0.345,-0.175,-0.198
1096,0.193,0.032,-0.371,0.393,-1.024,-0.005,0.364,-0.183,-0.181
1097,0.131,0.158,-0.327,0.52,-1.024,-0.022,0.363,-0.169,-0.171
1098,0.021,0.304,-0.24,0.507,-1.0,0.017,0.378,-0.181,-0.165
1099,-0.22,0.322,-0.046,0.419,-1.112,0.062,0.354,-0.183,-0.163
1100,-0.448,0.347,0.191,0.599,-1.222,-0.069,0.376,-0.178,-0.171
1101,-0.667,0.491,0.413,0.531,-1.226,0.078,0.355,-0.198,-0.172
1102,-0.845,0.41,0.724,0.531,-1.226,0.078,0.358,-0.184,-0.175
1103,-1.029,0.271,0.968,0.314,-1.216,0.185,0.325,-0.177,-0.201
1104,-1.124,0.274,1.227,0.081,-1.112,0.03,0.312,-0.172,-0.234
1105,-1.066,0.422,1.411,0.089,-1.122,-0.062,0.31,-0.175,-0.232
1106,-0.918,0.494,1.404,0.186,-1.32,-0.064,0.295,-0.157,-0.262
1107,-0.767,0.151,1.248,0.108,-1.399,-0.086,0.259,-0.139,-0.271
1108,-0.528,-0.375,1.265,-0.025,-1.237,0.036,0.259,-0.139,-0.271
1109,-0.362,-0.516,1.34,0.003,-1.086,0.105,0.24,-0.132,-0.289
1110,-0.322,-0.313,1.352,0.215,-1.133,0.039,0.235,-0.114,-0.295
1111,-0.207,-0.045,1.304,0.278,-1.215,0.005,0.222,-0.109,-0.285
1112,-0.123,0.179,1.203,0.171,-1.123,0.032,0.207,-0.078,-0.276
1113,-0.068,0.415,1.123,0.097,-0.992,0.075,0.205,-0.072,-0.28
1114,-0.027,0.741,1.081,0.178,-0.947,0.064,0.183,-0.058,-0.292
1115,0.0,1.005,0.969,0.31,-0.887,0.046,0.195,-0.043,-0.301
1116,0.035,1.07,0.798,0.284,-0.794,0.064,0.169,-0.019,-0.327
1117,0.114,1.015,0.584,0.164,-0.694,0.079,0.165,-0.024,-0.342
1118,0.219,0.907,0.344,0.007,-0.547,0.047,0.181,0.0,-0.351
1119,0.345,0.802,0.105,0.007,-0.547,0.047,0.175,0.006,-0.348
1120,0.495,0.676,-0.099,0.023,-0.496,0.079,0.181,0.01,-0.367
1121,0.639,0.56,-0.263,0.087,-0.436,0.146,0.165,0.025,-0.373
1122,0.756,0.5,-0.419,0.177,-0.381,0.245,0.162,0.0,-0.384
1123,0.75,0.503,-0.54,0.325,-0.387,0.378,0.162,0.0,-0.384
1124,0.546,0.42,-0.52,0.562,-0.469,0.503,0.18,-0.006,-0.403
1125,0.254,0.476,-0.194,0.885,-0.632,0.554,0.171,-0.031,-0.406
1126,0.236,1.077,0.567,1.293,-1.039,0.498,0.175,-0.018,-0.388
1127,0.128,0.975,0.884,1.504,-1.502,0.553,0.19,-0.024,-0.408
1128,0.122,0.146,0.442,1.032,-0.988,0.798,0.196,0.009,-0.42
1129,0.428,0.023,-0.267,0.124,0.004,0.822,0.186,-0.001,-0.42
1130,0.27,1.0,-0.328,-0.408,-0.123,0.05,0.189,-0.001,-0.415
1131,-0.32,-0.558,0.146,-0.014,-1.277,-0.113,0.195,-0.007,-0.43
1132,-0.364,-0.819,-0.095,1.036,-1.776,-0.195,0.195,-0.007,-0.426
1133,-0.21,-0.514,-0.662,0.413,-1.07,-0.127,0.184,0.004,-0.421
1134,0.098,-0.94,-1.042,-0.694,-0.407,0.0,0.186,-0.013,-0.418
1135,0.603,-1.017,-1.016,-0.302,-0.415,-0.442,0.198,0.01,-0.412
1136,0.832,-0.524,-0.922,0.595,-1.401,-0.289,0.207,-0.024,-0.396
1137,0.673,-0.134,-0.721,0.595,-1.401,-0.289,0.207,-0.042,-0.37
1138,0.546,-0.002,-0.58,0.768,-1.347,-0.12,0.207,-0.042,-0.37
1139,0.598,-0.158,-0.494,0.518,-1.106,-0.044,0.214,-0.031,-0.361
1140,0.587,-0.42,-0.589,0.086,-0.864,0.0,0.213,-0.069,-0.355
1141,0.551,-0.542,-0.707,-0.163,-0.779,-0.031,0.204,-0.069,-0.342
1142,0.577,-0.548,-0.738,-0.021,-0.841,-0.119,0.225,-0.063,-0.331
1143,0.576,-0.496,-0.723,0.25,-0.919,-0.114,0.237,-0.094,-0.315
1144,0.626,-0.435,-0.695,0.327,-0.911,-0.099,0.217,-0.09,-0.318
1145,0.639,-0.42,-0.701,0.249,-0.86,-0.068,0.24,-0.097,-0.295
1146,0.572,-0.368,-0.674,0.172,-0.884,-0.05,0.249,-0.105,-0.3
1147,0.439,-0.41,-0.586,0.164,-0.937,-0.045,0.256,-0.132,-0.294
1148,0.342,-0.493,-0.53,0.219,-0.925,-0.028,0.253,-0.117,-0.255
1149,0.277,-0.53,-0.543,0.271,-0.879,-0.031,0.273,-0.099,-0.264
1150,0.238,-0.479,-0.606,0.271,-0.844,-0.054,0.273,-0.099,-0.264
1151,0.112,-0.448,-0.765,0.261,-0.854,-0.076,0.271,-0.138,-0.232
1152,0.187,-0.355,-0.81,0.288,-0.863,-0.118,0.271,-0.138,-0.232
1153,0.18,-0.238,-0.724,0.438,-0.945,-0.168,0.306,-0.139,-0.246
1154,0.099,0.022,-0.574,0.481,-0.906,-0.234,0.306,-0.139,-0.246
1155,0.116,0.288,-0.527,0.481,-0.906,-0.234,0.307,-0.163,-0.264
1156,0.039,0.395,-0.371,0.445,-0.927,-0.132,0.309,-0.168,-0.223
1157,-0.177,0.373,-0.135,0.343,-1.118,0.023,0.34,-0.151,-0.27
1158,-0.367,0.345,0.193,0.397,-1.271,-0.047,0.33,-0.165,-0.267
1159,-0.651,0.344,0.432,0.572,-1.247,-0.042,0.295,-0.15,-0.265
1160,-0.898,0.257,0.776,0.557,-1.259,0.064,0.327,-0.159,-0.273
1161,-1.059,0.149,1.05,0.268,-1.258,0.128,0.298,-0.136,-0.277
1162,-1.098,0.142,1.286,0.082,-1.193,0.05,0.288,-0.129,-0.289
1163,-1.178,0.175,1.466,0.109,-1.301,-0.012,0.316,-0.109,-0.312
1164,-1.181,0.138,1.455,0.072,-1.555,0.035,0.316,-0.109,-0.312
1165,-1.043,-0.222,1.416,-0.077,-1.572,0.049,0.25,-0.088,-0.321
1166,-0.784,-0.697,1.332,-0.215,-1.335,0.123,0.277,-0.087,-0.342
1167,-0.592,-0.798,1.35,-0.137,-1.192,0.142,0.253,-0.055,-0.328
1168,-0.496,-0.549,1.346,0.208,-1.186,0.097,0.253,-0.055,-0.328
1169,-0.405,-0.151,1.253,0.465,-1.144,0.025,0.255,-0.042,-0.339
1170,-0.358,0.266,1.127,0.362,-1.019,0.023,0.247,-0.016,-0.333
1171,-0.293,0.529,1.047,0.19,-0.885,0.049,0.216,0.019,-0.321
1172,-0.224,0.807,0.954,0.19,-0.885,0.049,0.214,0.028,-0.333
1173,-0.167,0.977,0.842,0.208,-0.813,0.024,0.22,0.042,-0.345
1174,-0.064,0.947,0.679,0.184,-0.699,0.015,0.222,0.055,-0.363
1175,0.074,0.841,0.469,0.081,-0.571,0.017,0.22,0.043,-0.366
1176,0.242,0.728,0.228,0.002,-0.461,0.006,0.21,0.055,-0.376
1177,0.417,0.578,0.021,0.003,-0.409,0.028,0.24,0.061,-0.393
1178,0.606,0.452,-0.143,0.039,-0.394,0.088,0.24,0.061,-0.393
1179,0.756,0.441,-0.291,0.11,-0.336,0.147,0.222,0.054,-0.403
1180,0.877,0.557,-0.419,0.235,-0.305,0.224,0.231,0.048,-0.384
1181,0.813,0.544,-0.449,0.509,-0.387,0.39,0.234,0.048,-0.411
1182,0.445,0.22,-0.271,0.895,-0.525,0.579,0.228,0.054,-0.412
1183,0.123,0.631,0.219,1.307,-0.759,0.566,0.22,0.025,-0.402
1184,0.158,1.319,0.778,1.564,-1.248,0.506,0.247,0.022,-0.378
1185,0.008,0.859,0.665,1.284,-1.372,0.677,0.234,0.034,-0.432
1186,0.05,0.023,0.111,0.521,-0.597,0.864,0.24,0.045,-0.447
1187,0.219,0.713,-0.287,-0.276,-0.105,0.527,0.249,0.036,-0.436
1188,-0.102,0.107,0.004,-0.325,-1.059,0.006,0.253,0.04,-0.471
1189,-0.499,-0.812,-0.065,0.387,-1.424,0.338,0.226,0.04,-0.441
1190,-0.322,-0.704,-0.504,0.387,-1.424,0.338,0.226,0.055,-0.441
1191,-0.096,-0.949,-0.97,-0.461,-0.693,-0.311,0.226,0.055,-0.441
1192,0.333,-1.341,-1.103,-0.425,-0.468,-0.344,0.225,0.037,-0.442
1193,0.735,-1.238,-0.952,-0.003,-0.759,-0.365,0.232,0.031,-0.414
1194,0.723,-0.891,-0.756,0.441,-1.275,-0.237,0.265,0.012,-0.415
1195,0.569,-0.555,-0.697,0.782,-1.359,-0.139,0.249,-0.003,-0.376
1196,0.457,-0.392,-0.662,0.644,-1.142,-0.033,0.249,-0.01,-0.369
1197,0.47,-0.391,-0.601,0.327,-0.954,-0.055,0.253,-0.024,-0.355
1198,0.507,-0.628,-0.652,0.089,-0.859,-0.031,0.264,-0.028,-0.354
1199,0.509,-0.702,-0.736,-0.011,-0.835,-0.047,0.246,-0.033,-0.358
1200,0.484,-0.742,-0.73,0.169,-0.89,-0.089,0.252,-0.046,-0.352
1201,0.456,-0.713,-0.707,0.319,-0.913,-0.085,0.28,-0.06,-0.321
1202,0.455,-0.695,-0.662,0.305,-0.877,-0.076,0.262,-0.061,-0.31
1203,0.465,-0.668,-0.627,0.272,-0.836,-0.063,0.276,-0.055,-0.283
1204,0.441,-0.576,-0.634,0.226,-0.842,-0.074,0.276,-0.064,-0.288
1205,0.409,-0.518,-0.666,0.218,-0.874,-0.067,0.276,-0.064,-0.288
1206,0.393,-0.535,-0.708,0.321,-0.856,-0.077,0.28,-0.07,-0.271
1207,0.394,-0.586,-0.729,0.311,-0.863,-0.073,0.298,-0.075,-0.273
1208,0.386,-0.538,-0.737,0.311,-0.863,-0.073,0.31,-0.087,-0.255
1209,0.351,-0.462,-0.726,0.262,-0.905,-0.046,0.31,-0.096,-0.262
1210,0.249,-0.422,-0.69,0.254,-0.95,-0.042,0.325,-0.087,-0.258
1211,0.121,-0.357,-0.613,0.299,-0.975,-0.064,0.337,-0.096,-0.229
1212,0.005,-0.194,-0.5,0.383,-0.969,-0.129,0.337,-0.1,-0.223
1213,0.03,0.109,-0.45,0.488,-0.932,-0.196,0.352,-0.114,-0.213
1214,0.033,0.433,-0.4,0.469,-0.92,-0.105,0.349,-0.106,-0.226
1215,-0.191,0.195,-0.094,0.372,-1.064,0.069,0.361,-0.105,-0.229
1216,-0.549,0.049,0.169,0.393,-1.161,0.09,0.349,-0.126,-0.228
1217,-0.851,0.265,0.382,0.528,-1.108,-0.052,0.355,-0.115,-0.229
1218,-1.062,0.53,0.71,0.694,-1.105,-0.125,0.367,-0.135,-0.247
1219,-0.987,0.28,1.145,0.629,-1.125,-0.02,0.343,-0.112,-0.255
1220,-1.057,0.126,1.381,0.145,-1.219,0.112,0.345,-0.121,-0.267
1221,-1.197,0.109,1.469,-0.117,-1.465,0.105,0.312,-0.106,-0.282
1222,-1.259,-0.09,1.455,-0.078,-1.716,-0.012,0.288,-0.085,-0.283
1223,-1.204,-0.375,1.352,-0.117,-1.709,0.007,0.288,-0.085,-0.283
1224,-0.84,-0.667,1.33,0.057,-1.131,0.154,0.3,-0.076,-0.318
1225,-0.539,-0.885,1.376,0.057,-1.131,0.154,0.274,-0.054,-0.315
1226,-0.478,-0.571,1.396,0.245,-1.096,0.112,0.247,-0.031,-0.292
1227,-0.457,0.067,1.306,0.445,-1.185,0.029,0.229,-0.033,-0.3
1228,-0.41,0.389,1.11,0.412,-1.091,0.022,0.235,-0.033,-0.285
1229,-0.341,0.592,0.982,0.203,-0.949,0.058,0.219,-0.015,-0.301
1230,-0.274,0.796,0.891,0.163,-0.889,0.074,0.232,-0.001,-0.307
1231,-0.195,0.975,0.779,0.201,-0.813,0.05,0.213,0.012,-0.312
1232,-0.099,1.065,0.646,0.183,-0.69,0.0,0.226,0.018,-0.327
1233,0.029,0.989,0.436,0.076,-0.57,0.001,0.226,0.037,-0.33
1234,0.231,0.799,0.224,-0.022,-0.475,0.003,0.207,0.028,-0.352
1235,0.466,0.637,0.05,-0.007,-0.404,0.026,0.204,0.055,-0.382
1236,0.679,0.588,-0.126,0.075,-0.345,0.093,0.222,0.055,-0.376
1237,0.844,0.653,-0.31,0.169,-0.29,0.157,0.21,0.039,-0.363
1238,0.895,0.729,-0.484,0.259,-0.261,0.255,0.21,0.039,-0.363
1239,0.76,0.663,-0.504,0.453,-0.338,0.449,0.229,0.031,-0.396
1240,0.492,0.569,-0.318,0.832,-0.543,0.627,0.211,0.021,-0.372
1241,0.182,0.772,0.065,1.315,-1.224,0.627,0.211,0.021,-0.372
1242,0.16,1.281,0.594,1.038,-1.353,0.616,0.207,0.015,-0.378
1243,0.118,1.011,0.69,1.038,-1.353,0.616,0.223,0.03,-0.396
1244,0.142,0.07,0.214,0.46,-0.764,0.771,0.223,0.03,-0.396
1245,0.016,0.571,-0.093,-0.071,-0.45,0.799,0.223,0.042,-0.438
1246,-0.278,-0.006,0.034,-0.029,-1.223,0.243,0.22,0.043,-0.432
1247,-0.35,-0.581,-0.161,0.538,-1.803,0.038,0.223,0.027,-0.45
1248,-0.154,-0.571,-0.48,0.235,-1.192,-0.02,0.228,0.031,-0.435
1249,0.076,-0.951,-0.823,-0.326,-0.592,-0.253,0.234,0.033,-0.444
1250,0.451,-1.214,-0.952,-0.167,-0.589,-0.315,0.211,0.034,-0.411
1251,0.75,-1.049,-0.866,0.086,-0.935,-0.317,0.24,0.01,-0.406
1252,0.697,-0.702,-0.679,0.483,-1.342,-0.147,0.216,-0.001,-0.387
1253,0.581,-0.487,-0.606,0.724,-1.29,-0.071,0.216,-0.001,-0.387
1254,0.518,-0.384,-0.569,0.515,-1.073,-0.017,0.235,-0.016,-0.378
1255,0.485,-0.34,-0.551,0.25,-0.961,-0.059,0.232,-0.013,-0.351
1256,0.513,-0.6,-0.572,0.12,-0.928,-0.088,0.232,-0.013,-0.351
1257,0.506,-0.705,-0.662,0.018,-0.91,-0.031,0.238,-0.025,-0.328
1258,0.479,-0.693,-0.695,0.104,-0.933,-0.013,0.25,-0.043,-0.354
1259,0.504,-0.641,-0.69,0.304,-0.899,-0.075,0.246,-0.036,-0.342
1260,0.516,-0.614,-0.686,0.256,-0.849,-0.083,0.252,-0.081,-0.3
1261,0.529,-0.621,-0.669,0.256,-0.849,-0.083,0.264,-0.064,-0.294
1262,0.495,-0.533,-0.674,0.209,-0.838,-0.104,0.265,-0.088,-0.3
1263,0.471,-0.436,-0.69,0.199,-0.848,-0.11,0.279,-0.073,-0.289
1264,0.466,-0.422,-0.712,0.252,-0.869,-0.118,0.274,-0.081,-0.279
1265,0.443,-0.476,-0.694,0.3,-0.888,-0.091,0.297,-0.09,-0.274
1266,0.408,-0.501,-0.673,0.282,-0.889,-0.046,0.277,-0.105,-0.271
1267,0.348,-0.534,-0.662,0.212,-0.892,-0.022,0.294,-0.103,-0.243
1268,0.281,-0.495,-0.659,0.19,-0.901,-0.021,0.294,-0.103,-0.243
1269,0.177,-0.45,-0.646,0.241,-0.929,-0.029,0.31,-0.126,-0.256
1270,0.067,-0.41,-0.555,0.324,-0.957,-0.064,0.306,-0.108,-0.235
1271,-0.028,-0.321,-0.415,0.401,-0.949,-0.118,0.312,-0.133,-0.249
1272,-0.08,-0.011,-0.35,0.45,-0.94,-0.15,0.324,-0.136,-0.219
1273,-0.147,0.369,-0.288,0.444,-0.941,-0.085,0.345,-0.126,-0.216
1274,-0.321,0.267,-0.072,0.399,-1.038,0.059,0.349,-0.118,-0.231
1275,-0.604,0.208,0.178,0.443,-1.123,0.055,0.348,-0.141,-0.247
1276,-0.897,0.452,0.33,0.551,-1.066,-0.074,0.337,-0.13,-0.276
1277,-1.04,0.662,0.662,0.596,-1.172,-0.026,0.325,-0.136,-0.262
1278,-0.992,0.322,1.131,0.596,-1.172,-0.026,0.321,-0.115,-0.283
1279,-1.038,0.178,1.332,0.189,-1.293,0.091,0.3,-0.117,-0.297
1280,-1.102,0.115,1.472,-0.045,-1.477,0.037,0.291,-0.085,-0.3
1281,-1.103,-0.059,1.538,0.001,-1.571,-0.077,0.291,-0.085,-0.3
1282,-0.935,-0.326,1.424,-0.01,-1.527,-0.044,0.27,-0.084,-0.309
1283,-0.505,-0.64,1.313,-0.017,-1.309,0.037,0.256,-0.078,-0.321
1284,-0.325,-0.615,1.298,0.065,-1.091,0.112,0.258,-0.04,-0.334
1285,-0.313,-0.125,1.335,0.309,-1.088,0.08,0.259,-0.037,-0.333
1286,-0.394,0.454,1.215,0.499,-1.124,0.02,0.234,-0.016,-0.309
1287,-0.189,0.539,1.027,0.311,-1.04,0.058,0.237,-0.019,-0.318
1288,-0.121,0.69,0.975,0.094,-0.942,0.045,0.214,0.012,-0.339
1289,-0.081,0.792,0.92,0.17,-0.917,0.006,0.223,0.007,-0.322
1290,-0.007,0.838,0.786,0.242,-0.883,0.019,0.219,0.03,-0.354
1291,0.063,0.816,0.64,0.187,-0.796,0.027,0.205,0.04,-0.378
1292,0.173,0.687,0.452,0.097,-0.692,0.047,0.213,0.049,-0.385
1293,0.305,0.531,0.238,0.017,-0.603,0.064,0.216,0.058,-0.394
1294,0.32,0.38,0.06,0.093,-0.566,0.026,0.214,0.048,-0.411
1295,0.178,0.443,-0.116,0.093,-0.566,0.026,0.201,0.049,-0.388
1296,0.265,0.6,-0.291,0.202,-0.51,0.012,0.201,0.06,-0.411
1297,0.472,0.71,-0.446,0.14,-0.386,0.179,0.201,0.06,-0.411
1298,0.55,0.814,-0.506,0.172,-0.37,0.377,0.223,0.034,-0.408
1299,0.476,0.953,-0.394,0.454,-0.513,0.405,0.24,0.034,-0.396
1300,0.35,0.859,-0.105,0.76,-0.674,0.407,0.225,0.057,-0.427
1301,0.353,0.338,0.247,1.018,-0.77,0.529,0.24,0.019,-0.423
1302,0.45,0.548,0.59,1.212,-0.903,0.63,0.211,0.01,-0.448
1303,0.261,0.568,0.54,1.208,-1.035,0.632,0.223,0.024,-0.444
1304,0.069,0.36,0.229,0.83,-0.744,0.67,0.226,0.036,-0.465
1305,0.053,0.351,-0.13,0.328,-0.321,0.622,0.223,0.045,-0.439
1306,0.433,0.835,-0.312,-0.055,0.025,0.15,0.228,0.037,-0.468
1307,0.31,0.497,-0.114,0.035,-0.849,-0.091,0.217,0.04,-0.466
1308,0.147,-1.079,-0.099,0.338,-1.978,0.44,0.235,0.036,-0.472
1309,0.278,-1.219,-0.197,0.435,-1.528,0.302,0.232,0.037,-0.459
1310,0.149,-0.672,-0.422,0.053,-0.859,0.063,0.22,0.009,-0.456
1311,0.245,-0.54,-0.644,-0.206,-0.527,-0.028,0.226,0.027,-0.423
1312,0.486,-0.754,-0.678,0.161,-0.903,-0.186,0.22,0.0,-0.411
1313,0.75,-1.316,-0.661,0.161,-0.903,-0.186,0.22,-0.006,-0.414
1314,0.76,-1.056,-0.731,0.494,-1.073,-0.212,0.223,-0.016,-0.394
1315,0.585,-0.98,-0.805,0.602,-1.121,-0.117,0.235,-0.042,-0.354
1316,0.48,-1.131,-0.841,0.392,-0.997,-0.028,0.235,-0.042,-0.354
1317,0.379,-1.127,-0.817,0.138,-0.878,-0.022,0.235,-0.061,-0.346
1318,0.229,-0.837,-0.845,0.077,-0.828,-0.056,0.229,-0.054,-0.328
1319,0.157,-0.638,-0.774,0.244,-0.882,-0.109,0.232,-0.049,-0.307
1320,0.063,-0.265,-0.617,0.358,-0.93,-0.133,0.213,-0.087,-0.312
1321,0.136,-0.135,-0.567,0.341,-0.823,-0.128,0.25,-0.063,-0.316
1322,0.233,-0.335,-0.657,0.157,-0.8,-0.18,0.253,-0.072,-0.286
1323,0.236,-0.431,-0.686,0.125,-0.918,-0.155,0.249,-0.097,-0.295
1324,0.247,-0.515,-0.632,0.251,-0.932,-0.067,0.27,-0.097,-0.294
1325,0.291,-0.466,-0.601,0.242,-0.889,-0.101,0.265,-0.091,-0.267
1326,0.324,-0.46,-0.614,0.203,-0.857,-0.104,0.273,-0.112,-0.277
1327,0.347,-0.309,-0.623,0.214,-0.881,-0.076,0.291,-0.096,-0.255
1328,0.371,-0.284,-0.669,0.214,-0.907,-0.081,0.285,-0.099,-0.274
1329,0.361,-0.34,-0.744,0.182,-0.92,-0.085,0.285,-0.099,-0.274
1330,0.232,-0.361,-0.727,0.329,-1.013,-0.076,0.289,-0.12,-0.208
1331,0.118,-0.346,-0.616,0.329,-1.013,-0.076,0.294,-0.12,-0.219
1332,0.034,-0.312,-0.516,0.369,-0.972,-0.142,0.318,-0.133,-0.226
1333,-0.027,-0.203,-0.403,0.397,-0.971,-0.151,0.319,-0.147,-0.234
1334,-0.196,-0.067,-0.286,0.375,-1.048,-0.028,0.34,-0.139,-0.214
1335,-0.48,-0.308,-0.107,0.326,-1.13,0.108,0.315,-0.157,-0.217
1336,-0.756,-0.418,0.084,0.39,-1.196,0.055,0.328,-0.144,-0.216
1337,-1.068,-0.345,0.123,0.459,-1.254,-0.023,0.31,-0.163,-0.217
1338,-1.253,-0.337,0.292,0.473,-1.274,-0.032,0.327,-0.139,-0.235
1339,-1.125,-0.399,0.364,0.215,-1.287,-0.015,0.316,-0.16,-0.256
1340,-0.907,-0.416,0.307,-0.108,-1.254,0.056,0.304,-0.139,-0.285
1341,-0.709,-0.434,0.214,-0.164,-1.18,0.152,0.321,-0.145,-0.247
1342,-0.522,-0.457,0.31,-0.193,-1.163,0.114,0.321,-0.142,-0.286
1343,-0.413,-0.396,0.506,-0.204,-1.187,0.05,0.321,-0.142,-0.286
1344,-0.27,-0.502,0.634,-0.187,-1.189,0.133,0.307,-0.135,-0.241
1345,-0.122,-0.501,0.826,-0.158,-1.191,0.148,0.301,-0.153,-0.273
1346,-0.093,-0.41,1.024,-0.011,-1.198,0.079,0.283,-0.151,-0.261
1347,-0.112,-0.13,1.176,0.044,-1.075,0.127,0.283,-0.151,-0.261
1348,-0.199,0.401,1.318,0.063,-1.014,0.108,0.262,-0.103,-0.25
1349,-0.33,1.058,1.467,0.063,-1.014,0.108,0.259,-0.108,-0.267
1350,-0.45,1.495,1.438,0.09,-0.97,0.032,0.255,-0.082,-0.268
1351,-0.465,1.626,1.265,0.103,-0.898,-0.008,0.243,-0.06,-0.286
1352,-0.39,1.544,1.064,0.033,-0.769,-0.047,0.222,-0.045,-0.313
1353,-0.315,1.251,0.851,-0.024,-0.646,-0.065,0.217,-0.037,-0.357
1354,-0.051,0.94,0.643,-0.092,-0.55,-0.032,0.231,-0.036,-0.399
1355,0.296,0.651,0.41,-0.146,-0.475,0.042,0.223,-0.024,-0.361
1356,0.539,0.48,0.18,-0.122,-0.433,0.146,0.21,-0.009,-0.387
1357,0.658,0.434,-0.008,0.014,-0.41,0.227,0.21,-0.009,-0.387
1358,0.636,0.508,-0.173,0.201,-0.433,0.287,0.22,-0.013,-0.37
1359,0.599,0.483,-0.275,0.372,-0.545,0.352,0.225,-0.016,-0.378
1360,0.519,0.394,-0.235,0.585,-0.68,0.44,0.223,-0.024,-0.387
1361,0.281,0.235,0.016,0.909,-0.864,0.591,0.21,-0.021,-0.396
1362,0.181,0.641,0.398,1.11,-1.098,0.646,0.235,-0.027,-0.39
1363,0.137,0.892,0.579,1.023,-1.323,0.562,0.214,-0.015,-0.403
1364,0.088,0.356,0.35,0.262,-0.722,0.706,0.217,-0.025,-0.399
1365,0.007,0.275,0.0,-0.093,-1.104,0.28,0.223,-0.018,-0.43
1366,-0.111,0.44,-0.016,-0.093,-1.104,0.28,0.223,-0.025,-0.424
1367,-0.396,-0.58,-0.072,-0.092,-1.787,0.121,0.238,-0.009,-0.435
1368,-0.234,-0.931,-0.392,-0.11,-1.375,0.074,0.237,-0.015,-0.427
1369,-0.01,-1.092,-0.723,-0.338,-0.642,-0.123,0.238,-0.033,-0.424
1370,0.25,-1.295,-0.828,-0.354,-0.522,-0.26,0.229,-0.037,-0.396
1371,0.72,-1.368,-0.813,-0.077,-0.817,-0.426,0.214,-0.039,-0.379
1372,0.756,-1.136,-0.646,0.207,-1.244,-0.277,0.226,-0.046,-0.354
1373,0.516,-0.879,-0.569,0.581,-1.369,-0.135,0.226,-0.046,-0.354
1374,0.366,-0.795,-0.611,0.508,-1.13,-0.026,0.222,-0.054,-0.346
1375,0.289,-0.538,-0.584,0.178,-0.959,-0.065,0.243,-0.061,-0.319
1376,0.354,-0.429,-0.568,0.086,-0.887,-0.084,0.262,-0.076,-0.306
1377,0.418,-0.482,-0.578,0.098,-0.831,-0.101,0.256,-0.064,-0.298
1378,0.396,-0.326,-0.569,0.162,-0.869,-0.123,0.228,-0.1,-0.298
1379,0.394,-0.218,-0.571,0.233,-0.923,-0.088,0.237,-0.079,-0.312
1380,0.408,-0.135,-0.615,0.229,-0.944,-0.068,0.271,-0.099,-0.282
1381,0.417,-0.184,-0.639,0.198,-0.934,-0.058,0.241,-0.099,-0.273
1382,0.408,-0.238,-0.634,0.163,-0.91,-0.048,0.267,-0.106,-0.277
1383,0.404,-0.17,-0.646,0.161,-0.907,-0.041,0.27,-0.112,-0.265
1384,0.424,-0.117,-0.69,0.161,-0.907,-0.041,0.288,-0.123,-0.277
1385,0.455,-0.174,-0.723,0.186,-0.897,-0.045,0.295,-0.138,-0.256
1386,0.47,-0.192,-0.747,0.187,-0.879,-0.036,0.303,-0.144,-0.237
1387,0.438,-0.203,-0.767,0.149,-0.889,-0.016,0.327,-0.15,-0.235
1388,0.375,-0.242,-0.747,0.15,-0.911,-0.019,0.301,-0.129,-0.237
1389,0.297,-0.221,-0.688,0.22,-0.907,-0.04,0.301,-0.129,-0.237
1390,0.201,-0.167,-0.599,0.291,-0.907,-0.063,0.321,-0.16,-0.208
1391,0.12,-0.011,-0.468,0.33,-0.943,-0.088,0.349,-0.151,-0.217
1392,0.039,0.117,-0.373,0.336,-0.979,-0.06,0.336,-0.166,-0.216
1393,-0.155,0.242,-0.214,0.286,-1.016,0.039,0.351,-0.168,-0.228
1394,-0.439,0.124,0.093,0.31,-1.112,0.117,0.36,-0.186,-0.231
1395,-0.634,0.293,0.291,0.47,-1.147,-0.071,0.357,-0.166,-0.231
1396,-0.92,0.371,0.531,0.551,-1.159,-0.145,0.346,-0.169,-0.255
1397,-1.053,0.26,0.88,0.469,-1.279,0.051,0.349,-0.181,-0.27
1398,-1.136,0.098,1.106,0.175,-1.293,0.039,0.334,-0.18,-0.241
1399,-1.165,-0.055,1.276,-0.074,-1.33,-0.043,0.325,-0.172,-0.285
1400,-1.122,-0.153,1.402,-0.193,-1.593,0.021,0.301,-0.153,-0.316
1401,-0.97,-0.249,1.425,-0.193,-1.593,0.021,0.306,-0.126,-0.301
1402,-0.711,-0.439,1.372,-0.189,-1.446,0.026,0.295,-0.127,-0.309
1403,-0.536,-0.474,1.412,-0.086,-1.231,0.084,0.271,-0.102,-0.309
1404,-0.43,-0.429,1.388,0.173,-1.187,0.085,0.25,-0.087,-0.322
1405,-0.441,0.016,1.314,0.351,-1.221,0.0,0.25,-0.087,-0.322
1406,-0.419,0.405,1.173,0.257,-1.119,0.0,0.24,-0.063,-0.336
1407,-0.272,0.478,1.039,0.034,-0.958,0.065,0.228,-0.058,-0.339
1408,-0.19,0.59,0.968,-0.011,-0.869,0.064,0.198,-0.039,-0.345
1409,-0.161,0.725,0.916,0.075,-0.832,0.054,0.223,-0.03,-0.358
1410,-0.154,0.802,0.795,0.121,-0.79,0.061,0.198,-0.001,-0.36
1411,-0.1,0.777,0.627,0.099,-0.714,0.058,0.202,-0.019,-0.37
1412,0.044,0.671,0.42,0.051,-0.601,0.048,0.189,0.016,-0.381
1413,0.233,0.568,0.184,-0.018,-0.491,0.061,0.204,0.013,-0.403
1414,0.38,0.48,-0.032,-0.038,-0.422,0.086,0.196,0.022,-0.409
1415,0.497,0.479,-0.238,0.03,-0.38,0.118,0.192,0.007,-0.405
1416,0.567,0.587,-0.435,0.109,-0.36,0.182,0.195,0.015,-0.4
1417,0.597,0.627,-0.56,0.227,-0.392,0.267,0.207,0.016,-0.408
1418,0.562,0.625,-0.559,0.722,-0.657,0.539,0.222,0.019,-0.411
1419,0.315,0.527,-0.328,0.722,-0.657,0.539,0.207,-0.004,-0.436
1420,0.144,0.4,0.17,1.062,-0.915,0.7,0.207,-0.004,-0.436
1421,0.18,1.045,0.764,1.369,-1.365,0.616,0.214,-0.03,-0.432
1422,0.075,0.893,0.724,1.292,-1.454,0.542,0.222,-0.007,-0.436
1423,0.127,0.163,0.188,0.697,-0.698,0.645,0.204,0.015,-0.436
1424,0.502,-0.001,-0.447,-0.008,0.096,0.561,0.229,0.007,-0.456
1425,0.644,0.799,-0.609,-0.564,0.056,-0.25,0.235,0.007,-0.475
1426,0.466,-0.764,0.08,-0.549,-1.095,-0.446,0.217,-0.033,-0.435
1427,-0.313,-1.709,0.022,0.704,-1.991,0.8,0.235,-0.025,-0.468
1428,-0.371,-1.022,-0.345,0.948,-1.499,0.336,0.232,-0.015,-0.43
1429,-0.23,-0.869,-0.817,-0.455,-0.754,-0.065,0.208,-0.015,-0.403
1430,0.142,-1.438,-1.009,-0.826,-0.263,0.092,0.223,0.0,-0.403
1431,0.577,-1.201,-0.914,-0.186,-0.285,-0.508,0.22,-0.036,-0.37
1432,0.728,-0.76,-0.787,0.32,-0.939,-0.387,0.22,-0.036,-0.37
1433,0.515,-0.634,-0.658,0.644,-1.453,-0.233,0.211,-0.048,-0.342
1434,0.408,-0.661,-0.581,0.652,-1.364,-0.087,0.211,-0.048,-0.342
1435,0.397,-0.567,-0.584,0.022,-0.742,-0.096,0.232,-0.055,-0.328
1436,0.444,-0.543,-0.649,0.017,-0.748,-0.147,0.232,-0.055,-0.328
1437,0.437,-0.416,-0.718,0.017,-0.748,-0.147,0.22,-0.078,-0.321
1438,0.422,-0.376,-0.71,0.199,-0.868,-0.16,0.241,-0.081,-0.289
1439,0.45,-0.34,-0.638,0.312,-0.932,-0.133,0.265,-0.084,-0.295
1440,0.475,-0.271,-0.634,0.255,-0.911,-0.078,0.262,-0.075,-0.282
1441,0.447,-0.368,-0.673,0.16,-0.892,-0.032,0.267,-0.097,-0.279
1442,0.398,-0.434,-0.656,0.124,-0.89,-0.021,0.276,-0.097,-0.252
1443,0.364,-0.42,-0.638,0.136,-0.88,-0.033,0.271,-0.109,-0.235
1444,0.398,-0.414,-0.651,0.168,-0.847,-0.065,0.303,-0.109,-0.268
1445,0.433,-0.431,-0.668,0.218,-0.844,-0.081,0.298,-0.096,-0.262
1446,0.408,-0.461,-0.676,0.264,-0.889,-0.071,0.283,-0.109,-0.244
1447,0.308,-0.428,-0.673,0.273,-0.917,-0.058,0.283,-0.109,-0.244
1448,0.173,-0.343,-0.632,0.26,-0.918,-0.081,0.3,-0.108,-0.246
1449,0.042,-0.193,-0.549,0.284,-0.94,-0.089,0.327,-0.099,-0.225
1450,-0.04,0.046,-0.454,0.333,-0.987,-0.079,0.307,-0.132,-0.22
1451,-0.126,0.282,-0.311,0.338,-0.995,-0.024,0.324,-0.115,-0.225
1452,-0.366,0.163,-0.102,0.498,-1.094,0.06,0.328,-0.138,-0.235
1453,-0.669,0.236,0.172,0.606,-1.121,-0.126,0.336,-0.129,-0.232
1454,-0.84,0.391,0.454,0.663,-1.184,-0.078,0.349,-0.142,-0.229
1455,-0.87,0.277,0.894,0.663,-1.184,-0.078,0.339,-0.132,-0.237
1456,-0.909,0.143,1.215,0.463,-1.25,0.103,0.339,-0.132,-0.237
1457,-0.999,0.093,1.345,0.07,-1.366,0.042,0.324,-0.114,-0.292
1458,-1.038,-0.085,1.47,-0.115,-1.581,-0.034,0.304,-0.096,-0.288
1459,-1.038,-0.249,1.526,-0.156,-1.672,0.009,0.297,-0.081,-0.312
1460,-0.974,-0.313,1.46,-0.153,-1.538,0.036,0.292,-0.055,-0.312
1461,-0.688,-0.413,1.397,-0.037,-1.313,0.043,0.291,-0.052,-0.321
1462,-0.475,-0.39,1.496,0.141,-1.22,0.082,0.28,-0.037,-0.298
1463,-0.381,-0.154,1.472,0.326,-1.257,0.089,0.259,-0.024,-0.294
1464,-0.464,0.422,1.323,0.402,-1.251,0.064,0.27,-0.012,-0.312
1465,-0.378,0.655,1.131,0.175,-1.134,0.032,0.247,-0.01,-0.3
1466,-0.275,0.778,1.021,-0.008,-0.97,0.005,0.247,-0.01,-0.3
1467,-0.192,0.819,0.906,0.085,-0.881,0.0,0.255,0.006,-0.319
1468,-0.124,0.965,0.755,0.14,-0.803,0.01,0.264,0.03,-0.324
1469,-0.053,0.987,0.59,0.142,-0.687,0.008,0.249,0.031,-0.328
1470,0.077,0.896,0.362,-0.021,-0.487,0.013,0.264,0.04,-0.346
1471,0.268,0.765,0.1,-0.073,-0.408,0.021,0.25,0.046,-0.348
1472,0.448,0.656,-0.113,-0.073,-0.408,0.021,0.258,0.033,-0.369
1473,0.597,0.59,-0.313,-0.052,-0.352,0.071,0.234,0.036,-0.369
1474,0.704,0.669,-0.513,0.008,-0.295,0.158,0.261,0.042,-0.37
1475,0.693,0.744,-0.636,0.155,-0.311,0.281,0.256,0.033,-0.376
1476,0.58,0.654,-0.559,0.47,-0.456,0.429,0.261,0.028,-0.382
1477,0.341,0.622,-0.269,0.884,-0.665,0.548,0.285,0.021,-0.381
1478,0.119,0.616,0.182,1.203,-0.923,0.66,0.247,0.001,-0.385
1479,0.117,1.143,0.658,1.288,-1.28,0.594,0.247,0.01,-0.39
1480,0.096,0.908,0.649,1.023,-1.336,0.56,0.247,0.01,-0.39
1481,0.102,0.232,0.162,0.474,-0.714,0.744,0.273,0.028,-0.394
1482,-0.01,0.537,-0.214,-0.078,-0.372,0.756,0.267,0.034,-0.403
1483,-0.295,0.04,-0.008,-0.054,-1.222,0.229,0.268,0.022,-0.406
1484,-0.329,-0.626,-0.116,0.453,-1.966,0.179,0.262,0.024,-0.433
1485,-0.162,-0.748,-0.424,0.048,-1.226,0.077,0.265,0.034,-0.426
1486,0.041,-1.161,-0.712,-0.406,-0.488,-0.187,0.261,0.037,-0.412
1487,0.421,-1.297,-0.89,-0.121,-0.568,-0.21,0.277,0.042,-0.408
1488,0.779,-1.184,-0.895,0.327,-1.345,-0.17,0.265,0.019,-0.387
1489,0.816,-0.966,-0.807,0.327,-1.345,-0.17,0.271,-0.001,-0.364
1490,0.58,-0.724,-0.759,0.669,-1.353,-0.104,0.243,-0.028,-0.36
1491,0.455,-0.498,-0.744,0.479,-1.102,-0.005,0.276,-0.021,-0.349
1492,0.422,-0.297,-0.663,0.178,-0.967,-0.096,0.274,-0.01,-0.334
1493,0.518,-0.463,-0.591,0.098,-0.944,-0.129,0.288,-0.034,-0.318
1494,0.581,-0.646,-0.621,0.029,-0.927,-0.094,0.259,-0.045,-0.309
1495,0.506,-0.564,-0.686,0.104,-0.937,-0.101,0.259,-0.045,-0.309
1496,0.476,-0.332,-0.684,0.279,-0.95,-0.117,0.274,-0.039,-0.298
1497,0.492,-0.302,-0.69,0.312,-0.939,-0.117,0.295,-0.046,-0.288
1498,0.485,-0.33,-0.699,0.235,-0.91,-0.082,0.283,-0.057,-0.282
1499,0.487,-0.366,-0.67,0.145,-0.883,-0.061,0.285,-0.057,-0.291
1500,0.466,-0.307,-0.693,0.092,-0.875,-0.046,0.304,-0.073,-0.258
1501,0.432,-0.287,-0.751,0.111,-0.875,-0.041,0.321,-0.073,-0.262
1502,0.42,-0.308,-0.785,0.192,-0.856,-0.048,0.312,-0.073,-0.247
1503,0.414,-0.324,-0.787,0.217,-0.848,-0.046,0.328,-0.088,-0.232
1504,0.379,-0.378,-0.765,0.194,-0.875,-0.036,0.34,-0.091,-0.249
1505,0.296,-0.389,-0.705,0.23,-0.903,-0.031,0.343,-0.123,-0.219
1506,0.173,-0.305,-0.643,0.394,-0.94,-0.076,0.337,-0.111,-0.207
1507,0.074,-0.164,-0.534,0.394,-0.94,-0.076,0.351,-0.108,-0.205
1508,0.032,-0.01,-0.421,0.482,-0.947,-0.116,0.343,-0.105,-0.234
1509,-0.04,0.177,-0.298,0.458,-0.916,-0.055,0.352,-0.13,-0.217
1510,-0.196,0.137,-0.137,0.366,-0.974,0.101,0.352,-0.13,-0.217
1511,-0.588,0.035,0.127,0.361,-1.114,0.155,0.355,-0.133,-0.196
1512,-0.945,0.189,0.394,0.472,-1.135,0.016,0.36,-0.138,-0.225
1513,-1.125,0.478,0.741,0.64,-1.146,-0.093,0.358,-0.13,-0.219
1514,-0.98,0.259,1.138,0.648,-1.171,-0.043,0.337,-0.124,-0.255
1515,-0.84,0.162,1.39,0.159,-1.22,0.079,0.321,-0.145,-0.255
1516,-0.914,-0.037,1.486,-0.208,-1.452,0.103,0.303,-0.133,-0.283
1517,-0.926,-0.313,1.556,-0.145,-1.71,-0.037,0.276,-0.108,-0.28
1518,-0.908,-0.443,1.562,-0.123,-1.744,-0.059,0.28,-0.105,-0.28
1519,-0.578,-0.565,1.501,-0.092,-1.514,0.044,0.288,-0.075,-0.313
1520,-0.255,-0.499,1.583,0.019,-1.243,0.136,0.27,-0.069,-0.276
1521,-0.218,-0.342,1.468,0.358,-1.153,0.025,0.25,-0.045,-0.319
1522,-0.345,0.325,1.274,0.51,-1.187,-0.067,0.25,-0.045,-0.319
1523,-0.334,0.627,1.082,0.035,-0.973,0.092,0.231,-0.027,-0.289
1524,-0.343,0.833,0.958,0.103,-0.9,0.02,0.231,-0.027,-0.289
1525,-0.29,0.886,0.846,0.103,-0.9,0.02,0.231,-0.024,-0.313
1526,-0.228,1.005,0.72,0.157,-0.824,-0.011,0.226,-0.001,-0.328
1527,-0.137,1.047,0.59,0.107,-0.719,0.004,0.216,0.031,-0.336
1528,0.0,0.95,0.428,0.029,-0.64,0.018,0.201,0.003,-0.375
1529,0.183,0.778,0.218,-0.06,-0.551,0.017,0.19,0.037,-0.361
1530,0.357,0.588,0.022,-0.082,-0.484,0.027,0.192,0.037,-0.37
1531,0.527,0.506,-0.18,-0.052,-0.41,0.069,0.222,0.039,-0.382
1532,0.649,0.544,-0.41,-0.014,-0.324,0.146,0.208,0.01,-0.381
1533,0.693,0.62,-0.582,0.086,-0.31,0.221,0.205,0.01,-0.403
1534,0.637,0.511,-0.627,0.326,-0.42,0.33,0.214,0.001,-0.39
1535,0.497,0.408,-0.494,0.646,-0.604,0.474,0.22,0.0,-0.381
1536,0.208,0.318,-0.109,0.932,-0.806,0.636,0.22,0.0,-0.381
1537,0.118,0.768,0.51,1.177,-1.131,0.677,0.222,-0.006,-0.391
1538,0.079,0.917,0.749,1.196,-1.45,0.571,0.219,-0.006,-0.402
1539,0.008,0.192,0.31,0.831,-1.045,0.666,0.229,0.007,-0.403
1540,0.017,0.164,-0.167,-0.079,-0.794,0.373,0.22,0.018,-0.424
1541,-0.048,0.58,-0.235,0.008,-1.664,0.026,0.207,0.006,-0.424
1542,-0.345,-0.736,0.046,0.459,-1.641,-0.073,0.207,0.006,-0.424
1543,-0.261,-0.877,-0.305,0.459,-1.641,-0.073,0.228,0.007,-0.453
1544,-0.142,-0.98,-0.735,0.041,-0.929,0.027,0.21,0.03,-0.433
1545,0.14,-1.408,-1.045,-0.494,-0.474,-0.131,0.201,-0.007,-0.397
1546,0.516,-1.389,-1.05,-0.132,-0.579,-0.43,0.21,-0.022,-0.387
1547,0.723,-1.074,-0.802,0.144,-1.094,-0.335,0.235,-0.037,-0.361
1548,0.546,-0.694,-0.597,0.614,-1.436,-0.195,0.228,-0.049,-0.339
1549,0.378,-0.597,-0.627,0.742,-1.262,-0.045,0.237,-0.055,-0.333
1550,0.331,-0.506,-0.632,0.349,-1.02,-0.031,0.231,-0.057,-0.327
1551,0.413,-0.518,-0.581,0.111,-0.921,-0.095,0.219,-0.049,-0.313
1552,0.479,-0.718,-0.634,0.015,-0.853,-0.095,0.219,-0.049,-0.313
1553,0.456,-0.674,-0.65,0.062,-0.859,-0.117,0.222,-0.064,-0.316
1554,0.407,-0.455,-0.618,0.277,-0.945,-0.124,0.241,-0.064,-0.283
1555,0.41,-0.339,-0.596,0.364,-0.973,-0.109,0.249,-0.073,-0.28
1556,0.438,-0.368,-0.619,0.262,-0.914,-0.103,0.259,-0.093,-0.276
1557,0.42,-0.366,-0.626,0.172,-0.873,-0.085,0.255,-0.093,-0.247
1558,0.418,-0.36,-0.63,0.153,-0.878,-0.048,0.252,-0.108,-0.271
1559,0.402,-0.324,-0.653,0.199,-0.88,-0.038,0.256,-0.105,-0.238
1560,0.408,-0.317,-0.697,0.199,-0.88,-0.038,0.256,-0.105,-0.238
1561,0.416,-0.37,-0.746,0.228,-0.864,-0.047,0.289,-0.097,-0.234
1562,0.414,-0.413,-0.767,0.218,-0.878,-0.049,0.28,-0.12,-0.223
1563,0.378,-0.406,-0.749,0.206,-0.913,-0.039,0.297,-0.126,-0.19
1564,0.284,-0.372,-0.686,0.249,-0.919,-0.032,0.291,-0.13,-0.201
1565,0.16,-0.296,-0.587,0.331,-0.915,-0.048,0.289,-0.148,-0.199
1566,0.055,-0.189,-0.45,0.41,-0.92,-0.08,0.328,-0.133,-0.19
1567,0.051,0.0,-0.377,0.476,-0.925,-0.117,0.324,-0.145,-0.178
1568,-0.036,0.316,-0.304,0.438,-0.942,-0.037,0.313,-0.151,-0.211
1569,-0.273,0.213,-0.088,0.361,-1.054,0.088,0.318,-0.135,-0.214
1570,-0.501,0.142,0.149,0.445,-1.151,0.049,0.318,-0.135,-0.214
1571,-0.828,0.37,0.367,0.554,-1.15,-0.055,0.31,-0.135,-0.21
1572,-0.969,0.585,0.664,0.617,-1.211,-0.067,0.312,-0.151,-0.234
1573,-0.9,0.349,1.016,0.464,-1.274,0.067,0.298,-0.151,-0.249
1574,-1.01,0.145,1.185,-0.056,-1.303,0.177,0.294,-0.132,-0.243
1575,-1.097,0.014,1.295,-0.244,-1.41,0.077,0.294,-0.121,-0.267
1576,-1.113,-0.17,1.377,-0.124,-1.567,-0.006,0.297,-0.096,-0.262
1577,-0.93,-0.414,1.395,-0.124,-1.567,-0.006,0.27,-0.105,-0.268
1578,-0.595,-0.677,1.409,-0.145,-1.348,0.097,0.24,-0.076,-0.286
1579,-0.408,-0.671,1.421,-0.075,-1.157,0.161,0.249,-0.054,-0.301
1580,-0.317,-0.455,1.374,0.147,-1.164,0.157,0.231,-0.039,-0.268
1581,-0.451,0.187,1.24,0.336,-1.174,0.148,0.222,-0.016,-0.28
1582,-0.44,0.569,1.066,0.253,-1.091,0.131,0.222,-0.016,-0.28
1583,-0.348,0.699,0.966,0.111,-0.984,0.069,0.21,-0.001,-0.288
1584,-0.242,0.823,0.868,0.14,-0.923,0.022,0.228,-0.001,-0.31
1585,-0.182,0.986,0.754,0.17,-0.852,0.008,0.22,0.009,-0.321
1586,-0.105,1.015,0.658,0.131,-0.758,0.012,0.222,0.018,-0.321
1587,0.01,0.894,0.505,0.074,-0.675,0.044,0.226,0.034,-0.343
1588,0.193,0.716,0.296,-0.016,-0.585,0.046,0.228,0.031,-0.36
1589,0.385,0.527,0.111,-0.065,-0.514,0.035,0.214,0.039,-0.363
1590,0.533,0.427,-0.082,-0.031,-0.467,0.07,0.201,0.036,-0.372
1591,0.623,0.42,-0.289,0.031,-0.425,0.157,0.21,0.028,-0.378
1592,0.694,0.5,-0.457,0.122,-0.38,0.217,0.219,0.046,-0.36
1593,0.693,0.518,-0.539,0.265,-0.404,0.273,0.232,0.048,-0.375
1594,0.592,0.497,-0.488,0.843,-0.757,0.601,0.219,0.028,-0.372
1595,0.31,0.435,-0.209,0.843,-0.757,0.601,0.24,0.003,-0.388
1596,0.147,0.595,0.295,1.178,-1.06,0.637,0.235,0.028,-0.388
1597,0.113,1.076,0.738,1.302,-1.421,0.52,0.25,0.016,-0.388
1598,0.028,0.605,0.589,0.998,-1.3,0.584,0.235,0.036,-0.405
1599,-0.029,0.148,0.078,0.423,-0.654,0.8,0.235,0.036,-0.405
1600,-0.137,0.538,-0.162,0.09,-0.747,0.702,0.234,0.025,-0.408
1601,-0.196,0.05,-0.057,0.021,-1.317,0.001,0.247,0.018,-0.423
1602,-0.181,-0.526,-0.249,0.131,-1.307,-0.037,0.253,0.033,-0.42
1603,0.017,-0.907,-0.535,-0.053,-0.853,0.1,0.231,0.022,-0.424
1604,0.234,-1.179,-0.786,-0.252,-0.574,-0.219,0.244,-0.004,-0.403
1605,0.521,-1.292,-0.875,-0.045,-0.735,-0.295,0.225,0.012,-0.385
1606,0.685,-1.169,-0.762,0.159,-1.099,-0.322,0.229,0.001,-0.378
1607,0.572,-0.786,-0.588,0.51,-1.3,-0.199,0.241,-0.016,-0.346
1608,0.442,-0.582,-0.548,0.635,-1.155,-0.076,0.229,-0.031,-0.345
1609,0.377,-0.495,-0.587,0.372,-0.977,0.009,0.246,-0.042,-0.339
1610,0.357,-0.499,-0.541,0.156,-0.931,-0.033,0.256,-0.024,-0.331
1611,0.406,-0.756,-0.545,0.114,-0.952,-0.068,0.238,-0.019,-0.315
1612,0.432,-0.778,-0.585,0.184,-0.914,-0.101,0.252,-0.046,-0.318
1613,0.389,-0.593,-0.549,0.184,-0.914,-0.101,0.252,-0.046,-0.318
1614,0.371,-0.412,-0.529,0.338,-0.924,-0.109,0.256,-0.058,-0.304
1615,0.416,-0.489,-0.54,0.322,-0.926,-0.131,0.271,-0.07,-0.31
1616,0.422,-0.495,-0.59,0.236,-0.913,-0.117,0.258,-0.052,-0.276
1617,0.357,-0.43,-0.616,0.183,-0.9,-0.066,0.258,-0.052,-0.276
1618,0.352,-0.407,-0.627,0.2,-0.893,-0.069,0.271,-0.063,-0.243
1619,0.385,-0.331,-0.641,0.233,-0.9,-0.089,0.271,-0.063,-0.258
1620,0.407,-0.309,-0.658,0.265,-0.893,-0.099,0.304,-0.102,-0.25
1621,0.425,-0.362,-0.672,0.265,-0.895,-0.092,0.295,-0.078,-0.241
1622,0.403,-0.384,-0.675,0.23,-0.918,-0.068,0.325,-0.09,-0.235
1623,0.341,-0.392,-0.647,0.224,-0.916,-0.053,0.318,-0.121,-0.235
1624,0.279,-0.335,-0.576,0.266,-0.905,-0.069,0.312,-0.103,-0.229
1625,0.185,-0.312,-0.474,0.314,-0.907,-0.082,0.324,-0.123,-0.229
1626,0.099,-0.269,-0.386,0.34,-0.946,-0.11,0.325,-0.124,-0.214
1627,0.037,-0.173,-0.308,0.375,-0.98,-0.153,0.348,-0.112,-0.217
1628,-0.075,0.327,-0.291,0.404,-0.954,-0.122,0.348,-0.1,-0.232
1629,-0.207,0.45,-0.21,0.345,-1.149,0.05,0.34,-0.129,-0.214
1630,-0.313,0.156,0.136,0.345,-1.149,0.05,0.337,-0.123,-0.22
1631,-0.56,0.132,0.32,0.498,-1.194,0.019,0.337,-0.123,-0.22
1632,-0.948,0.541,0.431,0.534,-1.169,-0.018,0.339,-0.1,-0.234
1633,-1.122,0.522,0.767,0.522,-1.211,-0.073,0.349,-0.118,-0.244
1634,-1.218,0.153,1.04,0.274,-1.208,0.074,0.334,-0.112,-0.25
1635,-1.349,0.019,1.102,-0.125,-1.276,0.186,0.318,-0.096,-0.27
1636,-1.344,-0.232,1.152,-0.263,-1.417,0.08,0.319,-0.091,-0.294
1637,-1.208,-0.478,1.166,-0.245,-1.471,0.018,0.316,-0.084,-0.318
1638,-0.872,-0.557,1.2,-0.156,-1.371,0.017,0.292,-0.078,-0.297
1639,-0.647,-0.591,1.218,0.02,-1.19,0.078,0.31,-0.06,-0.31
1640,-0.656,-0.252,1.233,0.201,-1.124,0.109,0.285,-0.043,-0.312
1641,-0.652,0.242,1.18,0.375,-1.161,0.071,0.282,-0.046,-0.3
1642,-0.524,0.455,1.008,0.401,-1.123,0.065,0.286,-0.021,-0.309
1643,-0.407,0.467,0.87,0.197,-0.997,0.079,0.271,-0.012,-0.34
1644,-0.313,0.522,0.823,0.073,-0.921,0.089,0.259,0.001,-0.336
1645,-0.25,0.66,0.749,0.126,-0.885,0.11,0.259,0.001,-0.336
1646,-0.186,0.729,0.633,0.179,-0.831,0.115,0.247,0.0,-0.325
1647,-0.082,0.721,0.465,0.068,-0.643,0.084,0.265,0.013,-0.352
1648,0.06,0.702,0.266,-0.002,-0.544,0.081,0.25,0.036,-0.343
1649,0.239,0.607,0.081,-0.002,-0.544,0.081,0.247,0.022,-0.372
1650,0.415,0.49,-0.078,-0.016,-0.493,0.088,0.247,0.031,-0.348
1651,0.521,0.432,-0.248,0.019,-0.474,0.138,0.258,0.033,-0.352
1652,0.573,0.45,-0.431,0.102,-0.476,0.238,0.258,0.016,-0.361
1653,0.615,0.523,-0.564,0.215,-0.484,0.269,0.262,0.01,-0.37
1654,0.607,0.526,-0.57,0.38,-0.573,0.35,0.256,0.019,-0.37
1655,0.53,0.537,-0.436,0.613,-0.723,0.521,0.264,-0.001,-0.349
1656,0.403,0.526,-0.179,0.806,-0.851,0.591,0.264,0.009,-0.373
1657,0.22,0.751,0.31,0.917,-1.018,0.557,0.259,-0.004,-0.385
1658,0.252,0.849,0.747,0.903,-1.282,0.505,0.282,-0.004,-0.385
1659,0.242,0.411,0.651,0.681,-1.219,0.564,0.256,0.024,-0.411
1660,0.299,-0.214,0.134,0.273,-0.64,0.675,0.259,0.033,-0.409
1661,0.329,0.473,-0.255,-0.117,-0.361,0.488,0.258,0.027,-0.399
1662,0.143,0.527,-0.177,-0.125,-0.78,0.189,0.258,0.027,-0.399
1663,-0.124,-0.3,-0.042,0.287,-1.519,0.226,0.259,0.027,-0.411
1664,-0.102,-0.47,-0.267,0.107,-1.191,-0.042,0.255,0.015,-0.405
1665,-0.004,-0.536,-0.664,-0.249,-0.67,-0.049,0.249,0.015,-0.406
1666,0.153,-0.669,-0.965,-0.249,-0.67,-0.049,0.259,0.0,-0.403
1667,0.42,-0.408,-0.994,0.008,-0.651,-0.266,0.268,-0.001,-0.396
1668,0.55,0.131,-0.769,0.333,-0.958,-0.255,0.252,-0.027,-0.406
1669,0.448,0.346,-0.469,0.582,-1.146,-0.108,0.261,-0.016,-0.399
1670,0.361,0.385,-0.315,0.586,-1.095,0.0,0.27,-0.046,-0.387
1671,0.388,0.233,-0.275,0.363,-0.986,0.028,0.283,-0.027,-0.394
1672,0.419,-0.069,-0.306,0.138,-0.92,0.038,0.28,-0.019,-0.388
1673,0.425,-0.312,-0.366,-0.003,-0.877,0.045,0.282,-0.037,-0.382
1674,0.418,-0.409,-0.399,0.014,-0.885,0.027,0.286,-0.034,-0.358
1675,0.424,-0.386,-0.387,0.17,-0.946,-0.002,0.286,-0.034,-0.358
1676,0.398,-0.296,-0.38,0.3,-0.984,0.009,0.288,-0.045,-0.364
1677,0.383,-0.147,-0.361,0.332,-0.935,-0.004,0.28,-0.075,-0.355
1678,0.349,-0.051,-0.311,0.323,-0.872,-0.033,0.28,-0.061,-0.367
1679,0.311,-0.053,-0.279,0.327,-0.866,-0.046,0.277,-0.058,-0.358
1680,0.324,0.032,-0.317,0.291,-0.892,-0.038,0.283,-0.057,-0.349
1681,0.329,0.117,-0.389,0.256,-0.908,-0.005,0.279,-0.066,-0.364
1682,0.35,0.134,-0.436,0.276,-0.925,-0.001,0.301,-0.099,-0.364
1683,0.371,0.12,-0.424,0.276,-0.925,-0.001,0.303,-0.064,-0.346
1684,0.401,0.185,-0.402,0.233,-0.928,0.0,0.307,-0.075,-0.364
1685,0.366,0.19,-0.416,0.169,-0.941,0.027,0.316,-0.087,-0.36
1686,0.322,0.1,-0.394,0.162,-0.949,0.027,0.315,-0.087,-0.354
1687,0.296,0.01,-0.398,0.218,-0.943,-0.026,0.316,-0.099,-0.369
1688,0.224,0.007,-0.355,0.265,-0.957,-0.063,0.33,-0.091,-0.348
1689,0.099,0.156,-0.249,0.325,-1.011,-0.022,0.318,-0.093,-0.348
1690,-0.049,0.387,-0.238,0.296,-1.064,0.08,0.318,-0.093,-0.348
1691,-0.235,0.536,-0.242,0.206,-1.057,0.151,0.325,-0.1,-0.348
1692,-0.419,0.525,-0.205,0.199,-0.981,0.15,0.337,-0.112,-0.37
1693,-0.6,0.475,-0.091,0.18,-0.889,0.116,0.333,-0.105,-0.37
1694,-0.909,0.366,0.068,0.177,-0.897,0.051,0.345,-0.114,-0.384
1695,-1.199,0.301,0.234,0.266,-1.094,0.094,0.355,-0.106,-0.403
1696,-1.456,0.285,0.511,0.412,-1.294,0.13,0.345,-0.096,-0.406
1697,-1.428,0.744,0.76,0.557,-1.291,-0.047,0.354,-0.105,-0.415
1698,-1.323,0.991,0.951,0.473,-1.194,-0.172,0.346,-0.106,-0.444
1699,-1.085,0.506,1.054,0.199,-1.145,-0.193,0.373,-0.069,-0.433
1700,-0.602,-0.017,1.03,0.124,-1.115,-0.134,0.343,-0.064,-0.474
1701,-0.109,-0.026,1.067,0.124,-1.115,-0.134,0.333,-0.072,-0.498
1702,0.174,0.091,1.084,0.27,-1.086,-0.034,0.333,-0.072,-0.498
1703,0.249,0.557,1.031,0.407,-1.084,0.016,0.315,-0.063,-0.46
1704,0.237,0.961,0.885,0.47,-1.07,0.01,0.318,-0.04,-0.462
1705,0.251,1.164,0.758,0.344,-0.956,-0.049,0.295,-0.033,-0.46
1706,0.358,1.281,0.711,0.178,-0.87,-0.061,0.31,-0.019,-0.501
1707,0.517,1.275,0.708,0.129,-0.896,-0.03,0.306,-0.03,-0.507
1708,0.605,1.356,0.732,0.164,-0.951,-0.022,0.328,-0.027,-0.477
1709,0.613,1.446,0.744,0.244,-0.97,-0.027,0.334,-0.025,-0.513
1710,0.637,1.435,0.686,0.25,-0.96,-0.027,0.309,-0.019,-0.507
1711,0.673,1.339,0.573,0.154,-0.922,-0.016,0.322,-0.019,-0.523
1712,0.688,1.241,0.44,0.091,-0.887,0.02,0.336,-0.027,-0.513
1713,0.69,1.176,0.324,0.106,-0.86,0.07,0.367,-0.027,-0.565
1714,0.688,1.268,0.232,0.168,-0.851,0.101,0.367,-0.027,-0.565
1715,0.692,1.442,0.144,0.232,-0.87,0.096,0.331,-0.034,-0.55
1716,0.67,1.509,0.046,0.245,-0.88,0.083,0.351,-0.037,-0.564
1717,0.64,1.531,-0.025,0.244,-0.874,0.116,0.373,-0.052,-0.547
1718,0.597,1.513,-0.061,0.32,-0.869,0.142,0.397,-0.046,-0.555
1719,0.6,1.498,-0.105,0.32,-0.869,0.142,0.405,-0.061,-0.574
1720,0.602,1.502,-0.147,0.392,-0.878,0.165,0.405,-0.061,-0.574
1721,0.545,1.403,-0.123,0.401,-0.806,0.182,0.442,-0.046,-0.573
1722,0.437,1.28,-0.054,0.347,-0.831,0.208,0.465,-0.07,-0.591
1723,0.377,1.287,0.026,0.225,-0.933,0.283,0.478,-0.085,-0.57
1724,0.387,1.078,0.068,0.097,-0.911,0.277,0.495,-0.09,-0.57
1725,0.52,0.655,-0.036,0.014,-0.91,0.197,0.495,-0.079,-0.564
1726,0.519,0.291,-0.27,-0.061,-0.967,0.225,0.49,-0.088,-0.583
1727,0.483,0.174,-0.506,-0.103,-1.004,0.147,0.523,-0.085,-0.57
1728,0.35,0.978,-0.533,-0.134,-1.103,0.03,0.499,-0.09,-0.565
1729,0.417,0.793,-0.348,0.189,-1.219,0.051,0.499,-0.09,-0.565
1730,0.371,0.378,-0.204,0.742,-1.126,-0.111,0.54,-0.111,-0.555
1731,0.452,0.634,-0.218,0.709,-0.943,-0.25,0.538,-0.1,-0.549
1732,0.574,1.15,-0.257,0.359,-0.802,-0.184,0.547,-0.096,-0.55
1733,0.554,1.505,-0.36,0.214,-0.781,-0.086,0.55,-0.115,-0.552
1734,0.527,1.733,-0.412,0.308,-0.973,-0.073,0.55,-0.12,-0.553
1735,0.455,2.017,-0.364,0.313,-1.053,-0.088,0.588,-0.108,-0.544
1736,0.376,2.298,-0.226,0.313,-1.053,-0.088,0.612,-0.114,-0.55
1737,0.4,2.204,-0.107,0.277,-1.055,-0.058,0.622,-0.126,-0.525
1738,0.433,1.717,-0.021,0.227,-0.996,-0.043,0.643,-0.106,-0.526
1739,0.442,1.452,0.0,0.163,-0.965,-0.067,0.658,-0.12,-0.52
1740,0.469,1.367,-0.027,0.077,-0.956,-0.095,0.651,-0.138,-0.504
1741,0.476,1.32,-0.049,0.051,-0.956,-0.115,0.667,-0.13,-0.483
1742,0.454,1.315,-0.079,0.083,-0.975,-0.14,0.685,-0.135,-0.468
1743,0.437,1.185,-0.079,0.137,-1.0,-0.172,0.684,-0.123,-0.454
1744,0.438,1.13,-0.079,0.115,-0.991,-0.192,0.708,-0.139,-0.445
1745,0.395,1.039,-0.099,0.037,-0.974,-0.19,0.726,-0.13,-0.433
1746,0.371,0.942,-0.117,-0.013,-0.984,-0.181,0.717,-0.132,-0.426
1747,0.347,0.791,-0.153,-0.088,-1.016,-0.11,0.718,-0.133,-0.42
1748,0.312,0.626,-0.201,-0.088,-1.019,-0.064,0.723,-0.141,-0.406
1749,0.281,0.529,-0.242,-0.015,-0.991,-0.092,0.723,-0.141,-0.406
1750,0.246,0.449,-0.252,0.024,-0.992,-0.113,0.727,-0.151,-0.423
1751,0.209,0.295,-0.228,0.061,-0.99,-0.122,0.739,-0.133,-0.409
1752,0.193,0.252,-0.233,0.144,-0.98,-0.098,0.747,-0.126,-0.403
1753,0.191,0.338,-0.246,0.194,-0.971,-0.103,0.75,-0.133,-0.397
1754,0.158,0.287,-0.272,0.194,-0.971,-0.103,0.738,-0.13,-0.402
1755,0.145,0.291,-0.271,0.198,-0.992,-0.102,0.735,-0.136,-0.406
1756,0.112,0.332,-0.294,0.181,-0.959,-0.099,0.736,-0.147,-0.409
1757,0.077,0.294,-0.281,0.149,-0.926,-0.122,0.742,-0.132,-0.4
1758,0.05,0.294,-0.333,0.097,-0.963,-0.144,0.759,-0.117,-0.39
1759,0.005,0.141,-0.321,0.072,-1.0,-0.121,0.778,-0.129,-0.394
1760,-0.023,0.185,-0.393,0.051,-0.993,-0.086,0.775,-0.12,-0.372
1761,-0.095,0.129,-0.399,0.062,-1.019,-0.067,0.777,-0.136,-0.369
1762,-0.134,0.168,-0.427,0.131,-1.029,-0.068,0.771,-0.124,-0.384
1763,-0.21,0.21,-0.431,0.202,-1.025,-0.044,0.771,-0.124,-0.384
1764,-0.312,0.293,-0.405,0.302,-1.064,0.007,0.783,-0.103,-0.405
1765,-0.434,0.345,-0.355,0.382,-1.115,0.066,0.775,-0.109,-0.399
1766,-0.576,0.519,-0.265,0.501,-1.125,0.048,0.784,-0.12,-0.376
1767,-0.759,0.679,-0.158,0.498,-1.155,0.024,0.811,-0.096,-0.381
1768,-0.921,0.777,-0.016,0.414,-1.205,0.064,0.82,-0.096,-0.394
1769,-0.992,0.696,0.206,0.253,-1.174,0.142,0.793,-0.094,-0.363
1770,-1.063,0.456,0.434,0.199,-1.001,0.027,0.804,-0.091,-0.391
1771,-1.173,0.282,0.648,0.221,-0.938,-0.046,0.81,-0.085,-0.426
1772,-1.049,0.298,0.8,0.221,-0.938,-0.046,0.813,-0.1,-0.403
1773,-0.758,0.435,0.872,0.175,-0.938,-0.122,0.787,-0.097,-0.436
1774,-0.403,0.617,0.907,0.1,-0.947,-0.161,0.795,-0.087,-0.415
1775,-0.092,0.606,1.092,0.066,-0.977,-0.149,0.787,-0.094,-0.423
1776,0.104,0.287,1.302,0.103,-1.006,-0.099,0.783,-0.106,-0.427
1777,0.239,-0.08,1.3,0.144,-0.991,-0.051,0.769,-0.1,-0.399
1778,0.253,-0.166,1.149,0.097,-1.034,0.025,0.768,-0.148,-0.403
1779,0.347,-0.107,0.967,0.08,-1.102,0.104,0.727,-0.142,-0.411
1780,0.375,0.266,1.054,0.088,-1.132,0.088,0.727,-0.142,-0.411
1781,0.214,0.851,1.201,0.166,-1.137,-0.011,0.703,-0.153,-0.415
1782,0.147,0.981,1.257,0.178,-1.154,-0.037,0.723,-0.157,-0.396
1783,0.135,1.067,1.242,0.066,-1.148,0.042,0.696,-0.175,-0.405
1784,0.081,1.048,1.192,0.085,-1.111,0.105,0.706,-0.177,-0.403
1785,0.056,1.045,1.101,0.116,-1.075,0.13,0.666,-0.186,-0.375
1786,0.03,1.001,0.974,0.094,-0.969,0.113,0.658,-0.178,-0.378
1787,0.06,0.94,0.795,0.052,-0.863,0.108,0.654,-0.187,-0.384
1788,0.119,0.904,0.604,0.025,-0.704,0.165,0.634,-0.189,-0.385
1789,0.158,0.867,0.42,0.025,-0.704,0.165,0.64,-0.189,-0.366
1790,0.219,0.829,0.263,0.102,-0.671,0.184,0.625,-0.192,-0.381
1791,0.289,0.806,0.119,0.207,-0.608,0.19,0.634,-0.186,-0.373
1792,0.421,0.74,-0.006,0.249,-0.541,0.196,0.645,-0.196,-0.349
1793,0.555,0.686,-0.123,0.286,-0.522,0.207,0.642,-0.193,-0.348
1794,0.613,0.684,-0.215,0.388,-0.522,0.266,0.66,-0.19,-0.363
1795,0.563,0.592,-0.233,0.536,-0.552,0.372,0.66,-0.19,-0.363
1796,0.401,0.426,-0.08,0.698,-0.637,0.496,0.648,-0.195,-0.334
1797,0.317,0.776,0.298,0.991,-0.871,0.5,0.648,-0.195,-0.334
1798,0.295,1.078,0.497,1.19,-1.173,0.437,0.646,-0.204,-0.327
1799,0.265,0.766,0.242,0.903,-0.994,0.505,0.621,-0.214,-0.304
1800,0.424,0.249,-0.22,0.307,-0.445,0.551,0.67,-0.177,-0.324
1801,0.373,0.33,-0.592,-0.258,-0.395,0.142,0.664,-0.186,-0.321
1802,0.337,0.028,-0.449,-0.447,-1.285,-0.206,0.649,-0.199,-0.297
1803,-0.192,-1.013,-0.177,0.09,-1.992,0.468,0.661,-0.195,-0.292
1804,-0.231,-0.946,-0.499,0.482,-1.59,0.469,0.664,-0.189,-0.309
1805,-0.082,-0.799,-0.786,-0.565,-0.279,-0.157,0.678,-0.195,-0.304
1806,0.196,-1.261,-0.901,-0.103,-0.493,-0.396,0.675,-0.211,-0.322
1807,0.452,-1.282,-0.754,-0.103,-0.493,-0.396,0.696,-0.178,-0.318
1808,0.422,-0.955,-0.624,0.423,-0.986,-0.257,0.715,-0.184,-0.334
1809,0.374,-0.816,-0.593,0.616,-1.226,-0.107,0.708,-0.192,-0.307
1810,0.368,-0.844,-0.553,0.536,-1.148,-0.075,0.696,-0.174,-0.307
1811,0.329,-0.774,-0.505,0.29,-0.926,-0.021,0.696,-0.174,-0.307
1812,0.361,-0.802,-0.493,0.139,-0.774,-0.058,0.729,-0.192,-0.321
1813,0.403,-0.62,-0.529,0.118,-0.766,-0.14,0.718,-0.172,-0.315
1814,0.414,-0.389,-0.497,0.225,-0.866,-0.17,0.729,-0.174,-0.303
1815,0.408,-0.261,-0.466,0.341,-0.952,-0.122,0.724,-0.154,-0.313
1816,0.384,-0.273,-0.505,0.251,-0.939,-0.024,0.724,-0.171,-0.312
1817,0.361,-0.319,-0.553,0.115,-0.925,0.006,0.748,-0.147,-0.312
1818,0.33,-0.406,-0.563,0.074,-0.942,-0.02,0.759,-0.162,-0.309
1819,0.331,-0.452,-0.517,0.111,-0.912,-0.054,0.772,-0.153,-0.285
1820,0.406,-0.408,-0.515,0.156,-0.871,-0.101,0.783,-0.142,-0.309
1821,0.472,-0.401,-0.56,0.147,-0.886,-0.129,0.778,-0.159,-0.292
1822,0.501,-0.463,-0.595,0.157,-0.934,-0.116,0.774,-0.148,-0.298
1823,0.478,-0.561,-0.588,0.203,-0.988,-0.113,0.793,-0.139,-0.313
1824,0.424,-0.527,-0.595,0.203,-0.988,-0.113,0.801,-0.141,-0.306
1825,0.329,-0.325,-0.618,0.206,-1.01,-0.117,0.793,-0.141,-0.307
1826,0.211,-0.112,-0.598,0.269,-1.021,-0.125,0.816,-0.129,-0.307
1827,0.1,-0.009,-0.511,0.293,-1.034,-0.113,0.816,-0.129,-0.307
1828,0.017,0.071,-0.432,0.273,-1.073,-0.051,0.801,-0.123,-0.301
1829,-0.064,0.139,-0.357,0.298,-1.074,-0.042,0.81,-0.114,-0.307
1830,-0.144,0.193,-0.278,0.319,-1.031,-0.035,0.829,-0.114,-0.283
1831,-0.313,0.123,-0.196,0.378,-1.025,0.042,0.828,-0.093,-0.295
1832,-0.651,0.206,-0.01,0.465,-1.028,0.066,0.816,-0.1,-0.301
1833,-0.907,0.513,0.252,0.507,-1.052,-0.079,0.823,-0.103,-0.301
1834,-1.058,0.541,0.594,0.542,-1.117,-0.12,0.811,-0.091,-0.3
1835,-1.116,0.33,0.997,0.455,-1.155,0.005,0.82,-0.109,-0.306
1836,-1.209,0.192,1.246,0.139,-1.267,0.016,0.811,-0.112,-0.327
1837,-1.245,0.058,1.366,-0.152,-1.47,-0.033,0.793,-0.126,-0.36
1838,-1.123,-0.26,1.432,-0.269,-1.57,-0.058,0.781,-0.138,-0.352
1839,-0.898,-0.45,1.397,-0.277,-1.492,-0.003,0.768,-0.154,-0.381
1840,-0.606,-0.584,1.423,-0.188,-1.257,0.042,0.76,-0.157,-0.387
1841,-0.424,-0.836,1.372,0.209,-1.077,0.109,0.76,-0.157,-0.387
1842,-0.315,-0.687,1.357,0.209,-1.077,0.109,0.738,-0.154,-0.399
1843,-0.381,0.072,1.28,0.443,-1.17,0.038,0.723,-0.174,-0.403
1844,-0.266,0.462,1.154,0.416,-1.112,-0.04,0.705,-0.162,-0.411
1845,-0.181,0.742,1.036,0.179,-0.996,-0.009,0.681,-0.165,-0.417
1846,-0.105,0.875,0.908,0.127,-0.882,-0.02,0.682,-0.163,-0.438
1847,-0.039,0.928,0.801,0.12,-0.777,-0.005,0.684,-0.165,-0.423
1848,0.021,0.893,0.695,0.101,-0.733,0.025,0.688,-0.174,-0.403
1849,0.105,0.773,0.552,0.024,-0.691,0.036,0.675,-0.193,-0.403
1850,0.233,0.61,0.385,-0.065,-0.615,0.036,0.661,-0.172,-0.414
1851,0.371,0.436,0.231,-0.069,-0.544,0.045,0.666,-0.184,-0.42
1852,0.499,0.301,0.065,-0.009,-0.498,0.081,0.673,-0.192,-0.408
1853,0.511,0.273,-0.135,0.052,-0.454,0.128,0.661,-0.199,-0.382
1854,0.455,0.438,-0.288,0.14,-0.434,0.174,0.672,-0.199,-0.373
1855,0.467,0.567,-0.352,0.33,-0.517,0.225,0.67,-0.198,-0.367
1856,0.506,0.68,-0.316,0.625,-0.646,0.265,0.693,-0.195,-0.357
1857,0.472,0.627,-0.173,0.861,-0.726,0.375,0.694,-0.211,-0.339
1858,0.428,0.523,0.062,1.059,-0.949,0.458,0.694,-0.211,-0.339
1859,0.403,0.729,0.325,1.044,-1.144,0.44,0.69,-0.192,-0.336
1860,0.208,1.057,0.422,1.044,-1.144,0.44,0.681,-0.207,-0.318
1861,0.112,0.804,0.164,0.897,-1.048,0.596,0.697,-0.226,-0.322
1862,0.231,0.525,-0.243,0.486,-0.534,0.637,0.675,-0.21,-0.318
1863,0.689,0.472,-0.583,-0.086,-0.114,0.371,0.672,-0.216,-0.303
1864,0.608,0.205,-0.499,-0.394,-0.455,0.077,0.702,-0.21,-0.288
1865,0.133,-0.891,-0.092,-0.148,-1.456,-0.032,0.693,-0.225,-0.294
1866,-0.424,-1.28,-0.217,0.536,-1.993,0.541,0.693,-0.231,-0.27
1867,-0.216,-1.003,-0.709,0.301,-1.386,0.319,0.697,-0.207,-0.291
1868,-0.142,-1.214,-1.078,-0.604,-0.514,-0.119,0.694,-0.214,-0.3
1869,0.221,-1.67,-1.138,-0.465,-0.261,-0.225,0.726,-0.211,-0.285
1870,0.609,-1.39,-0.841,0.063,-0.588,-0.512,0.732,-0.205,-0.3
1871,0.555,-0.931,-0.619,0.359,-1.122,-0.249,0.724,-0.207,-0.309
1872,0.334,-0.781,-0.65,0.612,-1.345,-0.115,0.75,-0.189,-0.289
1873,0.286,-0.73,-0.667,0.543,-1.21,-0.104,0.762,-0.193,-0.31
1874,0.287,-0.646,-0.607,0.236,-0.981,-0.13,0.757,-0.189,-0.298
1875,0.326,-0.701,-0.575,0.077,-0.835,-0.123,0.757,-0.189,-0.298
1876,0.31,-0.646,-0.611,0.18,-0.877,-0.181,0.769,-0.177,-0.291
1877,0.309,-0.479,-0.588,0.18,-0.877,-0.181,0.795,-0.186,-0.289
1878,0.415,-0.46,-0.518,0.314,-0.942,-0.2,0.783,-0.184,-0.319
1879,0.44,-0.497,-0.532,0.254,-0.91,-0.153,0.793,-0.169,-0.303
1880,0.469,-0.63,-0.606,0.123,-0.874,-0.092,0.804,-0.18,-0.315
1881,0.445,-0.617,-0.658,0.026,-0.877,-0.093,0.813,-0.156,-0.306
1882,0.418,-0.464,-0.651,0.053,-0.876,-0.114,0.819,-0.142,-0.282
1883,0.407,-0.427,-0.66,0.155,-0.868,-0.135,0.822,-0.166,-0.294
1884,0.435,-0.427,-0.693,0.216,-0.89,-0.114,0.835,-0.168,-0.289
1885,0.434,-0.429,-0.73,0.248,-0.904,-0.088,0.826,-0.163,-0.292
1886,0.358,-0.411,-0.749,0.228,-0.925,-0.062,0.847,-0.141,-0.291
1887,0.261,-0.396,-0.725,0.245,-0.969,-0.035,0.859,-0.135,-0.33
1888,0.179,-0.336,-0.656,0.333,-0.999,-0.032,0.84,-0.12,-0.28
1889,0.08,-0.133,-0.573,0.409,-1.029,-0.034,0.877,-0.12,-0.291
1890,-0.051,0.116,-0.422,0.418,-1.064,-0.039,0.868,-0.118,-0.273
1891,-0.213,0.288,-0.249,0.386,-1.041,0.019,0.868,-0.118,-0.273
1892,-0.47,0.336,-0.032,0.365,-1.015,0.079,0.882,-0.12,-0.289
1893,-0.667,0.37,0.282,0.611,-1.182,-0.174,0.876,-0.114,-0.276
1894,-0.822,0.355,0.618,0.517,-1.325,0.013,0.876,-0.114,-0.276
1895,-0.988,0.146,1.067,0.517,-1.325,0.013,0.855,-0.112,-0.303
1896,-1.026,0.003,1.347,0.235,-1.368,0.099,0.849,-0.126,-0.298
1897,-1.105,0.044,1.514,-0.068,-1.334,-0.025,0.844,-0.147,-0.303
1898,-1.137,-0.044,1.666,-0.182,-1.524,-0.045,0.835,-0.147,-0.316
1899,-1.143,-0.284,1.544,-0.205,-1.664,-0.03,0.78,-0.18,-0.327
1900,-0.863,-0.511,1.448,-0.183,-1.443,0.039,0.777,-0.19,-0.354
1901,-0.539,-0.523,1.573,0.0,-1.213,0.117,0.768,-0.192,-0.378
1902,-0.364,-0.414,1.523,0.333,-1.234,0.009,0.738,-0.208,-0.402
1903,-0.588,0.251,1.355,0.468,-1.27,-0.117,0.699,-0.195,-0.399
1904,-0.503,0.544,1.158,0.229,-1.097,-0.057,0.693,-0.204,-0.393
1905,-0.292,0.671,1.026,0.023,-0.878,0.006,0.693,-0.204,-0.393
1906,-0.207,0.948,0.997,0.073,-0.742,-0.034,0.694,-0.222,-0.417
1907,-0.159,1.129,0.937,0.164,-0.71,-0.025,0.684,-0.216,-0.405
1908,-0.078,1.082,0.788,0.125,-0.702,0.007,0.648,-0.216,-0.385
1909,0.072,0.95,0.548,-0.065,-0.607,0.007,0.666,-0.207,-0.417
1910,0.27,0.687,0.312,-0.173,-0.466,-0.008,0.627,-0.223,-0.385
1911,0.438,0.436,0.116,-0.022,-0.412,0.048,0.645,-0.222,-0.396
1912,0.586,0.28,-0.07,-0.022,-0.412,0.048,0.649,-0.216,-0.4
1913,0.676,0.29,-0.247,0.066,-0.39,0.14,0.645,-0.214,-0.378
1914,0.695,0.435,-0.382,0.172,-0.398,0.258,0.633,-0.213,-0.376
1915,0.665,0.511,-0.438,0.457,-0.492,0.383,0.645,-0.219,-0.346
1916,0.487,0.532,-0.373,0.837,-0.604,0.503,0.657,-0.211,-0.358
1917,0.181,0.5,-0.06,1.121,-0.791,0.625,0.658,-0.229,-0.337
1918,0.179,1.029,0.458,1.279,-1.146,0.596,0.66,-0.214,-0.336
1919,0.168,1.079,0.576,1.206,-1.449,0.501,0.66,-0.214,-0.336
1920,0.079,0.56,0.173,0.851,-0.995,0.679,0.654,-0.207,-0.327
1921,0.018,0.697,-0.198,-0.062,-0.396,0.951,0.627,-0.207,-0.312
1922,-0.06,0.472,-0.075,-0.398,-0.977,0.293,0.648,-0.226,-0.312
1923,-0.303,-0.578,-0.197,-0.039,-1.811,0.161,0.643,-0.207,-0.313
1924,-0.141,-1.0,-0.613,-0.09,-1.415,0.166,0.654,-0.205,-0.316
1925,-0.036,-1.274,-0.95,-0.359,-0.67,-0.246,0.651,-0.214,-0.333
1926,0.27,-1.408,-1.052,-0.339,-0.531,-0.311,0.661,-0.198,-0.346
1927,0.632,-1.428,-0.89,-0.048,-0.814,-0.372,0.678,-0.204,-0.316
1928,0.686,-1.251,-0.704,0.24,-1.231,-0.215,0.702,-0.192,-0.325
1929,0.519,-1.093,-0.718,0.538,-1.106,-0.065,0.711,-0.183,-0.333
1930,0.413,-0.975,-0.774,0.538,-1.106,-0.065,0.712,-0.172,-0.327
1931,0.354,-0.707,-0.755,0.23,-0.969,-0.079,0.712,-0.172,-0.327
