,Gyroscope X (deg/s),Gyroscope Y (deg/s),Gyroscope Z (deg/s),Accelerometer X (g),Accelerometer Y (g),Accelerometer Z (g),Magnetometer X (G),Magnetometer Y (G),Magnetometer Z (G)
1,3.0,-37.0,17.0,0.55,-0.06,0.5,0.322,-0.217,-0.843
2,-1.0,-12.0,30.0,0.44,0.04,0.64,0.327,-0.216,-0.849
3,-29.0,-24.0,37.0,0.58,0.04,0.57,0.319,-0.223,-0.837
4,0.0,-33.0,49.0,0.6,-0.08,0.67,0.322,-0.219,-0.847
5,28.0,-29.0,95.0,0.7,0.29,0.7,0.315,-0.211,-0.85
6,10.0,-23.0,107.0,0.98,0.28,0.62,0.319,-0.219,-0.846
7,25.0,-11.0,138.0,1.14,0.03,0.66,0.316,-0.223,-0.844
8,38.0,12.0,190.0,1.23,0.27,0.48,0.316,-0.21,-0.846
9,40.0,10.0,247.0,1.67,-0.01,0.49,0.295,-0.213,-0.853
10,96.0,-16.0,212.0,1.6,-0.03,0.22,0.295,-0.211,-0.856
11,102.0,-60.0,144.0,1.39,0.0,0.32,0.286,-0.222,-0.846
12,67.0,-41.0,140.0,1.14,0.18,0.43,0.289,-0.213,-0.846
13,-14.0,-70.0,186.0,1.19,0.29,0.63,0.274,-0.223,-0.852
14,-29.0,-43.0,173.0,1.35,0.34,0.78,0.262,-0.217,-0.853
15,3.0,-51.0,52.0,1.3,0.54,0.93,0.276,-0.214,-0.844
16,-70.0,-142.0,62.0,0.48,0.38,0.65,0.271,-0.226,-0.846
17,-39.0,-136.0,123.0,0.62,-0.28,0.94,0.271,-0.226,-0.865
18,14.0,-42.0,49.0,0.1,0.38,0.49,0.267,-0.229,-0.862
19,-76.0,-81.0,-130.0,0.1,-0.01,0.23,0.262,-0.238,-0.862
20,-72.0,-37.0,-208.0,-0.49,-0.45,0.59,0.271,-0.24,-0.87
21,-34.0,12.0,-62.0,-0.24,-0.6,0.9,0.276,-0.238,-0.88
22,1.0,36.0,27.0,0.37,-0.3,0.65,0.28,-0.237,-0.882
23,4.0,96.0,-21.0,0.59,-0.01,0.35,0.283,-0.24,-0.874
24,-27.0,98.0,-81.0,0.35,-0.1,0.12,0.279,-0.235,-0.874
25,-43.0,66.0,-75.0,0.17,-0.34,0.1,0.289,-0.228,-0.864
26,-31.0,-28.0,-68.0,-0.1,-0.23,-0.23,0.28,-0.225,-0.864
27,-9.0,-60.0,-6.0,0.03,-0.46,-0.1,0.291,-0.234,-0.87
28,-23.0,-72.0,23.0,0.4,-0.14,-0.4,0.282,-0.231,-0.871
29,-42.0,-114.0,31.0,0.53,-0.35,-0.73,0.291,-0.243,-0.864
30,-39.0,-223.0,2.0,0.62,-0.34,-0.79,0.285,-0.252,-0.871
31,13.0,-117.0,-30.0,0.18,-0.54,-0.53,0.295,-0.253,-0.87
32,1.0,-13.0,-1.0,0.19,-0.23,-0.53,0.288,-0.264,-0.874
33,-109.0,24.0,26.0,0.69,-0.48,-0.99,0.291,-0.258,-0.87
34,-242.0,1.0,182.0,0.84,-0.32,-0.66,0.292,-0.258,-0.865
35,-218.0,-95.0,79.0,0.45,0.08,2.37,0.3,-0.255,-0.873
36,-118.0,-94.0,-82.0,0.09,0.4,3.87,0.309,-0.271,-0.862
37,98.0,368.0,-160.0,2.29,-0.02,4.19,0.309,-0.268,-0.862
38,-82.0,200.0,-183.0,1.28,0.77,2.47,0.319,-0.259,-0.858
39,-61.0,139.0,44.0,0.33,-0.57,0.74,0.318,-0.249,-0.85
40,30.0,-30.0,42.0,0.58,0.21,-1.98,0.319,-0.253,-0.841
41,-30.0,-280.0,-142.0,0.71,0.16,-2.87,0.313,-0.259,-0.853
42,-61.0,-231.0,-158.0,0.43,-0.08,-2.92,0.328,-0.276,-0.856
43,-21.0,-53.0,-108.0,0.54,0.11,-1.64,0.327,-0.277,-0.867
44,15.0,59.0,-97.0,0.23,0.74,-0.49,0.327,-0.273,-0.853
45,17.0,-48.0,-52.0,0.75,0.37,0.83,0.324,-0.291,-0.841
46,174.0,-38.0,16.0,-0.19,0.73,3.37,0.333,-0.283,-0.837
47,145.0,-269.0,148.0,-0.67,0.93,3.62,0.327,-0.292,-0.832
48,272.0,-194.0,306.0,0.28,-1.18,5.0,0.316,-0.306,-0.84
49,200.0,-65.0,502.0,-0.25,0.38,1.08,0.307,-0.297,-0.846
50,114.0,30.0,385.0,1.38,-0.79,0.29,0.292,-0.304,-0.837
51,28.0,76.0,268.0,-0.35,0.0,-2.16,0.283,-0.297,-0.837
52,-124.0,-86.0,378.0,0.44,-1.25,-2.49,0.265,-0.3,-0.825
53,-58.0,-21.0,529.0,0.83,-1.44,-1.29,0.265,-0.306,-0.817
54,86.0,48.0,312.0,0.84,-1.1,-0.27,0.262,-0.331,-0.822
55,-45.0,-126.0,158.0,-0.12,-0.06,0.24,0.249,-0.33,-0.82
56,-186.0,-46.0,148.0,-0.21,-0.68,2.45,0.253,-0.34,-0.813
57,-307.0,12.0,175.0,-0.34,0.58,2.96,0.243,-0.331,-0.81
58,-213.0,122.0,-72.0,2.66,-0.35,3.56,0.262,-0.333,-0.808
59,219.0,280.0,-595.0,2.09,-0.3,1.56,0.273,-0.39,-0.792
60,56.0,215.0,-231.0,0.91,0.28,1.83,0.286,-0.385,-0.783
61,-78.0,157.0,-168.0,0.97,0.72,-1.31,0.285,-0.37,-0.777
62,-53.0,-241.0,-219.0,0.67,0.29,-2.46,0.295,-0.372,-0.775
63,-21.0,-490.0,-274.0,0.92,0.04,-2.51,0.294,-0.37,-0.783
64,72.0,-401.0,-298.0,0.84,-0.15,-1.27,0.306,-0.397,-0.786
65,108.0,-232.0,-245.0,0.09,1.03,-1.02,0.307,-0.406,-0.792
66,80.0,-40.0,-316.0,0.63,1.64,2.07,0.303,-0.414,-0.787
67,-128.0,-213.0,-394.0,-0.26,0.99,3.47,0.307,-0.399,-0.784
68,-121.0,-272.0,-177.0,-0.65,-0.43,4.34,0.303,-0.406,-0.798
69,57.0,23.0,145.0,0.59,0.71,3.7,0.325,-0.4,-0.792
70,106.0,317.0,-2.0,2.05,1.14,2.44,0.327,-0.397,-0.798
71,-2.0,242.0,-319.0,1.75,-0.41,-0.43,0.328,-0.447,-0.784
72,51.0,156.0,-91.0,1.06,-1.14,-0.56,0.336,-0.496,-0.772
73,88.0,-64.0,385.0,1.31,-0.69,-2.11,0.333,-0.541,-0.775
74,50.0,-233.0,214.0,0.73,-0.51,-1.35,0.325,-0.55,-0.771
75,-9.0,-210.0,136.0,0.01,-0.53,-1.51,0.325,-0.556,-0.783
76,-98.0,22.0,81.0,0.52,-0.7,-1.06,0.313,-0.552,-0.78
77,-228.0,72.0,79.0,-0.22,-0.06,-1.17,0.316,-0.544,-0.777
78,-290.0,135.0,196.0,1.65,-0.86,1.63,0.324,-0.541,-0.772
79,-177.0,107.0,117.0,0.32,1.46,3.83,0.336,-0.531,-0.763
80,-185.0,-86.0,-140.0,1.57,0.52,4.84,0.337,-0.531,-0.763
81,-235.0,236.0,-18.0,0.51,0.25,3.03,0.355,-0.529,-0.759
82,-93.0,193.0,56.0,1.01,0.27,2.11,0.36,-0.52,-0.748
83,51.0,91.0,71.0,0.21,0.8,0.15,0.364,-0.502,-0.753
84,38.0,44.0,81.0,1.61,0.25,-1.03,0.357,-0.508,-0.756
85,-58.0,88.0,86.0,1.12,0.14,-1.73,0.349,-0.502,-0.763
86,-69.0,-170.0,144.0,0.21,-0.16,-1.77,0.348,-0.496,-0.748
87,47.0,-406.0,186.0,0.47,-0.15,-1.73,0.349,-0.514,-0.763
88,155.0,-408.0,166.0,1.18,-0.02,-0.25,0.343,-0.526,-0.772
89,158.0,-219.0,127.0,0.97,0.65,0.65,0.34,-0.54,-0.778
90,-44.0,-102.0,133.0,1.36,0.29,1.95,0.322,-0.547,-0.798
91,-74.0,56.0,151.0,-0.19,-0.13,2.37,0.324,-0.544,-0.789
92,-84.0,88.0,231.0,-0.26,-1.1,3.26,0.321,-0.552,-0.786
93,130.0,191.0,472.0,-1.25,-0.72,3.05,0.325,-0.54,-0.783
94,58.0,246.0,689.0,0.47,0.24,1.8,0.309,-0.549,-0.771
95,-4.0,109.0,560.0,0.74,0.38,-0.72,0.307,-0.537,-0.777
96,33.0,-234.0,500.0,0.92,-0.37,-1.6,0.282,-0.538,-0.783
97,60.0,-354.0,590.0,-0.11,-0.6,-2.31,0.264,-0.55,-0.789
98,109.0,-409.0,679.0,0.1,-1.09,-1.78,0.255,-0.568,-0.789
99,162.0,-218.0,731.0,0.51,-0.93,-0.63,0.237,-0.591,-0.793
100,100.0,122.0,854.0,0.96,-0.19,0.05,0.231,-0.615,-0.789
101,-25.0,434.0,856.0,0.86,0.67,3.42,0.207,-0.601,-0.775
102,-109.0,453.0,733.0,-0.77,1.96,6.73,0.202,-0.594,-0.756
103,-95.0,30.0,779.0,0.04,0.65,5.21,0.202,-0.598,-0.756
104,73.0,-192.0,624.0,-0.73,0.78,3.09,0.202,-0.612,-0.754
105,116.0,-171.0,606.0,-0.32,0.62,0.02,0.184,-0.63,-0.76
106,53.0,6.0,733.0,0.37,1.1,-2.23,0.166,-0.63,-0.763
107,-64.0,-74.0,612.0,1.33,0.37,-2.02,0.16,-0.657,-0.756
108,-41.0,23.0,525.0,0.81,0.97,-0.27,0.144,-0.681,-0.757
109,-36.0,-21.0,576.0,1.54,0.91,0.89,0.159,-0.67,-0.76
110,-18.0,-210.0,531.0,1.04,0.83,1.85,0.156,-0.709,-0.756
111,-11.0,-341.0,469.0,0.94,0.35,2.28,0.16,-0.727,-0.75
112,-38.0,-138.0,617.0,0.43,-0.23,1.36,0.168,-0.747,-0.762
113,-98.0,-226.0,669.0,-0.63,0.58,0.27,0.159,-0.756,-0.76
114,9.0,-413.0,546.0,-0.64,0.34,1.19,0.165,-0.78,-0.757
115,204.0,-366.0,511.0,-0.91,0.3,0.92,0.177,-0.802,-0.75
116,137.0,-49.0,658.0,1.15,0.55,0.91,0.172,-0.823,-0.75
117,-4.0,250.0,704.0,1.44,1.12,-0.82,0.165,-0.816,-0.745
118,86.0,131.0,714.0,0.82,-0.27,-0.16,0.169,-0.826,-0.753
119,273.0,28.0,735.0,0.21,-0.33,0.01,0.166,-0.829,-0.747
120,233.0,99.0,723.0,0.89,-0.11,0.34,0.163,-0.837,-0.736
121,52.0,215.0,750.0,0.85,-0.34,0.55,0.165,-0.841,-0.732
122,27.0,84.0,798.0,1.3,-0.72,0.93,0.166,-0.849,-0.742
123,93.0,-16.0,789.0,0.92,-0.24,1.14,0.168,-0.865,-0.739
124,81.0,-191.0,846.0,1.17,-0.41,0.85,0.177,-0.879,-0.736
125,72.0,-198.0,1046.0,1.8,-0.1,2.03,0.177,-0.9,-0.73
126,94.0,0.0,1075.0,-0.6,2.03,2.34,0.184,-0.913,-0.735
127,72.0,-319.0,994.0,-0.34,2.74,0.44,0.189,-0.826,-0.718
128,37.0,89.0,420.0,1.84,2.73,0.19,0.211,-0.774,-0.726
129,13.0,271.0,562.0,0.48,1.17,-0.13,0.225,-0.771,-0.729
130,-51.0,313.0,679.0,0.5,0.77,-0.73,0.241,-0.774,-0.736
131,-134.0,104.0,656.0,0.82,0.65,-0.64,0.247,-0.762,-0.735
132,-69.0,-102.0,588.0,0.45,0.5,0.4,0.265,-0.78,-0.739
133,-79.0,-75.0,536.0,1.28,0.8,0.45,0.271,-0.784,-0.733
134,-105.0,-12.0,453.0,1.37,0.64,0.36,0.282,-0.789,-0.733
135,-84.0,-7.0,427.0,1.71,0.63,0.16,0.298,-0.79,-0.733
136,-80.0,-137.0,395.0,1.25,0.59,0.56,0.31,-0.795,-0.738
137,-12.0,-291.0,361.0,0.22,0.32,1.08,0.324,-0.805,-0.727
138,37.0,-81.0,385.0,0.3,-0.38,2.6,0.345,-0.816,-0.729
139,130.0,-242.0,367.0,-1.39,0.42,0.68,0.348,-0.796,-0.733
140,112.0,-365.0,237.0,-1.01,-0.8,1.41,0.342,-0.772,-0.732
141,130.0,-92.0,274.0,0.44,0.84,0.22,0.33,-0.778,-0.723
142,-9.0,107.0,135.0,1.38,1.04,-0.22,0.327,-0.777,-0.726
143,-22.0,198.0,141.0,0.46,-0.03,-0.5,0.33,-0.778,-0.726
144,48.0,112.0,258.0,0.48,0.03,-1.01,0.336,-0.775,-0.735
145,67.0,32.0,303.0,0.88,0.28,-1.14,0.346,-0.771,-0.732
146,-40.0,119.0,328.0,1.21,0.14,-1.36,0.337,-0.771,-0.738
147,-53.0,144.0,277.0,0.38,-0.21,-1.74,0.36,-0.772,-0.738
148,-3.0,-47.0,266.0,0.0,-0.9,-0.98,0.375,-0.771,-0.748
149,14.0,-140.0,300.0,-0.17,-0.86,-1.24,0.37,-0.769,-0.738
150,-61.0,-200.0,294.0,0.33,-0.4,-0.54,0.384,-0.772,-0.73
151,-125.0,-205.0,273.0,0.87,-0.3,2.28,0.387,-0.771,-0.729
152,-60.0,-53.0,196.0,0.17,1.4,3.77,0.399,-0.783,-0.723
153,-57.0,114.0,-13.0,0.87,1.59,2.74,0.406,-0.787,-0.735
154,-46.0,220.0,-172.0,0.47,0.77,1.77,0.408,-0.778,-0.738
155,-107.0,256.0,-112.0,0.03,1.03,-0.06,0.405,-0.774,-0.735
156,-105.0,146.0,-119.0,0.85,0.29,-0.9,0.402,-0.766,-0.742
157,16.0,93.0,-142.0,0.1,0.47,-0.92,0.403,-0.768,-0.748
158,53.0,-239.0,-136.0,0.84,0.52,-0.54,0.409,-0.772,-0.742
159,110.0,-289.0,-118.0,0.81,0.19,-0.24,0.402,-0.772,-0.745
160,141.0,-135.0,-84.0,0.79,-0.02,0.56,0.399,-0.793,-0.745
161,130.0,-104.0,-142.0,0.13,0.96,1.12,0.396,-0.784,-0.738
162,149.0,-214.0,-216.0,-0.3,0.09,3.19,0.381,-0.798,-0.742
163,156.0,-217.0,-7.0,-0.55,-0.29,3.42,0.378,-0.81,-0.736
164,165.0,-99.0,163.0,-0.08,0.29,1.38,0.372,-0.804,-0.745
165,27.0,-6.0,154.0,0.89,0.36,-0.37,0.369,-0.814,-0.742
166,-37.0,63.0,57.0,0.7,0.16,-0.63,0.369,-0.81,-0.738
167,-32.0,128.0,104.0,-0.31,0.2,-1.54,0.363,-0.807,-0.738
168,-90.0,-47.0,226.0,0.33,-0.12,-1.32,0.376,-0.805,-0.742
169,-22.0,-49.0,284.0,0.42,-0.22,0.08,0.379,-0.813,-0.747
170,1.0,-12.0,277.0,0.37,0.52,0.45,0.375,-0.801,-0.751
171,-49.0,-53.0,210.0,0.57,0.65,2.04,0.391,-0.805,-0.745
172,-75.0,-14.0,177.0,0.45,0.76,2.94,0.391,-0.799,-0.739
173,19.0,52.0,76.0,1.1,0.7,2.99,0.388,-0.801,-0.747
174,96.0,94.0,60.0,-0.02,1.03,1.56,0.405,-0.796,-0.748
175,-23.0,0.0,82.0,1.05,0.63,0.3,0.397,-0.792,-0.76
176,36.0,81.0,40.0,0.19,0.75,-0.22,0.403,-0.787,-0.75
177,-25.0,110.0,80.0,0.43,0.94,-0.94,0.387,-0.783,-0.757
178,-91.0,-60.0,14.0,0.78,0.91,-1.73,0.391,-0.778,-0.754
179,-42.0,-116.0,-51.0,0.62,0.42,-0.4,0.394,-0.781,-0.754
180,-4.0,-115.0,11.0,-0.02,0.52,-0.34,0.39,-0.778,-0.748
181,-23.0,-66.0,-18.0,0.86,0.38,1.32,0.4,-0.781,-0.745
182,-6.0,-5.0,-71.0,-0.57,0.85,2.36,0.403,-0.781,-0.751
183,3.0,-242.0,7.0,-1.11,0.6,1.93,0.394,-0.783,-0.753
184,96.0,-249.0,169.0,0.11,-0.36,3.41,0.396,-0.784,-0.748
185,121.0,-10.0,360.0,0.15,1.05,1.6,0.393,-0.792,-0.739
186,74.0,143.0,329.0,1.34,1.11,0.63,0.388,-0.787,-0.748
187,2.0,247.0,275.0,0.4,0.95,-0.92,0.394,-0.774,-0.753
188,5.0,232.0,252.0,0.04,0.0,-1.16,0.399,-0.76,-0.754
189,-15.0,78.0,291.0,-0.29,-0.25,-1.72,0.4,-0.753,-0.759
190,-32.0,-132.0,266.0,-0.3,-0.33,-0.87,0.399,-0.744,-0.762
191,-66.0,-247.0,315.0,-0.7,-0.14,0.31,0.409,-0.751,-0.747
192,-122.0,-250.0,305.0,0.47,-0.18,1.61,0.417,-0.756,-0.741
193,-79.0,-135.0,301.0,-0.2,1.24,3.1,0.433,-0.754,-0.736
194,-49.0,57.0,211.0,0.39,1.22,2.6,0.433,-0.747,-0.735
195,-102.0,97.0,78.0,1.16,0.63,1.85,0.448,-0.741,-0.736
196,-41.0,289.0,32.0,0.93,-0.44,1.64,0.436,-0.741,-0.729
197,-39.0,338.0,86.0,0.14,1.07,0.8,0.441,-0.72,-0.73
198,-88.0,60.0,-91.0,1.33,1.49,-0.91,0.444,-0.717,-0.739
199,-68.0,-91.0,-235.0,0.96,0.96,-1.03,0.435,-0.718,-0.733
200,-51.0,-93.0,-142.0,0.65,1.11,-1.36,0.445,-0.724,-0.729
201,-44.0,-114.0,-23.0,1.08,0.74,-0.86,0.448,-0.732,-0.727
202,-11.0,-128.0,39.0,0.75,0.96,-1.21,0.436,-0.724,-0.738
203,16.0,-140.0,74.0,0.82,0.42,0.12,0.439,-0.727,-0.729
204,63.0,-170.0,199.0,-0.28,1.17,1.74,0.456,-0.736,-0.723
205,30.0,-318.0,188.0,0.12,0.82,1.92,0.463,-0.742,-0.714
206,67.0,-306.0,163.0,-0.01,0.13,2.32,0.463,-0.742,-0.723
207,162.0,-230.0,254.0,-0.59,0.39,3.12,0.465,-0.75,-0.703
208,129.0,-242.0,375.0,0.07,1.0,1.11,0.468,-0.759,-0.724
209,19.0,-23.0,303.0,1.88,0.1,1.3,0.465,-0.757,-0.708
210,-41.0,193.0,333.0,0.46,0.53,-0.03,0.472,-0.748,-0.723
211,-100.0,206.0,362.0,1.31,-0.02,-0.13,0.478,-0.745,-0.715
212,27.0,165.0,431.0,0.13,0.3,0.14,0.486,-0.738,-0.718
213,23.0,27.0,543.0,1.09,0.57,-0.39,0.508,-0.724,-0.727
214,-29.0,6.0,478.0,1.75,-0.15,-0.08,0.508,-0.715,-0.729
215,-52.0,70.0,454.0,0.81,0.44,0.49,0.514,-0.712,-0.724
216,-186.0,-210.0,508.0,0.72,0.56,0.11,0.52,-0.706,-0.735
217,-131.0,-348.0,575.0,0.38,-0.09,2.66,0.543,-0.718,-0.715
218,-81.0,-381.0,721.0,-0.45,1.55,2.62,0.561,-0.723,-0.72
219,-11.0,-98.0,572.0,1.81,0.36,2.94,0.576,-0.712,-0.724
220,103.0,272.0,452.0,0.92,0.43,1.77,0.598,-0.702,-0.721
221,41.0,285.0,426.0,0.97,0.39,0.57,0.601,-0.696,-0.721
222,-16.0,220.0,480.0,0.65,-0.32,0.13,0.607,-0.67,-0.726
223,-12.0,138.0,611.0,0.69,0.15,-0.2,0.613,-0.667,-0.738
224,18.0,-72.0,571.0,1.24,0.5,-0.06,0.625,-0.645,-0.741
225,37.0,-110.0,505.0,1.4,0.1,0.22,0.633,-0.643,-0.747
226,45.0,-144.0,490.0,1.42,0.14,0.4,0.639,-0.627,-0.745
227,93.0,-201.0,459.0,1.07,0.45,0.94,0.636,-0.621,-0.751
228,109.0,-246.0,447.0,0.89,0.58,1.94,0.663,-0.631,-0.756
229,121.0,-258.0,427.0,-0.86,0.86,1.3,0.669,-0.633,-0.762
230,17.0,-279.0,481.0,0.5,-0.09,1.31,0.678,-0.634,-0.768
231,-2.0,-147.0,500.0,0.58,0.07,0.29,0.696,-0.645,-0.759
232,-29.0,-13.0,485.0,1.41,0.1,0.42,0.703,-0.633,-0.762
233,23.0,67.0,443.0,0.72,0.57,0.59,0.714,-0.606,-0.78
234,22.0,12.0,463.0,1.15,0.58,0.46,0.724,-0.603,-0.769
235,26.0,14.0,413.0,1.47,0.22,0.07,0.724,-0.586,-0.777
236,-9.0,65.0,385.0,1.54,0.02,0.11,0.724,-0.577,-0.778
237,-49.0,106.0,392.0,1.28,-0.07,-0.11,0.739,-0.559,-0.778
238,-94.0,105.0,444.0,1.16,-0.19,0.0,0.744,-0.556,-0.771
239,-44.0,141.0,458.0,1.19,-0.25,0.31,0.754,-0.531,-0.777
240,26.0,65.0,415.0,0.96,-0.12,1.19,0.765,-0.513,-0.786
241,35.0,-99.0,420.0,1.14,-0.35,1.24,0.771,-0.501,-0.781
242,84.0,-124.0,478.0,0.96,-0.02,1.03,0.771,-0.493,-0.789
243,134.0,-100.0,538.0,0.93,0.44,1.86,0.768,-0.478,-0.798
244,59.0,-77.0,569.0,0.47,0.37,0.65,0.756,-0.463,-0.799
245,-13.0,-124.0,630.0,0.44,0.3,0.36,0.76,-0.447,-0.816
246,38.0,-82.0,683.0,0.34,0.31,0.67,0.76,-0.444,-0.802
247,42.0,6.0,665.0,0.78,0.55,0.19,0.736,-0.418,-0.807
248,16.0,-19.0,562.0,0.77,0.44,-0.08,0.736,-0.405,-0.799
249,-14.0,-31.0,556.0,0.57,0.05,-0.03,0.72,-0.387,-0.811
250,7.0,46.0,572.0,0.85,0.4,0.21,0.709,-0.376,-0.816
251,9.0,25.0,480.0,1.08,0.61,0.0,0.717,-0.361,-0.811
252,58.0,-33.0,381.0,0.81,0.41,0.43,0.699,-0.342,-0.804
253,60.0,-139.0,365.0,0.64,0.39,0.47,0.691,-0.36,-0.81
254,0.0,-149.0,323.0,1.21,0.08,0.56,0.693,-0.355,-0.816
255,-35.0,-109.0,287.0,0.75,-0.03,1.3,0.687,-0.355,-0.816
256,-49.0,49.0,284.0,0.38,-0.07,1.57,0.678,-0.357,-0.82
257,-18.0,102.0,292.0,-0.23,0.11,1.11,0.672,-0.348,-0.825
258,9.0,-58.0,285.0,-0.21,0.08,0.48,0.655,-0.34,-0.811
259,136.0,-98.0,378.0,-0.33,-0.3,0.76,0.651,-0.346,-0.822
260,168.0,19.0,520.0,0.26,0.55,0.54,0.637,-0.337,-0.823
261,111.0,23.0,394.0,0.82,0.66,0.3,0.625,-0.327,-0.823
262,30.0,57.0,311.0,0.29,0.36,-0.09,0.609,-0.319,-0.82
263,0.0,109.0,391.0,0.14,-0.49,0.11,0.592,-0.315,-0.813
264,38.0,116.0,548.0,0.0,-0.39,0.21,0.582,-0.303,-0.807
265,172.0,-133.0,783.0,-0.08,0.04,0.55,0.567,-0.247,-0.81
266,199.0,-200.0,875.0,-1.35,0.34,0.93,0.516,-0.147,-0.838
267,191.0,-107.0,777.0,0.56,1.16,2.11,0.45,-0.133,-0.84
268,200.0,-95.0,856.0,-0.92,1.69,0.97,0.426,-0.13,-0.835
269,148.0,-51.0,569.0,6.11,3.56,1.53,0.384,-0.204,-0.826
270,186.0,-9.0,638.0,-0.27,0.2,0.3,0.381,-0.208,-0.832
271,123.0,28.0,207.0,0.76,1.88,-0.97,0.358,-0.217,-0.829
272,0.0,51.0,320.0,0.57,0.68,-1.36,0.331,-0.222,-0.828
273,-44.0,32.0,319.0,0.44,0.42,-2.05,0.321,-0.231,-0.811
274,30.0,55.0,308.0,0.78,1.13,-2.0,0.31,-0.22,-0.816
275,-39.0,-50.0,178.0,0.62,1.08,-1.05,0.31,-0.213,-0.819
276,-112.0,-60.0,140.0,1.28,1.27,-1.21,0.297,-0.214,-0.822
277,-79.0,-66.0,-25.0,1.65,0.78,-1.1,0.291,-0.216,-0.805
278,-116.0,-28.0,41.0,1.29,0.78,-0.23,0.289,-0.22,-0.817
279,-72.0,0.0,16.0,0.68,1.05,1.79,0.294,-0.217,-0.799
280,-30.0,-151.0,88.0,0.0,0.76,3.69,0.301,-0.226,-0.804
281,57.0,-172.0,142.0,0.73,0.46,3.7,0.309,-0.247,-0.796
282,87.0,30.0,247.0,-0.28,0.69,1.13,0.283,-0.246,-0.799
283,-9.0,-63.0,228.0,1.57,-0.61,-0.23,0.288,-0.253,-0.792
284,133.0,-42.0,198.0,0.34,-0.64,-1.46,0.27,-0.274,-0.789
285,-25.0,-19.0,232.0,0.92,-0.28,-2.06,0.268,-0.289,-0.783
286,65.0,-9.0,132.0,0.81,0.11,-0.69,0.27,-0.298,-0.762
287,9.0,78.0,129.0,0.16,0.53,0.06,0.253,-0.297,-0.765
288,-57.0,40.0,115.0,0.15,0.44,1.42,0.246,-0.304,-0.759
289,-82.0,0.0,20.0,0.86,1.38,3.08,0.247,-0.306,-0.75
290,4.0,156.0,-81.0,2.32,1.46,4.8,0.237,-0.31,-0.745
291,-65.0,180.0,-35.0,-0.36,2.0,2.72,0.24,-0.312,-0.729
292,-164.0,-86.0,-7.0,1.39,0.65,0.93,0.228,-0.312,-0.726
293,-61.0,-115.0,0.0,0.61,0.77,-1.02,0.234,-0.315,-0.736
294,-77.0,-158.0,66.0,0.97,0.97,-2.28,0.222,-0.322,-0.729
295,-23.0,-196.0,5.0,1.02,1.12,-2.51,0.226,-0.336,-0.729
296,-34.0,-139.0,-40.0,1.36,1.02,-0.92,0.231,-0.348,-0.73
297,13.0,-95.0,2.0,0.85,0.99,0.15,0.234,-0.348,-0.727
298,11.0,-114.0,-12.0,0.18,1.08,2.29,0.226,-0.357,-0.714
299,79.0,-280.0,30.0,-0.96,0.05,3.12,0.229,-0.372,-0.717
300,27.0,-123.0,78.0,1.19,0.16,2.69,0.231,-0.387,-0.709
301,122.0,161.0,176.0,0.68,0.15,2.15,0.222,-0.388,-0.714
302,47.0,104.0,289.0,1.24,-0.25,0.34,0.207,-0.39,-0.699
303,34.0,3.0,134.0,1.04,-0.38,-0.23,0.208,-0.403,-0.702
304,-5.0,31.0,154.0,0.16,-0.05,-0.89,0.19,-0.406,-0.699
305,-81.0,-116.0,268.0,0.29,-0.19,-1.21,0.198,-0.402,-0.691
306,-51.0,-86.0,450.0,0.7,-0.17,-0.45,0.184,-0.412,-0.696
307,-144.0,-176.0,236.0,0.58,-0.34,-1.14,0.192,-0.412,-0.702
308,-103.0,-213.0,165.0,0.73,0.37,1.53,0.184,-0.414,-0.708
309,-48.0,-118.0,352.0,0.94,1.86,2.44,0.19,-0.372,-0.702
310,-68.0,180.0,-162.0,1.86,0.76,2.05,0.184,-0.333,-0.709
311,56.0,193.0,-91.0,2.16,1.07,1.88,0.169,-0.382,-0.687
312,-49.0,77.0,-29.0,1.25,0.94,0.84,0.184,-0.388,-0.69
313,-102.0,-2.0,-77.0,1.24,0.41,-0.24,0.19,-0.394,-0.697
314,-93.0,-108.0,-47.0,1.35,0.45,-1.61,0.183,-0.394,-0.691
315,23.0,-112.0,-83.0,1.66,0.93,-1.15,0.184,-0.403,-0.69
316,18.0,41.0,-50.0,1.42,1.34,-0.54,0.187,-0.393,-0.694
317,-43.0,81.0,-9.0,1.31,0.71,0.12,0.187,-0.397,-0.691
318,-23.0,65.0,-13.0,0.44,0.46,1.24,0.175,-0.397,-0.69
319,112.0,-184.0,-21.0,-0.52,0.23,2.41,0.174,-0.4,-0.694
320,107.0,-42.0,92.0,-0.57,0.24,3.1,0.175,-0.396,-0.693
321,92.0,163.0,210.0,0.19,0.47,2.33,0.145,-0.387,-0.696
322,88.0,29.0,165.0,1.04,-0.21,0.72,0.132,-0.375,-0.687
323,105.0,-8.0,180.0,1.23,0.07,-0.27,0.138,-0.384,-0.69
324,-18.0,-63.0,196.0,-0.12,0.26,-1.46,0.127,-0.388,-0.69
325,-79.0,-235.0,254.0,0.03,0.01,-2.27,0.118,-0.39,-0.696
326,-28.0,-219.0,249.0,0.65,0.29,-1.93,0.121,-0.402,-0.688
327,-51.0,26.0,203.0,0.86,0.39,-0.91,0.103,-0.411,-0.693
328,-74.0,183.0,244.0,-0.03,0.99,1.58,0.1,-0.417,-0.687
329,-98.0,126.0,249.0,0.88,1.71,2.98,0.1,-0.405,-0.694
330,-52.0,221.0,261.0,2.19,1.36,4.88,0.088,-0.418,-0.687
331,-15.0,136.0,339.0,1.26,1.9,3.11,0.091,-0.418,-0.694
332,-16.0,16.0,366.0,1.45,1.07,1.9,0.088,-0.421,-0.688
333,-26.0,-35.0,490.0,1.37,1.28,0.18,0.088,-0.424,-0.694
334,-18.0,-96.0,512.0,1.19,1.31,-1.04,0.082,-0.435,-0.685
335,-5.0,-136.0,559.0,1.31,1.04,-1.61,0.078,-0.444,-0.682
336,31.0,-151.0,632.0,1.8,1.08,-1.72,0.078,-0.453,-0.691
337,63.0,-71.0,659.0,1.91,1.27,-1.29,0.072,-0.475,-0.687
338,63.0,-28.0,709.0,1.86,1.3,-0.05,0.06,-0.496,-0.679
339,40.0,-13.0,897.0,2.1,0.68,1.16,0.058,-0.505,-0.684
340,60.0,-154.0,901.0,1.03,0.69,3.48,0.057,-0.529,-0.673
341,120.0,-394.0,574.0,-2.77,0.95,4.01,0.045,-0.52,-0.666
342,-7.0,-314.0,661.0,-1.25,0.34,1.61,0.027,-0.516,-0.669
343,183.0,13.0,704.0,0.41,1.81,1.18,0.01,-0.519,-0.658
344,221.0,301.0,702.0,0.67,1.84,0.89,-0.009,-0.535,-0.652
345,210.0,344.0,746.0,0.96,0.96,0.86,-0.018,-0.541,-0.649
346,154.0,104.0,851.0,0.97,0.55,-0.06,-0.007,-0.556,-0.64
347,65.0,69.0,907.0,1.52,0.19,-0.84,-0.01,-0.567,-0.637
348,42.0,51.0,774.0,1.59,0.38,-0.91,-0.009,-0.583,-0.648
349,-19.0,90.0,648.0,1.26,0.1,-0.35,-0.012,-0.576,-0.645
350,-23.0,135.0,694.0,1.37,-0.35,0.85,-0.009,-0.591,-0.637
351,-53.0,-74.0,891.0,0.82,0.13,1.73,-0.018,-0.597,-0.654
352,-31.0,-201.0,1134.0,1.76,1.21,2.9,-0.007,-0.606,-0.652
353,16.0,-308.0,753.0,-1.14,4.48,2.07,0.015,-0.603,-0.663
354,-93.0,-282.0,471.0,0.88,3.32,1.37,0.027,-0.609,-0.658
355,-42.0,95.0,752.0,0.37,1.78,0.15,0.012,-0.642,-0.648
356,70.0,25.0,1092.0,1.66,1.0,-0.12,0.024,-0.672,-0.669
357,60.0,51.0,1045.0,0.89,0.95,-0.93,0.039,-0.673,-0.661
358,58.0,21.0,830.0,1.01,0.42,-1.22,0.052,-0.681,-0.658
359,99.0,74.0,746.0,0.66,0.32,-0.52,0.063,-0.699,-0.666
360,79.0,244.0,707.0,1.14,0.9,-0.12,0.075,-0.702,-0.66
361,67.0,212.0,760.0,1.85,1.04,0.59,0.075,-0.705,-0.669
362,55.0,14.0,692.0,2.33,0.45,0.65,0.091,-0.712,-0.678
363,31.0,-120.0,544.0,2.39,0.67,0.93,0.103,-0.721,-0.676
364,23.0,-219.0,513.0,0.94,1.16,1.08,0.12,-0.736,-0.669
365,-16.0,-239.0,554.0,2.01,0.53,1.49,0.124,-0.742,-0.67
366,58.0,-70.0,534.0,-0.26,1.34,2.56,0.132,-0.748,-0.666
367,60.0,-55.0,424.0,-1.49,1.75,1.79,0.141,-0.756,-0.675
368,115.0,-200.0,384.0,-0.59,0.56,0.83,0.144,-0.753,-0.667
369,182.0,-184.0,508.0,-0.19,0.57,0.55,0.15,-0.757,-0.663
370,124.0,-18.0,474.0,0.06,1.14,-0.07,0.163,-0.765,-0.67
371,65.0,34.0,394.0,0.47,0.79,-0.38,0.165,-0.766,-0.675
372,105.0,25.0,363.0,0.53,0.68,-0.76,0.175,-0.765,-0.669
373,65.0,151.0,410.0,0.36,0.63,-0.58,0.184,-0.78,-0.67
374,4.0,219.0,455.0,0.15,0.69,-0.46,0.192,-0.76,-0.682
375,5.0,185.0,441.0,0.54,0.46,-0.65,0.199,-0.768,-0.696
376,9.0,150.0,416.0,0.41,0.35,-0.77,0.204,-0.768,-0.688
377,-18.0,-14.0,429.0,0.31,0.05,-1.41,0.214,-0.76,-0.696
378,11.0,-152.0,422.0,1.0,-0.45,-1.4,0.211,-0.754,-0.702
379,82.0,-251.0,392.0,0.68,-0.2,-1.16,0.235,-0.765,-0.703
380,68.0,-224.0,405.0,1.37,-0.19,-0.82,0.237,-0.775,-0.697
381,42.0,-58.0,314.0,0.56,0.92,0.17,0.229,-0.78,-0.694
382,-79.0,-31.0,324.0,0.92,1.36,2.84,0.249,-0.771,-0.7
383,10.0,-29.0,249.0,1.28,1.99,4.16,0.255,-0.783,-0.699
384,11.0,77.0,221.0,1.41,2.06,2.3,0.247,-0.775,-0.714
385,-60.0,130.0,205.0,1.56,1.48,1.79,0.259,-0.775,-0.709
386,10.0,59.0,160.0,0.73,1.62,-0.45,0.271,-0.774,-0.714
387,-24.0,-103.0,154.0,1.14,0.72,-1.54,0.274,-0.766,-0.73
388,14.0,-31.0,203.0,1.06,0.36,-1.54,0.277,-0.781,-0.72
389,104.0,-33.0,187.0,0.83,1.12,-1.34,0.285,-0.769,-0.709
390,73.0,-100.0,100.0,0.99,1.27,-0.12,0.279,-0.766,-0.712
391,65.0,-77.0,24.0,0.57,0.93,0.36,0.288,-0.772,-0.715
392,58.0,18.0,-40.0,0.35,1.52,1.45,0.273,-0.772,-0.721
393,0.0,-123.0,-123.0,0.4,1.0,2.45,0.277,-0.772,-0.718
394,-25.0,-98.0,-56.0,-0.58,0.02,3.01,0.277,-0.768,-0.72
395,35.0,77.0,208.0,-0.52,0.41,2.26,0.271,-0.768,-0.739
396,64.0,126.0,229.0,0.99,0.66,1.21,0.268,-0.768,-0.721
397,52.0,96.0,39.0,0.85,0.7,0.1,0.273,-0.762,-0.73
398,36.0,57.0,-39.0,0.32,0.21,0.45,0.277,-0.757,-0.732
399,-30.0,56.0,102.0,-0.28,0.62,0.13,0.27,-0.754,-0.733
400,-108.0,50.0,112.0,0.68,0.65,-0.87,0.273,-0.747,-0.732
401,-132.0,-32.0,23.0,0.84,-0.11,-0.37,0.273,-0.754,-0.733
402,-40.0,-58.0,112.0,0.06,-0.22,-0.05,0.277,-0.745,-0.73
403,-28.0,-51.0,183.0,0.89,0.07,-0.15,0.285,-0.741,-0.742
404,-6.0,-98.0,54.0,0.98,0.1,0.69,0.289,-0.745,-0.733
405,-42.0,-59.0,23.0,-0.09,0.65,1.22,0.298,-0.748,-0.733
406,-151.0,9.0,46.0,0.14,1.09,0.97,0.292,-0.747,-0.733
407,-179.0,-39.0,-26.0,0.98,0.99,1.77,0.289,-0.738,-0.733
408,66.0,58.0,-42.0,-0.27,1.24,2.03,0.304,-0.735,-0.736
409,-18.0,-114.0,35.0,1.05,1.46,-0.23,0.298,-0.742,-0.738
410,94.0,-37.0,-140.0,1.47,0.63,-0.36,0.298,-0.742,-0.736
411,32.0,-20.0,-117.0,0.43,1.3,-0.96,0.291,-0.733,-0.73
412,-23.0,-79.0,-116.0,0.68,1.06,-0.83,0.291,-0.729,-0.742
413,-116.0,-114.0,-111.0,0.87,1.01,-0.63,0.286,-0.738,-0.742
414,-101.0,-28.0,-162.0,0.96,0.42,0.29,0.291,-0.73,-0.738
415,-67.0,-14.0,-139.0,0.13,1.09,1.03,0.283,-0.738,-0.727
416,-4.0,-100.0,-184.0,0.15,1.1,1.87,0.288,-0.732,-0.726
417,81.0,-214.0,-197.0,-0.5,0.76,2.11,0.291,-0.741,-0.727
418,94.0,-270.0,-44.0,0.04,0.17,2.79,0.292,-0.742,-0.726
419,147.0,-100.0,79.0,0.01,0.79,1.87,0.27,-0.748,-0.721
420,56.0,-65.0,66.0,1.09,0.39,0.64,0.28,-0.747,-0.712
421,67.0,-41.0,7.0,0.79,-0.28,0.3,0.274,-0.748,-0.715
422,6.0,225.0,10.0,1.64,0.51,-0.38,0.261,-0.735,-0.73
423,30.0,193.0,130.0,0.44,0.27,0.07,0.27,-0.739,-0.729
424,-26.0,-42.0,0.0,0.58,0.46,-0.11,0.276,-0.715,-0.735
425,65.0,-121.0,28.0,0.56,0.2,0.33,0.265,-0.726,-0.729
426,-60.0,-180.0,37.0,0.36,0.12,-0.77,0.261,-0.742,-0.708
427,-200.0,-159.0,72.0,1.63,0.26,-0.01,0.262,-0.733,-0.721
428,-176.0,-112.0,-30.0,0.88,-0.04,0.2,0.265,-0.738,-0.717
429,-64.0,-77.0,-60.0,1.85,0.32,1.94,0.27,-0.732,-0.705
430,-46.0,255.0,-170.0,0.86,0.61,0.83,0.279,-0.744,-0.709
431,-86.0,30.0,-286.0,0.16,0.1,0.97,0.271,-0.724,-0.709
432,-291.0,-198.0,-107.0,0.65,0.93,1.53,0.268,-0.73,-0.697
433,-332.0,-90.0,-112.0,0.39,0.82,1.55,0.258,-0.726,-0.69
434,-236.0,-118.0,-28.0,1.06,1.02,2.11,0.267,-0.738,-0.688
435,24.0,60.0,-128.0,0.33,1.13,1.37,0.271,-0.732,-0.691
436,128.0,65.0,-28.0,-0.39,1.0,0.44,0.27,-0.717,-0.693
437,171.0,-42.0,98.0,0.32,1.83,-0.37,0.253,-0.723,-0.678
438,-192.0,-198.0,122.0,0.78,1.67,-1.04,0.25,-0.723,-0.685
439,-326.0,-191.0,98.0,1.16,0.99,-0.25,0.252,-0.723,-0.684
440,-97.0,80.0,-3.0,1.44,0.39,0.21,0.258,-0.732,-0.684
441,68.0,-18.0,7.0,0.89,-0.06,0.27,0.267,-0.73,-0.679
442,97.0,-145.0,27.0,1.27,0.62,-0.27,0.274,-0.738,-0.676
443,-23.0,-88.0,87.0,1.39,0.55,-0.08,0.27,-0.741,-0.667
444,-39.0,-7.0,111.0,1.83,-0.28,0.22,0.264,-0.73,-0.678
445,75.0,-16.0,30.0,1.71,-0.14,0.38,0.27,-0.759,-0.679
446,-36.0,-219.0,121.0,1.52,1.12,-0.74,0.291,-0.783,-0.664
447,9.0,-97.0,224.0,1.41,1.0,-0.1,0.289,-0.792,-0.664
448,-100.0,-222.0,294.0,1.49,1.0,-0.29,0.309,-0.804,-0.661
449,-158.0,-139.0,199.0,2.16,0.21,-0.02,0.304,-0.84,-0.658
450,-79.0,-19.0,99.0,2.03,-0.51,1.16,0.342,-0.945,-0.648
451,161.0,88.0,63.0,2.18,-0.28,1.64,0.375,-1.111,-0.654
452,230.0,184.0,74.0,2.0,-0.46,2.44,0.402,-1.258,-0.67
453,142.0,45.0,366.0,1.09,-0.36,0.93,0.432,-1.276,-0.682
454,93.0,14.0,396.0,1.32,-0.3,1.8,0.433,-1.276,-0.684
455,1.0,28.0,400.0,0.59,-0.29,0.89,0.442,-1.276,-0.676
456,29.0,-70.0,422.0,1.21,-0.25,1.11,0.447,-1.266,-0.684
457,63.0,-111.0,419.0,1.29,-0.57,0.07,0.453,-1.275,-0.687
458,67.0,-130.0,441.0,2.02,-0.12,-0.72,0.465,-1.282,-0.684
459,-112.0,25.0,417.0,1.72,-0.48,-1.57,0.48,-1.279,-0.69
460,-44.0,2.0,435.0,1.89,-0.68,-1.96,0.492,-1.306,-0.7
461,-14.0,23.0,445.0,1.6,-0.13,-0.27,0.502,-1.312,-0.703
462,-47.0,24.0,469.0,1.6,0.22,-0.35,0.517,-1.305,-0.705
463,-37.0,-4.0,434.0,2.74,-0.75,0.6,0.526,-1.336,-0.697
464,-1.0,-190.0,347.0,-1.55,0.53,0.86,0.559,-1.348,-0.708
465,58.0,-265.0,526.0,0.1,0.58,3.24,0.553,-1.384,-0.72
466,0.0,-278.0,606.0,0.65,0.62,1.17,0.565,-1.441,-0.709
467,-11.0,-479.0,590.0,3.54,-0.43,1.12,0.58,-1.35,-0.688
468,167.0,-267.0,571.0,2.41,-0.11,3.53,0.583,-1.215,-0.669
469,241.0,21.0,550.0,1.71,0.15,-0.25,0.568,-1.222,-0.679
470,91.0,-16.0,495.0,2.59,0.27,-0.1,0.577,-1.261,-0.684
471,103.0,90.0,469.0,3.29,0.46,-1.33,0.595,-1.261,-0.7
472,-45.0,-87.0,429.0,2.01,0.08,-1.05,0.591,-1.284,-0.7
473,96.0,37.0,473.0,1.95,-0.48,0.09,0.612,-1.291,-0.718
474,178.0,138.0,256.0,2.62,1.32,2.74,0.615,-1.348,-0.723
475,149.0,-74.0,361.0,0.27,0.8,0.7,0.651,-1.384,-0.726
476,249.0,-210.0,173.0,1.46,-1.05,0.19,0.661,-1.386,-0.754
477,64.0,-74.0,537.0,1.55,-0.22,0.19,0.625,-1.294,-0.727
478,182.0,178.0,516.0,1.08,0.83,-0.21,0.604,-1.272,-0.733
479,68.0,55.0,373.0,0.12,-0.39,0.02,0.601,-1.266,-0.727
480,179.0,112.0,363.0,0.78,-0.98,-0.21,0.594,-1.258,-0.736
481,196.0,-16.0,504.0,1.28,-0.18,0.49,0.589,-1.249,-0.756
482,126.0,21.0,510.0,2.73,0.66,0.99,0.582,-1.23,-0.766
483,-203.0,196.0,408.0,1.79,-0.12,-0.1,0.588,-1.203,-0.789
484,-393.0,353.0,541.0,0.75,-0.31,0.84,0.58,-1.186,-0.792
485,-318.0,21.0,581.0,0.36,-0.08,0.38,0.585,-1.171,-0.784
486,-280.0,-249.0,577.0,0.84,-1.28,1.51,0.6,-1.171,-0.784
487,-27.0,-268.0,661.0,0.86,-0.52,1.78,0.615,-1.153,-0.771
488,-127.0,-376.0,671.0,0.96,-1.19,0.78,0.628,-1.143,-0.774
489,-56.0,-131.0,793.0,0.28,-0.18,1.36,0.624,-1.132,-0.774
490,77.0,-280.0,728.0,-0.13,0.0,-0.08,0.63,-1.116,-0.781
491,144.0,-238.0,821.0,0.46,-0.58,1.39,0.616,-1.108,-0.786
492,253.0,-121.0,910.0,0.36,0.0,-0.24,0.625,-1.081,-0.792
493,191.0,-95.0,875.0,0.71,0.06,0.16,0.606,-1.074,-0.783
494,107.0,-112.0,825.0,0.65,-0.63,-0.24,0.606,-1.051,-0.789
495,102.0,-18.0,907.0,0.87,-0.52,0.23,0.598,-1.029,-0.802
496,112.0,-85.0,842.0,0.86,-0.29,-0.13,0.591,-1.011,-0.79
497,165.0,-45.0,811.0,1.32,-0.54,0.4,0.58,-0.997,-0.793
498,109.0,-83.0,734.0,0.95,-0.2,0.22,0.576,-0.987,-0.817
499,301.0,-171.0,725.0,1.38,-1.54,-0.05,0.549,-0.97,-0.826
500,286.0,-128.0,648.0,1.23,-0.22,1.17,0.532,-0.972,-0.813
501,98.0,-198.0,519.0,1.14,-1.27,-0.29,0.52,-0.963,-0.828
502,155.0,-90.0,403.0,1.54,-0.9,2.47,0.511,-0.96,-0.817
503,-21.0,-37.0,334.0,0.39,-1.5,0.57,0.501,-0.967,-0.837
504,182.0,-147.0,375.0,0.77,-1.41,-0.47,0.487,-0.967,-0.832
505,-58.0,-67.0,327.0,0.73,-0.73,0.89,0.481,-0.963,-0.838
506,33.0,-31.0,322.0,0.33,-0.95,0.21,0.474,-0.96,-0.835
507,0.0,-22.0,342.0,0.42,-1.11,0.47,0.468,-0.955,-0.832
508,43.0,72.0,360.0,0.49,-0.6,0.11,0.451,-0.954,-0.835
509,-65.0,58.0,197.0,0.48,-0.72,0.5,0.45,-0.957,-0.831
510,-101.0,78.0,203.0,0.14,-0.66,-0.21,0.451,-0.945,-0.841
511,-51.0,-61.0,109.0,0.23,-0.72,0.17,0.454,-0.942,-0.843
512,98.0,-15.0,172.0,0.47,-0.9,0.52,0.445,-0.943,-0.825
513,92.0,-28.0,212.0,0.61,-0.91,-0.73,0.448,-0.952,-0.831
514,38.0,-54.0,166.0,0.52,-0.81,-1.0,0.444,-0.939,-0.834
515,39.0,-139.0,150.0,0.63,-1.0,-1.24,0.438,-0.94,-0.828
516,100.0,-118.0,183.0,0.85,-0.91,-1.41,0.436,-0.949,-0.834
517,79.0,-147.0,153.0,0.96,-0.34,-1.48,0.424,-0.948,-0.84
518,-103.0,-107.0,151.0,0.84,-0.75,0.37,0.42,-0.952,-0.832
519,-30.0,-119.0,174.0,0.56,-0.23,2.75,0.418,-0.961,-0.846
520,-58.0,-111.0,201.0,0.63,-0.53,1.38,0.406,-0.961,-0.849
521,28.0,-65.0,121.0,1.93,-0.83,1.4,0.411,-0.958,-0.832
522,-213.0,175.0,35.0,1.3,-0.77,3.37,0.424,-0.97,-0.828
523,-139.0,90.0,14.0,0.86,-0.06,-0.73,0.415,-0.958,-0.841
524,-56.0,2.0,-56.0,1.49,-0.8,1.86,0.412,-0.961,-0.814
525,-121.0,91.0,-7.0,1.26,-0.72,-1.2,0.418,-0.963,-0.844
526,128.0,-16.0,-94.0,1.51,0.17,0.71,0.423,-0.96,-0.814
527,-250.0,-76.0,-174.0,1.02,-1.2,0.33,0.433,-0.967,-0.813
528,50.0,-91.0,-46.0,0.85,-0.78,-0.81,0.438,-0.975,-0.831
529,133.0,-87.0,-95.0,1.21,-1.11,2.04,0.424,-0.978,-0.811
530,4.0,-54.0,-107.0,0.85,-1.02,0.85,0.43,-0.988,-0.82
531,101.0,-111.0,-130.0,0.82,-1.6,1.95,0.426,-0.991,-0.813
532,130.0,-18.0,-22.0,1.11,-1.78,2.32,0.421,-0.994,-0.816
533,147.0,74.0,150.0,0.42,-1.35,1.12,0.415,-0.993,-0.826
534,184.0,-82.0,149.0,1.32,-0.78,0.51,0.408,-0.994,-0.81
535,-39.0,-7.0,193.0,1.37,-1.19,-0.44,0.399,-0.99,-0.808
536,-117.0,-53.0,205.0,1.06,-0.65,-1.32,0.402,-0.994,-0.805
537,-39.0,-156.0,228.0,1.34,-1.22,-1.45,0.396,-0.997,-0.805
538,-148.0,-133.0,324.0,1.32,-0.9,-1.91,0.408,-0.99,-0.805
539,-83.0,-146.0,267.0,1.37,-0.81,-0.95,0.402,-0.991,-0.793
540,-333.0,-76.0,178.0,1.42,-1.18,2.0,0.409,-0.994,-0.789
541,-218.0,-44.0,191.0,0.32,-1.12,2.25,0.411,-0.994,-0.805
542,142.0,41.0,62.0,1.41,-0.92,4.62,0.412,-0.985,-0.763
543,-583.0,172.0,79.0,1.15,-1.81,1.26,0.426,-0.976,-0.78
544,165.0,251.0,113.0,1.49,-0.5,1.39,0.414,-0.978,-0.774
545,-279.0,135.0,31.0,1.09,-1.32,-0.85,0.42,-0.972,-0.778
546,151.0,48.0,67.0,1.2,-0.61,-1.32,0.412,-0.961,-0.769
547,-55.0,-142.0,-93.0,1.84,-0.47,0.32,0.411,-0.975,-0.745
548,-215.0,-127.0,-74.0,1.2,-1.2,-1.28,0.421,-0.973,-0.76
549,153.0,-231.0,-32.0,1.49,-1.09,0.61,0.421,-0.988,-0.757
550,-32.0,-141.0,91.0,1.16,-2.02,1.12,0.421,-0.99,-0.766
551,282.0,-196.0,61.0,0.74,-1.59,2.1,0.418,-0.997,-0.747
552,91.0,-244.0,39.0,1.03,-3.04,2.11,0.423,-1.005,-0.756
553,303.0,2.0,247.0,0.25,-3.01,3.11,0.408,-1.002,-0.762
554,406.0,-165.0,267.0,0.28,-1.17,-0.02,0.402,-1.006,-0.781
555,295.0,-80.0,183.0,1.53,-1.56,1.28,0.375,-0.999,-0.763
556,-93.0,133.0,167.0,1.02,-1.29,-1.43,0.369,-1.003,-0.756
557,-168.0,95.0,90.0,0.89,-1.58,-0.94,0.355,-1.0,-0.769
558,-123.0,-1.0,113.0,0.52,-1.66,-1.81,0.357,-0.999,-0.781
559,-104.0,-146.0,184.0,0.7,-1.53,-1.78,0.358,-0.991,-0.774
560,-41.0,-205.0,161.0,1.53,-1.21,0.47,0.354,-0.996,-0.747
561,-273.0,6.0,147.0,1.39,-1.68,1.36,0.363,-0.991,-0.76
562,-186.0,14.0,164.0,0.35,-1.66,1.08,0.363,-0.996,-0.769
563,106.0,-174.0,112.0,1.26,-1.15,2.83,0.369,-0.994,-0.745
564,135.0,-116.0,-14.0,2.22,-1.18,2.54,0.37,-0.996,-0.747
565,-67.0,103.0,-98.0,1.83,-1.16,0.96,0.369,-0.994,-0.762
566,4.0,76.0,-28.0,1.32,-1.06,0.88,0.354,-1.003,-0.768
567,35.0,19.0,-20.0,1.2,0.28,0.07,0.363,-0.985,-0.775
568,-14.0,-95.0,-53.0,1.46,-0.22,-1.45,0.343,-0.99,-0.778
569,-159.0,-25.0,-39.0,1.75,-0.27,-0.39,0.351,-0.981,-0.754
570,-101.0,-70.0,-42.0,2.06,-0.03,-0.57,0.358,-0.981,-0.768
571,7.0,-163.0,166.0,2.29,0.05,-1.21,0.363,-0.985,-0.76
572,337.0,-147.0,275.0,1.85,0.02,0.4,0.36,-0.987,-0.733
573,226.0,-212.0,179.0,1.32,-0.67,0.62,0.373,-0.996,-0.706
574,181.0,-311.0,151.0,2.03,-0.37,3.67,0.372,-0.969,-0.7
575,168.0,-65.0,243.0,1.9,-0.93,1.81,0.358,-0.954,-0.697
576,-30.0,-7.0,252.0,2.58,-0.17,2.26,0.336,-0.966,-0.712
577,-76.0,163.0,382.0,0.72,-1.18,0.74,0.333,-0.961,-0.7
578,-116.0,22.0,367.0,1.61,-0.92,0.46,0.327,-0.99,-0.696
579,-63.0,-61.0,385.0,1.54,-0.97,-0.1,0.351,-0.99,-0.709
580,-15.0,-95.0,318.0,2.1,-0.98,-0.68,0.333,-0.973,-0.706
581,94.0,-111.0,382.0,2.05,-1.03,-1.19,0.336,-0.976,-0.712
582,70.0,-32.0,419.0,1.94,-0.73,-0.77,0.328,-0.978,-0.691
583,35.0,1.0,614.0,1.37,-1.47,-0.58,0.331,-0.979,-0.7
584,46.0,-32.0,494.0,1.49,-1.2,0.37,0.319,-0.978,-0.697
585,-17.0,-60.0,503.0,0.94,-1.05,3.62,0.327,-0.988,-0.703
586,-58.0,67.0,516.0,0.47,0.1,1.48,0.319,-0.991,-0.684
587,-65.0,-223.0,429.0,1.57,-0.93,1.68,0.315,-0.996,-0.703
588,75.0,-21.0,600.0,1.3,-0.36,4.31,0.315,-0.997,-0.691
589,63.0,107.0,443.0,0.75,0.07,1.54,0.298,-0.994,-0.693
590,132.0,-241.0,511.0,0.97,-0.06,0.53,0.304,-1.0,-0.699
591,212.0,-247.0,536.0,1.51,-0.1,0.86,0.306,-1.048,-0.705
592,147.0,-114.0,287.0,2.66,0.62,-0.64,0.292,-1.131,-0.718
593,199.0,-36.0,565.0,0.94,-0.51,-1.32,0.303,-1.174,-0.711
594,-19.0,109.0,424.0,2.86,0.72,0.19,0.301,-1.252,-0.72
595,-130.0,57.0,482.0,1.35,-0.78,-0.68,0.319,-1.311,-0.741
596,-169.0,-233.0,481.0,1.19,-1.02,1.2,0.337,-1.348,-0.747
597,77.0,-358.0,499.0,1.36,-1.69,2.23,0.351,-1.359,-0.739
598,149.0,-194.0,457.0,0.37,-1.14,1.29,0.339,-1.374,-0.741
599,332.0,-501.0,457.0,0.9,-1.14,-0.11,0.339,-1.387,-0.744
600,352.0,-565.0,450.0,1.31,-0.56,1.06,0.325,-1.374,-0.732
601,282.0,-203.0,459.0,1.61,-0.29,0.76,0.318,-1.365,-0.72
602,179.0,126.0,548.0,1.3,-0.58,0.25,0.31,-1.372,-0.715
603,65.0,166.0,637.0,1.64,-0.59,-1.74,0.294,-1.366,-0.711
604,22.0,112.0,686.0,1.34,-0.04,0.16,0.3,-1.368,-0.717
605,-12.0,82.0,667.0,1.89,-0.65,-0.34,0.303,-1.377,-0.709
606,12.0,108.0,695.0,1.65,-0.28,0.22,0.303,-1.378,-0.711
607,83.0,-32.0,676.0,1.54,-0.8,0.33,0.301,-1.381,-0.729
608,95.0,-118.0,700.0,1.65,-0.62,1.37,0.309,-1.395,-0.724
609,100.0,-148.0,719.0,1.0,-0.59,1.68,0.313,-1.405,-0.712
610,247.0,-405.0,795.0,1.18,-1.33,2.04,0.315,-1.42,-0.705
611,163.0,-198.0,955.0,-0.29,0.67,2.54,0.313,-1.441,-0.705
612,357.0,-480.0,876.0,0.96,-1.11,-0.82,0.322,-1.449,-0.739
613,427.0,-219.0,992.0,1.59,-0.45,1.38,0.31,-1.462,-0.714
614,37.0,85.0,854.0,1.36,0.05,-0.27,0.319,-1.468,-0.717
615,-219.0,72.0,872.0,0.77,-0.59,-2.08,0.316,-1.473,-0.771
616,118.0,25.0,732.0,1.15,0.04,0.15,0.313,-1.477,-0.754
617,-114.0,35.0,699.0,1.22,-0.76,-1.0,0.336,-1.471,-0.756
618,-67.0,64.0,655.0,1.63,-0.71,0.27,0.333,-1.471,-0.744
619,-153.0,65.0,614.0,1.71,-0.98,0.21,0.364,-1.465,-0.751
620,-84.0,4.0,561.0,1.42,-1.32,0.35,0.36,-1.473,-0.757
621,143.0,-68.0,524.0,1.37,-1.48,1.75,0.382,-1.474,-0.757
622,65.0,-200.0,442.0,1.07,-1.58,0.53,0.387,-1.479,-0.751
623,161.0,-103.0,443.0,0.66,-1.79,2.2,0.387,-1.479,-0.756
624,163.0,-118.0,410.0,0.46,-1.19,0.26,0.397,-1.48,-0.754
625,149.0,-79.0,334.0,1.03,-1.54,1.06,0.396,-1.476,-0.741
626,98.0,47.0,275.0,0.84,-1.93,0.44,0.391,-1.48,-0.742
627,113.0,53.0,317.0,0.19,-2.05,0.37,0.397,-1.467,-0.762
628,240.0,-79.0,340.0,0.28,-1.17,-0.74,0.397,-1.476,-0.759
629,201.0,-126.0,251.0,0.89,-1.01,-0.12,0.399,-1.474,-0.765
630,-8.0,14.0,260.0,0.81,-1.04,-0.97,0.4,-1.482,-0.769
631,49.0,46.0,331.0,0.44,-0.97,-0.74,0.381,-1.473,-0.774
632,23.0,-118.0,402.0,0.49,-0.54,-1.36,0.379,-1.471,-0.766
633,-87.0,-142.0,431.0,1.29,-0.76,-0.57,0.387,-1.479,-0.753
634,-123.0,-18.0,427.0,1.26,-1.33,0.31,0.4,-1.485,-0.768
635,-73.0,-95.0,462.0,0.88,-1.63,-0.72,0.39,-1.476,-0.765
636,-10.0,-88.0,438.0,1.26,-1.49,0.25,0.402,-1.482,-0.753
637,-30.0,-135.0,343.0,0.69,-1.34,0.4,0.418,-1.477,-0.75
638,149.0,-173.0,352.0,0.95,-1.88,2.38,0.418,-1.473,-0.735
639,-193.0,-165.0,303.0,0.37,-0.85,0.51,0.421,-1.482,-0.756
640,23.0,-252.0,113.0,1.32,-1.29,2.16,0.42,-1.479,-0.73
641,-259.0,35.0,161.0,1.17,-1.14,0.57,0.427,-1.48,-0.744
642,-85.0,-105.0,35.0,1.32,-1.6,0.55,0.426,-1.482,-0.754
643,-141.0,79.0,100.0,1.31,-1.56,1.42,0.421,-1.483,-0.742
644,-14.0,70.0,124.0,0.72,-0.84,-0.83,0.427,-1.479,-0.756
645,13.0,-87.0,29.0,1.35,-0.89,-0.97,0.43,-1.479,-0.765
646,62.0,-67.0,-85.0,1.6,-1.1,0.1,0.418,-1.479,-0.742
647,69.0,-52.0,13.0,1.05,-1.46,-0.86,0.43,-1.482,-0.766
648,155.0,-112.0,93.0,1.48,-0.85,-1.16,0.417,-1.477,-0.768
649,56.0,-53.0,-20.0,1.79,-0.48,0.01,0.411,-1.474,-0.744
650,-69.0,-16.0,-25.0,1.16,-1.48,-0.9,0.417,-1.483,-0.766
651,130.0,-62.0,65.0,1.31,-1.54,1.11,0.4,-1.489,-0.751
652,-84.0,-20.0,65.0,0.76,-1.25,1.12,0.396,-1.488,-0.763
653,175.0,-143.0,-71.0,1.99,-2.21,0.99,0.402,-1.483,-0.765
654,-51.0,221.0,48.0,1.15,-2.71,3.98,0.387,-1.485,-0.765
655,65.0,121.0,122.0,0.42,-1.34,0.9,0.4,-1.474,-0.775
656,-33.0,-65.0,0.0,1.36,-1.85,0.9,0.381,-1.479,-0.769
657,-80.0,65.0,36.0,1.08,-1.62,-0.56,0.381,-1.476,-0.777
658,-86.0,-76.0,-9.0,0.85,-1.37,-1.11,0.378,-1.479,-0.784
659,-77.0,-179.0,2.0,1.14,-1.68,-1.28,0.384,-1.473,-0.777
660,-7.0,-181.0,81.0,1.26,-1.72,-1.53,0.394,-1.476,-0.774
661,-21.0,-194.0,161.0,1.04,-1.43,-1.43,0.381,-1.488,-0.771
662,-72.0,-196.0,143.0,1.3,-1.54,0.15,0.381,-1.486,-0.756
663,-70.0,-113.0,278.0,1.6,-1.78,-0.26,0.387,-1.485,-0.757
664,-31.0,-111.0,382.0,1.48,-1.8,1.54,0.387,-1.491,-0.751
665,10.0,-96.0,312.0,1.78,-0.63,2.28,0.405,-1.5,-0.75
666,30.0,-31.0,210.0,1.7,-1.87,2.66,0.402,-1.491,-0.768
667,-31.0,285.0,186.0,1.9,-0.85,2.24,0.405,-1.483,-0.759
668,104.0,109.0,54.0,1.47,-0.98,0.12,0.393,-1.485,-0.786
669,2.0,93.0,16.0,1.42,-0.92,0.28,0.393,-1.471,-0.795
670,43.0,-25.0,-30.0,0.95,-0.93,-1.31,0.379,-1.473,-0.801
671,-39.0,7.0,54.0,1.33,-1.23,-1.19,0.382,-1.483,-0.798
672,-96.0,-77.0,-39.0,1.17,-0.61,-1.62,0.385,-1.479,-0.789
673,-169.0,-109.0,-85.0,1.22,-0.95,-1.6,0.384,-1.468,-0.798
674,-96.0,-77.0,-81.0,1.1,-1.32,-0.31,0.388,-1.47,-0.784
675,-184.0,-83.0,-58.0,1.14,-1.81,0.09,0.394,-1.479,-0.798
676,-51.0,-51.0,-70.0,1.0,-1.9,1.99,0.396,-1.485,-0.789
677,54.0,-46.0,-31.0,1.15,-2.6,2.53,0.393,-1.474,-0.772
678,106.0,99.0,7.0,1.02,-2.69,4.73,0.396,-1.482,-0.78
679,73.0,130.0,123.0,-0.41,-2.42,-0.04,0.384,-1.48,-0.817
680,332.0,-105.0,58.0,0.99,-0.94,1.63,0.372,-1.485,-0.798
681,-30.0,34.0,21.0,0.86,-1.91,0.15,0.375,-1.48,-0.808
682,-205.0,48.0,60.0,0.55,-1.24,-1.16,0.373,-1.482,-0.817
683,-164.0,-175.0,64.0,0.53,-1.61,-1.78,0.367,-1.477,-0.823
684,-135.0,-274.0,152.0,1.02,-1.95,-2.36,0.373,-1.488,-0.811
685,-78.0,-188.0,235.0,1.67,-1.81,0.31,0.393,-1.498,-0.801
686,-179.0,-114.0,206.0,1.13,-2.05,1.16,0.397,-1.503,-0.798
687,37.0,-259.0,123.0,0.9,-1.23,2.25,0.4,-1.518,-0.787
688,-65.0,-143.0,67.0,2.07,-2.56,2.49,0.411,-1.51,-0.772
689,-46.0,211.0,143.0,1.47,-2.17,2.55,0.424,-1.527,-0.78
690,90.0,142.0,63.0,1.13,-0.81,0.16,0.423,-1.518,-0.787
691,9.0,7.0,-154.0,1.58,-1.9,0.77,0.426,-1.53,-0.769
692,-30.0,40.0,-102.0,1.35,-1.56,-1.33,0.429,-1.516,-0.807
693,32.0,-42.0,-149.0,1.54,-1.17,-0.96,0.426,-1.524,-0.792
694,-55.0,-100.0,-135.0,1.56,-1.9,-1.18,0.42,-1.534,-0.792
695,-124.0,-36.0,-65.0,1.46,-1.33,-1.06,0.427,-1.543,-0.792
696,-123.0,-81.0,-123.0,1.36,-1.81,-0.26,0.424,-1.551,-0.799
697,25.0,-142.0,-121.0,1.02,-2.84,1.52,0.435,-1.554,-0.796
698,105.0,-79.0,-94.0,0.67,-2.47,2.64,0.432,-1.561,-0.763
699,66.0,21.0,-31.0,0.82,-2.81,3.83,0.435,-1.573,-0.756
700,67.0,-32.0,105.0,1.16,-2.16,-0.33,0.444,-1.573,-0.79
701,74.0,61.0,80.0,2.02,-2.06,1.71,0.432,-1.584,-0.774
702,-93.0,161.0,84.0,1.18,-2.37,-0.54,0.432,-1.576,-0.802
703,32.0,55.0,144.0,1.05,-2.3,-0.24,0.43,-1.585,-0.802
704,-24.0,-9.0,173.0,0.95,-2.11,0.3,0.429,-1.573,-0.808
705,52.0,-156.0,193.0,0.88,-1.72,-1.05,0.436,-1.584,-0.807
706,42.0,-230.0,170.0,1.45,-1.72,-1.13,0.438,-1.585,-0.784
707,-97.0,-228.0,140.0,1.57,-1.89,-1.15,0.438,-1.59,-0.772
708,-95.0,-212.0,141.0,1.31,-1.95,-0.68,0.45,-1.614,-0.765
709,-49.0,-295.0,67.0,1.29,-2.76,2.9,0.459,-1.617,-0.738
710,21.0,-238.0,145.0,0.34,-2.75,1.39,0.465,-1.611,-0.753
711,402.0,-274.0,73.0,2.52,-2.07,2.06,0.453,-1.624,-0.688
712,-231.0,319.0,161.0,1.62,-2.97,5.12,0.465,-1.612,-0.705
713,227.0,282.0,170.0,0.52,0.01,-0.13,0.466,-1.611,-0.73
714,31.0,69.0,-109.0,1.54,-1.01,0.94,0.46,-1.602,-0.711
715,-315.0,195.0,-147.0,1.62,-1.49,-0.2,0.469,-1.596,-0.723
716,-198.0,74.0,-70.0,1.07,-1.92,0.38,0.459,-1.6,-0.733
717,-26.0,-74.0,84.0,0.87,-2.09,0.4,0.454,-1.606,-0.738
718,-8.0,-39.0,18.0,1.52,-1.07,1.01,0.45,-1.612,-0.721
719,-24.0,-73.0,-102.0,1.2,-1.52,-0.25,0.462,-1.597,-0.724
720,42.0,-99.0,-159.0,1.64,-1.76,0.22,0.448,-1.602,-0.729
721,-11.0,32.0,-160.0,1.16,-1.82,1.7,0.444,-1.612,-0.733
722,82.0,-73.0,-86.0,0.36,-1.61,-0.47,0.439,-1.614,-0.742
723,184.0,-226.0,-121.0,1.5,-1.53,1.31,0.429,-1.615,-0.726
724,-70.0,-12.0,-27.0,1.25,-1.96,0.67,0.417,-1.618,-0.747
725,53.0,-39.0,11.0,0.84,-1.37,-1.12,0.4,-1.617,-0.753
726,-69.0,-51.0,-96.0,1.6,-1.87,1.38,0.405,-1.617,-0.724
727,-164.0,57.0,-105.0,1.15,-2.43,-0.29,0.414,-1.609,-0.742
728,-28.0,32.0,-79.0,1.06,-2.84,0.47,0.411,-1.609,-0.738
729,-19.0,12.0,-49.0,0.94,-2.53,1.03,0.394,-1.618,-0.723
730,16.0,-81.0,-25.0,0.96,-2.21,-0.27,0.409,-1.614,-0.741
731,-31.0,-112.0,-50.0,1.33,-2.32,-0.02,0.387,-1.614,-0.727
732,-66.0,-78.0,-2.0,1.08,-2.39,0.0,0.396,-1.621,-0.729
733,6.0,-107.0,54.0,1.13,-2.01,-0.01,0.394,-1.62,-0.727
734,-1.0,-96.0,70.0,1.3,-1.67,0.15,0.393,-1.618,-0.72
735,18.0,-72.0,63.0,1.63,-1.74,-0.33,0.39,-1.615,-0.714
736,-37.0,39.0,51.0,1.44,-1.57,0.21,0.384,-1.611,-0.711
737,-109.0,45.0,70.0,1.08,-1.84,0.03,0.394,-1.618,-0.715
738,-9.0,45.0,107.0,1.15,-1.69,0.31,0.399,-1.617,-0.717
739,-11.0,0.0,78.0,1.21,-1.55,0.35,0.397,-1.62,-0.73
740,-52.0,11.0,39.0,1.31,-1.75,0.18,0.391,-1.612,-0.727
741,-9.0,-3.0,-7.0,1.31,-1.62,0.45,0.396,-1.597,-0.726
742,0.0,-9.0,-4.0,1.39,-1.87,0.44,0.394,-1.602,-0.729
743,32.0,-42.0,-1.0,1.38,-1.73,0.25,0.405,-1.608,-0.745
744,28.0,-47.0,7.0,1.31,-1.7,0.46,0.402,-1.609,-0.727
745,28.0,-61.0,-4.0,1.31,-1.68,0.35,0.394,-1.608,-0.73
746,-2.0,-50.0,-25.0,1.37,-1.72,0.8,0.396,-1.606,-0.732
747,-10.0,-13.0,-5.0,1.28,-1.8,0.47,0.399,-1.609,-0.733
748,-12.0,-44.0,-26.0,1.36,-1.61,0.62,0.384,-1.612,-0.73
749,-51.0,-35.0,-23.0,1.32,-1.8,0.2,0.387,-1.609,-0.732
750,-41.0,-44.0,-28.0,1.46,-1.72,0.53,0.388,-1.608,-0.72
