,Gyroscope X (deg/s),Gyroscope Y (deg/s),Gyroscope Z (deg/s),Accelerometer X (g),Accelerometer Y (g),Accelerometer Z (g),Magnetometer X (G),Magnetometer Y (G),Magnetometer Z (G)
0,0.002,0.0,-0.009,-0.009,0.002,998.989,0.312,0.267,0.162
1,0.002,0.0,-0.009,-0.009,0.002,998.989,0.312,0.267,0.162
2,0.002,-0.001,-0.009,-0.008,0.003,998.99,0.319,0.258,0.135
3,0.002,-0.002,-0.009,-0.009,0.002,998.991,0.318,0.243,0.156
4,0.002,-0.002,-0.009,-0.01,0.002,998.991,0.334,0.262,0.151
5,0.004,-0.001,-0.009,-0.009,0.002,998.991,0.334,0.262,0.151
6,0.003,-0.002,-0.009,-0.008,0.001,998.99,0.324,0.258,0.154
7,0.002,-0.001,-0.009,-0.006,0.002,998.989,0.309,0.247,0.135
8,0.002,-0.001,-0.009,-0.008,0.002,998.99,0.327,0.273,0.151
9,0.002,-0.002,-0.01,-0.009,0.0,998.99,0.307,0.286,0.15
10,0.003,-0.002,-0.01,-0.009,0.0,998.99,0.3,0.276,0.151
11,0.003,-0.003,-0.009,-0.008,0.0,998.989,0.297,0.282,0.165
12,0.002,0.0,-0.01,-0.008,0.0,998.989,0.315,0.259,0.165
13,0.002,-0.002,-0.009,-0.008,0.002,998.989,0.315,0.259,0.165
14,0.002,-0.002,-0.009,-0.01,0.001,998.989,0.307,0.255,0.153
15,0.002,-0.002,-0.009,-0.01,0.002,998.99,0.327,0.256,0.148
16,0.002,-0.001,-0.009,-0.009,0.004,998.992,0.31,0.249,0.151
17,0.002,0.0,-0.01,-0.008,0.003,998.992,0.309,0.277,0.16
18,0.002,0.0,-0.01,-0.007,0.002,998.991,0.295,0.27,0.138
19,0.002,0.0,-0.009,-0.007,0.002,998.991,0.307,0.261,0.154
20,0.002,0.0,-0.009,-0.009,0.001,998.991,0.307,0.261,0.154
21,0.003,-0.001,-0.01,-0.009,0.001,998.99,0.319,0.243,0.144
22,0.002,0.0,-0.009,-0.008,0.003,998.991,0.334,0.267,0.159
23,0.002,0.0,-0.009,-0.007,0.002,998.991,0.312,0.246,0.163
24,0.002,-0.001,-0.009,-0.009,0.001,998.991,0.316,0.261,0.189
25,0.003,-0.001,-0.01,-0.009,0.001,998.992,0.328,0.261,0.145
26,0.002,-0.002,-0.009,-0.007,0.0,998.992,0.325,0.247,0.163
27,0.002,-0.002,-0.009,-0.009,0.002,998.992,0.313,0.261,0.147
28,0.003,0.0,-0.009,-0.009,0.002,998.992,0.304,0.258,0.157
29,0.002,-0.001,-0.009,-0.008,0.001,998.99,0.33,0.264,0.171
30,0.002,-0.002,-0.009,-0.008,0.001,998.991,0.33,0.264,0.171
31,0.002,-0.002,-0.009,-0.009,0.002,998.992,0.315,0.283,0.154
32,0.002,0.001,-0.01,-0.008,0.002,998.99,0.313,0.271,0.163
33,0.002,-0.002,-0.009,-0.008,0.0,998.989,0.316,0.271,0.142
34,0.003,-0.002,-0.009,-0.008,-0.002,998.991,0.315,0.267,0.151
35,0.002,-0.002,-0.009,-0.008,0.0,998.992,0.313,0.258,0.163
36,0.002,-0.001,-0.009,-0.008,0.002,998.991,0.324,0.256,0.136
37,0.002,0.0,-0.01,-0.008,0.0,998.991,0.316,0.252,0.15
38,0.002,0.0,-0.01,-0.009,0.001,998.991,0.321,0.268,0.162
39,0.003,0.0,-0.01,-0.009,0.002,998.991,0.316,0.264,0.172
40,0.002,-0.001,-0.009,-0.01,0.002,998.99,0.316,0.264,0.172
41,0.002,-0.001,-0.009,-0.009,0.001,998.991,0.321,0.259,0.159
42,0.002,-0.001,-0.009,-0.007,0.001,998.993,0.309,0.267,0.154
43,0.002,0.0,-0.009,-0.009,0.002,998.992,0.313,0.258,0.139
44,0.002,-0.001,-0.009,-0.01,0.002,998.992,0.3,0.249,0.159
45,0.002,-0.001,-0.009,-0.008,0.002,998.99,0.318,0.267,0.139
46,0.002,-0.001,-0.009,-0.007,0.001,998.988,0.322,0.246,0.154
47,0.002,-0.001,-0.01,-0.007,0.001,998.988,0.322,0.246,0.154
48,0.002,0.0,-0.011,-0.009,0.0,998.99,0.316,0.27,0.157
49,0.002,0.0,-0.01,-0.008,0.001,998.993,0.315,0.259,0.162
50,0.002,-0.001,-0.009,-0.008,0.003,998.992,0.322,0.261,0.157
51,0.002,0.0,-0.009,-0.008,0.002,998.991,0.328,0.262,0.151
52,0.002,0.0,-0.009,-0.006,0.002,998.989,0.313,0.258,0.16
53,0.003,-0.001,-0.009,-0.007,0.002,998.989,0.319,0.27,0.172
54,0.002,-0.001,-0.009,-0.01,0.001,998.992,0.309,0.276,0.153
55,0.002,0.0,-0.009,-0.009,0.001,998.991,0.313,0.261,0.15
56,0.002,-0.001,-0.009,-0.008,0.001,998.991,0.325,0.258,0.147
57,0.004,-0.002,-0.009,-0.008,0.001,998.992,0.325,0.258,0.147
58,0.002,0.0,-0.01,-0.008,0.001,998.992,0.307,0.255,0.145
59,0.002,0.0,-0.01,-0.009,0.0,998.992,0.318,0.268,0.172
60,0.003,0.0,-0.009,-0.009,0.0,998.989,0.301,0.271,0.138
61,0.002,0.0,-0.009,-0.008,0.002,998.991,0.313,0.256,0.141
62,0.002,-0.002,-0.009,-0.006,0.001,998.991,0.309,0.258,0.162
63,0.002,-0.001,-0.01,-0.007,0.0,998.99,0.328,0.258,0.156
64,0.002,-0.001,-0.01,-0.01,0.001,998.991,0.322,0.268,0.162
65,0.002,0.0,-0.009,-0.01,0.001,998.991,0.303,0.252,0.153
66,0.002,-0.002,-0.009,-0.009,0.0,998.99,0.303,0.252,0.153
67,0.002,0.0,-0.009,-0.006,0.002,998.991,0.306,0.258,0.151
68,0.002,0.002,-0.01,-0.008,0.003,998.99,0.304,0.256,0.162
69,0.002,0.0,-0.009,-0.009,0.001,998.992,0.3,0.261,0.162
70,0.002,0.0,-0.009,-0.006,0.001,998.994,0.318,0.265,0.163
71,0.002,-0.002,-0.009,-0.007,0.001,998.993,0.312,0.264,0.162
72,0.003,-0.002,-0.01,-0.01,0.003,998.992,0.313,0.25,0.15
73,0.002,-0.002,-0.01,-0.01,0.002,998.991,0.306,0.249,0.169
74,0.002,-0.002,-0.01,-0.01,0.002,998.99,0.3,0.261,0.174
75,0.002,-0.001,-0.009,-0.011,0.001,998.99,0.322,0.274,0.174
76,0.002,-0.002,-0.009,-0.007,0.0,998.991,0.319,0.262,0.151
77,0.002,0.0,-0.009,-0.007,0.001,998.993,0.319,0.262,0.151
78,0.002,0.0,-0.009,-0.009,0.001,998.993,0.306,0.268,0.153
79,0.002,0.0,-0.009,-0.007,0.0,998.991,0.312,0.261,0.156
80,0.002,-0.001,-0.009,-0.007,0.0,998.99,0.294,0.265,0.154
81,0.002,-0.001,-0.009,-0.007,0.0,998.991,0.315,0.273,0.172
82,0.002,-0.001,-0.009,-0.007,0.0,998.991,0.315,0.247,0.171
83,0.002,-0.001,-0.009,-0.009,0.0,998.988,0.324,0.27,0.147
84,0.002,0.0,-0.009,-0.009,0.0,998.988,0.322,0.265,0.15
85,0.002,0.0,-0.01,-0.009,0.001,998.989,0.322,0.265,0.15
86,0.002,-0.001,-0.009,-0.008,0.001,998.991,0.319,0.259,0.157
87,0.002,0.0,-0.01,-0.007,0.0,998.99,0.289,0.259,0.166
88,0.002,-0.002,-0.009,-0.006,0.0,998.99,0.322,0.271,0.166
89,0.002,0.0,-0.009,-0.007,0.0,998.991,0.312,0.273,0.153
90,0.002,0.0,-0.009,-0.007,0.001,998.993,0.306,0.265,0.156
91,0.001,0.0,-0.009,-0.009,0.002,998.993,0.313,0.276,0.154
92,0.002,0.0,-0.009,-0.011,0.002,998.992,0.324,0.268,0.135
93,0.003,-0.001,-0.009,-0.007,0.004,998.991,0.316,0.277,0.15
94,0.002,0.0,-0.009,-0.005,0.001,998.992,0.31,0.25,0.159
95,0.002,0.0,-0.009,-0.007,0.001,998.991,0.31,0.25,0.159
96,0.002,-0.002,-0.009,-0.009,0.002,998.99,0.289,0.253,0.147
97,0.002,-0.001,-0.009,-0.007,0.002,998.991,0.325,0.268,0.159
98,0.002,-0.002,-0.009,-0.007,0.002,998.99,0.324,0.264,0.141
99,0.002,-0.001,-0.009,-0.01,0.001,998.992,0.313,0.253,0.154
100,0.002,0.0,-0.009,-0.01,0.0,998.995,0.313,0.262,0.159
101,0.002,0.0,-0.009,-0.009,0.0,998.996,0.304,0.262,0.165
102,0.002,0.0,-0.01,-0.009,0.002,998.996,0.33,0.258,0.162
103,0.002,-0.002,-0.01,-0.01,0.002,998.995,0.316,0.27,0.16
104,0.002,-0.001,-0.01,-0.008,0.002,998.992,0.316,0.27,0.16
105,0.001,-0.002,-0.009,-0.008,0.001,998.991,0.33,0.252,0.166
106,0.003,-0.006,-0.009,-0.008,0.0,998.989,0.343,0.261,0.144
107,0.002,-0.002,-0.009,-0.007,0.0,998.987,0.313,0.247,0.15
108,0.001,-0.001,-0.009,-0.009,0.0,998.989,0.309,0.262,0.156
109,0.002,-0.001,-0.009,-0.009,0.001,998.99,0.315,0.273,0.156
110,0.003,0.0,-0.009,-0.007,0.002,998.99,0.297,0.282,0.157
111,0.002,0.0,-0.01,-0.009,0.004,998.99,0.33,0.258,0.133
112,0.002,-0.001,-0.009,-0.008,0.003,998.991,0.33,0.258,0.133
113,0.002,0.0,-0.009,-0.007,0.003,998.992,0.31,0.265,0.147
114,0.002,-0.001,-0.009,-0.008,0.003,998.991,0.307,0.258,0.148
115,0.002,-0.001,-0.009,-0.008,0.002,998.989,0.301,0.279,0.151
116,0.002,-0.002,-0.009,-0.007,0.002,998.991,0.316,0.261,0.156
117,0.002,-0.001,-0.009,-0.007,0.0,998.99,0.312,0.24,0.157
118,0.003,0.0,-0.009,-0.01,-0.002,998.99,0.307,0.262,0.156
119,0.002,-0.003,-0.009,-0.009,-0.002,998.99,0.322,0.256,0.157
120,0.002,-0.003,-0.009,-0.009,0.0,998.99,0.322,0.246,0.156
121,0.002,-0.001,-0.009,-0.009,0.0,998.99,0.322,0.246,0.156
122,0.002,-0.001,-0.009,-0.01,0.0,998.99,0.309,0.261,0.165
123,0.002,-0.001,-0.009,-0.007,0.002,998.993,0.316,0.261,0.15
124,0.002,-0.001,-0.01,-0.007,0.002,998.993,0.318,0.276,0.165
125,0.002,0.0,-0.01,-0.008,0.002,998.991,0.307,0.265,0.153
126,0.002,-0.001,-0.009,-0.007,0.002,998.99,0.303,0.264,0.159
127,0.003,0.0,-0.009,-0.008,0.0,998.989,0.322,0.249,0.153
128,0.003,0.002,-0.01,-0.01,0.001,998.991,0.316,0.273,0.148
129,0.002,0.0,-0.01,-0.009,0.002,998.992,0.327,0.261,0.16
130,0.002,-0.001,-0.01,-0.008,0.0,998.99,0.318,0.258,0.151
131,0.001,-0.002,-0.009,-0.008,-0.001,998.991,0.324,0.271,0.163
132,0.002,-0.001,-0.009,-0.01,0.002,998.993,0.324,0.271,0.163
133,0.002,0.0,-0.009,-0.01,0.002,998.993,0.318,0.268,0.157
134,0.003,-0.002,-0.009,-0.008,0.0,998.992,0.318,0.265,0.136
135,0.002,-0.002,-0.009,-0.009,0.0,998.99,0.31,0.271,0.157
136,0.003,-0.001,-0.009,-0.009,-0.001,998.989,0.315,0.264,0.163
137,0.003,0.0,-0.009,-0.007,0.0,998.992,0.312,0.256,0.16
138,0.003,0.0,-0.009,-0.008,0.002,998.993,0.3,0.265,0.156
139,0.003,-0.001,-0.01,-0.01,0.002,998.99,0.321,0.255,0.153
140,0.002,-0.001,-0.009,-0.01,0.002,998.99,0.321,0.255,0.153
141,0.002,-0.001,-0.009,-0.008,0.0,998.989,0.306,0.262,0.156
142,0.002,-0.002,-0.009,-0.008,0.0,998.992,0.321,0.261,0.156
143,0.002,-0.002,-0.009,-0.009,0.0,998.991,0.321,0.261,0.145
144,0.001,-0.003,-0.01,-0.007,-0.001,998.991,0.331,0.261,0.151
145,0.002,-0.002,-0.009,-0.006,0.0,998.99,0.321,0.279,0.15
146,0.002,-0.001,-0.009,-0.006,0.002,998.991,0.316,0.256,0.162
147,0.002,0.0,-0.01,-0.005,0.002,998.992,0.321,0.25,0.16
148,0.002,0.0,-0.011,-0.006,0.002,998.99,0.321,0.285,0.156
149,0.002,-0.001,-0.01,-0.009,0.001,998.989,0.321,0.259,0.147
150,0.002,0.0,-0.009,-0.01,0.0,998.99,0.321,0.259,0.147
151,0.002,0.0,-0.009,-0.009,0.0,998.991,0.324,0.244,0.156
152,0.002,-0.001,-0.01,-0.008,0.001,998.992,0.334,0.274,0.151
153,0.002,0.0,-0.011,-0.008,0.001,998.992,0.322,0.262,0.163
154,0.002,-0.001,-0.01,-0.008,0.0,998.993,0.304,0.271,0.154
155,0.003,0.0,-0.009,-0.007,0.0,998.993,0.318,0.273,0.142
156,0.002,0.0,-0.009,-0.006,0.001,998.992,0.312,0.265,0.166
157,0.002,0.0,-0.009,-0.008,0.003,998.99,0.322,0.268,0.151
158,0.001,-0.001,-0.01,-0.008,0.003,998.99,0.318,0.261,0.157
159,0.001,-0.002,-0.009,-0.009,0.002,998.987,0.318,0.261,0.157
160,0.002,-0.002,-0.009,-0.007,0.001,998.991,0.318,0.27,0.147
161,0.002,-0.002,-0.009,-0.009,0.002,998.991,0.309,0.271,0.171
162,0.002,-0.002,-0.009,-0.01,0.001,998.99,0.318,0.258,0.157
163,0.002,-0.005,-0.009,-0.009,0.001,998.992,0.304,0.264,0.171
164,0.002,-0.004,-0.009,-0.004,-0.003,998.99,0.324,0.253,0.159
165,0.0,-0.001,-0.041,-0.034,0.012,999.0,0.309,0.289,0.163
166,0.0,-0.001,-0.098,-0.036,0.022,999.002,0.304,0.27,0.165
167,-0.002,0.0,-0.097,-0.001,0.014,998.993,0.303,0.265,0.154
168,0.0,-0.002,-0.054,-0.001,0.013,998.988,0.307,0.262,0.159
169,0.003,-0.001,-0.077,0.0,0.012,998.984,0.307,0.262,0.159
170,0.004,0.0,-0.039,0.004,0.011,998.988,0.316,0.253,0.144
171,0.003,0.0,0.037,-0.008,0.003,998.989,0.318,0.28,0.141
172,0.003,-0.001,0.037,-0.012,0.001,998.988,0.313,0.264,0.153
173,0.003,0.0,0.021,0.002,0.003,998.99,0.315,0.256,0.186
174,0.004,-0.002,0.017,0.0,0.002,998.991,0.306,0.255,0.154
175,0.004,-0.002,0.017,-0.005,0.007,998.99,0.31,0.262,0.171
176,0.004,0.0,0.067,-0.005,0.013,998.99,0.31,0.262,0.171
177,0.003,0.0,0.1,-0.011,0.013,998.986,0.322,0.267,0.172
178,0.002,-0.003,0.051,-0.016,-0.005,998.976,0.31,0.264,0.174
179,0.002,-0.002,0.042,-0.01,0.023,998.975,0.31,0.243,0.15
180,-0.001,-0.005,0.017,-0.014,0.073,998.953,0.306,0.259,0.142
181,-0.003,-0.013,-0.016,-0.013,0.03,998.94,0.327,0.258,0.151
182,0.0,-0.003,-0.007,-0.005,-0.004,998.996,0.316,0.252,0.16
183,0.009,0.011,-0.012,-0.018,0.017,999.039,0.319,0.258,0.141
184,0.004,0.005,-0.009,-0.016,0.04,999.006,0.316,0.262,0.16
185,0.005,0.004,0.058,-0.033,0.015,999.017,0.334,0.274,0.136
186,0.001,-0.011,0.055,-0.017,-0.014,998.999,0.316,0.27,0.15
187,0.002,-0.006,0.002,0.009,0.005,998.976,0.316,0.27,0.15
188,-0.002,-0.004,-0.014,0.028,-0.006,999.006,0.319,0.253,0.156
189,0.0,0.002,0.03,0.021,-0.037,999.014,0.318,0.255,0.13
190,0.002,0.002,-0.015,-0.035,-0.028,999.081,0.313,0.262,0.166
191,0.007,0.001,-0.03,-0.048,-0.014,999.088,0.297,0.256,0.157
192,-0.004,-0.016,-0.016,-0.067,-0.015,999.085,0.324,0.264,0.157
193,0.001,-0.011,-0.072,-0.033,0.004,998.968,0.321,0.255,0.156
194,0.001,-0.011,-0.072,0.043,0.002,998.888,0.295,0.265,0.147
195,-0.002,-0.014,-0.09,0.043,0.002,998.888,0.322,0.256,0.136
196,-0.005,-0.015,-0.051,0.068,-0.003,998.853,0.322,0.256,0.136
197,-0.005,-0.015,-0.051,0.008,-0.023,999.063,0.313,0.247,0.166
198,0.014,0.018,0.044,-0.021,-0.037,999.21,0.309,0.243,0.16
199,0.008,0.011,0.021,0.0,-0.019,999.066,0.295,0.237,0.159
200,0.001,0.0,-0.072,-0.011,0.017,999.044,0.303,0.255,0.142
201,-0.005,-0.013,-0.122,0.023,-0.013,999.002,0.319,0.24,0.166
202,-0.002,-0.009,-0.106,0.049,-0.049,998.96,0.307,0.244,0.156
203,-0.002,-0.019,-0.079,0.007,-0.031,998.877,0.304,0.238,0.16
204,0.006,-0.009,-0.11,-0.013,-0.005,998.927,0.318,0.231,0.154
205,0.012,0.0,-0.051,-0.024,0.058,999.043,0.318,0.231,0.154
206,0.009,0.0,-0.084,-0.031,0.067,999.045,0.307,0.226,0.153
207,-0.002,-0.001,-0.078,-0.021,0.049,999.16,0.294,0.234,0.16
208,0.002,0.009,-0.039,-0.017,0.001,999.092,0.312,0.234,0.15
209,0.004,0.016,0.004,0.014,0.013,998.887,0.307,0.228,0.157
210,-0.017,-0.027,-0.004,0.057,0.041,998.849,0.319,0.219,0.138
211,0.0,0.008,0.001,0.008,-0.014,998.909,0.309,0.208,0.163
212,-0.001,0.0,0.02,0.001,-0.067,998.909,0.309,0.208,0.163
213,-0.001,0.0,0.02,0.0,-0.096,999.115,0.315,0.213,0.154
214,0.012,0.0,0.039,0.0,-0.096,999.115,0.324,0.219,0.153
215,0.011,0.021,-0.018,-0.027,-0.083,999.037,0.336,0.198,0.159
216,0.004,-0.002,0.038,-0.023,-0.046,998.716,0.328,0.216,0.157
217,0.019,0.025,0.154,-0.06,-0.059,998.987,0.327,0.205,0.165
218,0.025,0.028,0.048,-0.059,-0.061,998.94,0.318,0.198,0.148
219,0.025,0.011,-0.041,0.011,-0.016,998.641,0.315,0.204,0.145
220,0.022,0.009,-0.009,0.064,0.035,998.582,0.361,0.216,0.139
221,-0.004,-0.009,-0.121,0.005,-0.022,998.84,0.319,0.202,0.166
222,0.023,0.034,-0.123,-0.018,-0.047,999.243,0.319,0.202,0.166
223,0.003,-0.006,-0.098,-0.03,-0.105,999.416,0.334,0.193,0.144
224,-0.014,-0.028,-0.116,-0.012,-0.116,999.146,0.346,0.192,0.156
225,-0.003,-0.004,-0.099,0.041,0.048,998.972,0.352,0.192,0.156
226,0.009,0.015,-0.061,0.02,0.031,999.022,0.349,0.198,0.147
227,-0.007,0.009,-0.07,0.034,-0.03,998.894,0.333,0.195,0.141
228,-0.028,-0.049,-0.074,0.088,0.031,998.705,0.343,0.187,0.147
229,-0.001,-0.01,-0.135,0.114,0.038,998.792,0.355,0.165,0.153
230,-0.008,-0.025,-0.119,0.099,0.038,998.964,0.355,0.165,0.153
231,-0.008,-0.025,-0.119,0.034,0.0,998.97,0.345,0.184,0.139
232,0.014,0.002,0.03,0.012,0.028,999.011,0.345,0.184,0.156
233,-0.003,-0.025,0.099,0.012,0.028,999.011,0.364,0.184,0.156
234,-0.037,-0.067,0.041,0.111,0.105,998.551,0.385,0.168,0.16
235,0.008,0.004,-0.057,0.001,0.099,998.571,0.358,0.184,0.157
236,0.021,0.0,-0.007,-0.085,0.061,999.123,0.376,0.189,0.142
237,0.033,0.051,-0.035,0.004,0.04,999.103,0.385,0.156,0.157
238,0.014,0.043,-0.067,-0.048,-0.008,998.739,0.397,0.162,0.171
239,-0.002,0.005,0.004,-0.069,-0.1,998.75,0.387,0.166,0.141
240,0.002,0.008,-0.088,-0.038,-0.075,999.129,0.387,0.166,0.141
241,-0.007,-0.004,-0.163,-0.068,-0.063,999.082,0.393,0.171,0.141
242,0.016,0.014,0.067,-0.075,-0.084,999.164,0.406,0.184,0.142
243,0.009,0.0,0.216,-0.037,0.007,999.236,0.403,0.195,0.135
244,-0.009,-0.021,0.217,-0.028,0.121,999.181,0.42,0.196,0.13
245,0.014,0.003,0.036,-0.039,0.061,999.257,0.435,0.189,0.15
246,0.004,0.013,0.021,-0.04,-0.01,999.034,0.432,0.184,0.13
247,-0.001,0.014,-0.031,0.036,-0.004,998.69,0.421,0.193,0.153
248,0.009,0.016,-0.08,0.071,-0.064,998.791,0.429,0.169,0.138
249,0.002,-0.02,-0.021,0.012,-0.047,999.087,0.429,0.169,0.138
250,0.002,-0.02,-0.021,0.03,-0.029,999.042,0.441,0.175,0.141
251,0.009,0.004,0.021,0.03,-0.029,999.042,0.442,0.172,0.15
252,0.005,0.005,0.015,0.025,-0.048,999.031,0.456,0.16,0.147
253,0.011,-0.003,-0.128,0.019,-0.047,998.976,0.454,0.177,0.144
254,0.002,-0.011,-0.109,0.056,-0.051,999.038,0.459,0.171,0.148
255,-0.003,-0.004,-0.035,-0.001,-0.016,999.125,0.457,0.175,0.135
256,-0.007,-0.013,-0.009,0.0,-0.065,999.037,0.462,0.195,0.139
257,-0.005,-0.026,-0.056,0.054,-0.079,999.0,0.472,0.168,0.144
258,-0.002,-0.018,-0.014,0.083,-0.034,998.884,0.471,0.186,0.156
259,-0.004,-0.017,0.078,0.092,-0.071,998.831,0.471,0.186,0.156
260,0.002,-0.002,0.136,0.02,-0.033,998.883,0.484,0.205,0.142
261,0.008,0.011,0.1,-0.009,0.032,998.977,0.472,0.186,0.138
262,0.014,0.011,0.157,-0.007,-0.047,998.992,0.483,0.196,0.117
263,0.02,0.013,0.116,-0.049,-0.075,999.039,0.502,0.196,0.135
264,0.003,-0.007,0.011,-0.026,-0.047,999.007,0.502,0.196,0.12
265,0.004,0.002,0.084,0.001,-0.036,998.924,0.493,0.216,0.133
266,0.002,-0.002,0.278,-0.035,-0.024,999.004,0.495,0.183,0.126
267,0.002,-0.002,0.278,-0.036,-0.031,999.014,0.495,0.183,0.126
268,0.003,0.002,0.305,-0.009,-0.073,999.008,0.508,0.199,0.138
269,0.014,0.006,0.178,-0.003,-0.064,999.034,0.49,0.186,0.133
270,0.006,-0.001,0.081,-0.003,-0.064,999.034,0.501,0.199,0.145
271,0.0,-0.011,0.049,0.006,0.0,999.066,0.514,0.193,0.136
272,0.0,-0.004,0.021,-0.025,0.026,999.046,0.513,0.195,0.112
273,-0.007,-0.002,0.0,-0.039,0.001,998.939,0.514,0.199,0.148
274,-0.002,0.001,0.016,-0.007,-0.013,998.937,0.49,0.211,0.156
275,0.006,0.007,-0.011,-0.035,0.027,998.978,0.517,0.198,0.135
276,0.005,0.005,-0.007,-0.044,0.001,998.982,0.516,0.211,0.135
277,0.007,0.0,0.028,-0.024,-0.008,998.99,0.516,0.196,0.112
278,0.013,0.009,0.007,-0.037,0.01,999.038,0.516,0.196,0.112
279,0.009,0.004,-0.003,-0.027,-0.002,999.036,0.504,0.208,0.121
280,0.004,0.004,-0.038,-0.03,-0.013,998.991,0.51,0.204,0.126
281,0.004,0.001,-0.089,-0.007,-0.032,998.985,0.522,0.204,0.127
282,0.003,0.002,-0.077,-0.012,-0.011,998.974,0.517,0.211,0.132
283,0.004,0.004,-0.011,-0.026,0.003,999.005,0.532,0.196,0.129
284,0.008,0.008,-0.011,-0.022,-0.005,999.006,0.513,0.219,0.132
285,0.005,0.006,-0.049,-0.002,0.008,999.001,0.523,0.211,0.126
286,0.005,0.006,-0.049,0.001,0.02,999.039,0.523,0.211,0.126
287,0.01,0.013,-0.092,-0.012,-0.01,999.048,0.531,0.21,0.12
288,0.001,-0.002,-0.058,-0.012,-0.01,999.048,0.532,0.226,0.142
289,0.003,0.0,-0.014,0.003,-0.029,999.008,0.532,0.226,0.142
290,0.002,0.0,-0.025,-0.015,-0.021,998.994,0.52,0.225,0.142
291,0.002,0.0,-0.063,-0.015,-0.019,998.999,0.526,0.219,0.135
292,0.002,0.0,-0.052,-0.007,-0.014,998.99,0.513,0.226,0.136
293,0.003,-0.001,-0.019,-0.008,-0.002,998.991,0.525,0.21,0.135
294,0.002,-0.001,-0.01,-0.011,0.003,998.992,0.513,0.219,0.124
295,0.003,-0.001,-0.009,-0.009,0.002,998.993,0.522,0.211,0.141
296,0.003,-0.002,-0.009,-0.008,0.003,998.992,0.543,0.214,0.139
297,0.002,-0.002,-0.01,-0.008,0.005,998.991,0.543,0.214,0.139
298,0.002,0.0,-0.01,-0.008,0.006,998.992,0.519,0.214,0.129
299,0.002,0.0,-0.01,-0.007,0.004,998.992,0.52,0.222,0.12
300,0.003,0.0,-0.01,-0.006,0.003,998.992,0.519,0.237,0.139
301,0.003,0.0,-0.01,-0.008,0.002,998.993,0.511,0.211,0.13
302,0.004,0.0,-0.009,-0.01,0.003,998.995,0.54,0.222,0.145
303,0.003,0.0,-0.009,-0.01,0.004,998.994,0.51,0.219,0.118
304,0.003,-0.001,-0.009,-0.01,0.005,998.993,0.519,0.211,0.117
305,0.003,-0.001,-0.009,-0.011,0.003,998.991,0.525,0.217,0.127
306,0.002,-0.002,-0.009,-0.01,0.001,998.989,0.525,0.217,0.127
307,0.003,-0.001,-0.009,-0.01,0.001,998.989,0.531,0.226,0.127
308,0.004,0.0,-0.009,-0.009,0.002,998.989,0.525,0.22,0.13
309,0.002,-0.002,-0.009,-0.009,0.002,998.991,0.531,0.216,0.13
310,0.003,0.002,-0.01,-0.01,0.002,998.99,0.52,0.217,0.136
311,0.001,0.001,-0.135,-0.013,0.003,998.98,0.517,0.208,0.147
312,0.003,0.001,-0.177,-0.005,-0.032,998.985,0.528,0.208,0.121
313,0.003,0.004,-0.249,0.002,-0.068,998.998,0.517,0.229,0.12
314,0.034,0.046,-0.386,0.0,-0.044,998.997,0.534,0.21,0.133
315,0.071,0.098,-0.416,0.006,-0.033,998.991,0.529,0.214,0.129
316,0.098,0.132,-0.268,0.012,-0.033,998.998,0.529,0.214,0.129
317,0.028,0.033,-0.061,0.001,-0.004,998.991,0.507,0.238,0.15
318,0.004,0.0,-0.009,-0.002,0.015,998.983,0.517,0.22,0.138
319,0.003,0.0,-0.009,0.002,0.016,998.993,0.504,0.228,0.153
320,0.004,-0.001,-0.01,0.001,0.014,998.992,0.514,0.237,0.139
321,0.004,-0.001,-0.009,0.0,0.012,998.989,0.514,0.223,0.132
322,0.003,-0.002,-0.008,0.0,0.011,998.988,0.522,0.217,0.132
323,0.002,-0.002,-0.009,0.001,0.011,998.988,0.516,0.205,0.132
324,0.002,-0.002,-0.009,0.001,0.011,998.988,0.516,0.205,0.132
325,0.002,-0.002,-0.009,0.002,0.012,998.99,0.511,0.207,0.13
326,0.002,-0.002,-0.01,0.002,0.011,998.99,0.529,0.226,0.129
327,0.002,-0.002,-0.009,0.005,0.013,998.993,0.51,0.223,0.153
328,0.005,0.002,-0.009,0.002,0.013,998.993,0.514,0.22,0.136
329,0.004,0.0,-0.009,-0.001,0.012,998.994,0.513,0.235,0.147
330,0.002,-0.001,-0.009,0.0,0.014,998.995,0.507,0.225,0.142
331,0.003,0.0,-0.009,0.004,0.012,998.991,0.504,0.228,0.138
332,0.003,0.0,-0.009,0.003,0.011,998.99,0.513,0.208,0.105
333,0.002,-0.001,-0.009,0.002,0.011,998.991,0.511,0.229,0.145
334,0.001,0.0,-0.009,0.002,0.013,998.991,0.522,0.222,0.126
335,0.002,0.0,-0.009,0.002,0.012,998.989,0.522,0.222,0.126
336,0.002,-0.002,-0.009,0.001,0.01,998.99,0.502,0.223,0.141
337,0.001,-0.002,-0.009,0.0,0.011,998.992,0.519,0.229,0.151
338,-0.006,-0.014,-0.01,0.0,0.011,998.991,0.513,0.228,0.13
339,0.0,-0.002,-0.01,0.0,0.01,998.985,0.516,0.225,0.136
340,0.002,-0.002,-0.01,-0.004,0.01,998.969,0.517,0.223,0.124
341,0.004,-0.002,-0.01,-0.002,0.012,998.975,0.502,0.231,0.12
342,0.004,-0.002,-0.01,0.001,0.014,998.993,0.514,0.231,0.136
343,0.002,-0.002,-0.01,0.001,0.014,998.993,0.507,0.223,0.12
344,0.002,0.0,-0.009,0.001,0.013,998.991,0.507,0.223,0.12
345,0.003,0.0,-0.009,0.001,0.012,998.99,0.505,0.223,0.168
346,0.003,-0.002,-0.009,-0.001,0.013,998.988,0.519,0.211,0.13
347,0.004,0.007,-0.028,0.03,0.014,998.988,0.517,0.225,0.139
348,0.001,0.0,-0.016,0.033,0.012,998.991,0.505,0.21,0.144
349,-0.016,-0.028,-0.009,0.001,0.01,998.994,0.51,0.22,0.13
350,-0.029,-0.046,-0.008,0.0,0.011,998.992,0.516,0.237,0.129
351,-0.032,-0.053,-0.009,0.0,0.01,998.993,0.525,0.214,0.124
352,-0.044,-0.071,-0.008,-0.002,0.008,998.995,0.51,0.232,0.139
353,-0.056,-0.086,-0.007,-0.006,0.008,998.991,0.517,0.217,0.142
354,-0.046,-0.068,-0.011,-0.042,0.011,998.885,0.517,0.217,0.142
355,0.012,0.016,-0.414,-0.06,0.055,998.873,0.514,0.238,0.141
356,-0.023,-0.03,-0.987,-0.026,0.062,998.976,0.508,0.246,0.136
357,-0.008,0.001,-1.505,-0.004,-0.004,998.996,0.522,0.229,0.145
358,-0.006,0.014,-1.973,0.005,-0.039,998.892,0.499,0.229,0.153
359,0.025,0.052,-2.221,0.001,0.022,998.952,0.502,0.21,0.141
360,0.01,0.031,-2.198,0.005,0.023,999.116,0.481,0.226,0.129
361,0.01,0.031,-2.198,-0.004,0.018,999.032,0.481,0.226,0.129
362,-0.049,0.009,-2.181,-0.004,0.018,999.032,0.459,0.22,0.123
363,-0.025,0.004,-1.925,-0.024,0.101,999.022,0.478,0.216,0.13
364,-0.03,-0.012,-1.439,-0.02,0.048,998.97,0.447,0.222,0.138
365,-0.007,0.001,-0.8,-0.03,-0.049,998.921,0.445,0.228,0.141
366,0.004,0.006,-0.164,-0.026,-0.025,998.995,0.427,0.21,0.135
367,0.002,0.0,-0.009,-0.008,0.01,998.994,0.435,0.222,0.142
368,0.002,0.0,-0.009,-0.008,0.01,998.991,0.448,0.211,0.124
369,0.002,-0.001,-0.009,-0.008,0.01,998.993,0.448,0.211,0.124
370,0.002,-0.001,-0.009,-0.009,0.006,998.993,0.415,0.216,0.15
371,0.002,-0.001,-0.011,-0.008,0.007,998.993,0.409,0.196,0.132
372,0.002,-0.002,-0.01,-0.009,0.008,998.992,0.447,0.222,0.121
373,0.002,-0.001,-0.01,-0.01,0.006,998.991,0.432,0.214,0.121
374,0.002,0.0,-0.009,-0.011,0.006,998.989,0.402,0.214,0.145
375,0.002,-0.002,-0.009,-0.01,0.006,998.99,0.433,0.222,0.145
376,0.002,0.0,-0.01,-0.008,0.006,998.991,0.427,0.223,0.123
377,0.002,-0.001,-0.009,-0.008,0.008,998.991,0.429,0.214,0.126
378,0.002,-0.001,-0.009,-0.009,0.01,998.992,0.429,0.214,0.126
379,0.002,-0.002,-0.009,-0.01,0.01,998.993,0.439,0.222,0.138
380,0.002,-0.001,-0.009,-0.01,0.009,998.991,0.438,0.208,0.138
381,0.002,0.0,-0.009,-0.01,0.009,998.991,0.444,0.216,0.141
382,0.008,0.002,-0.01,-0.032,0.013,999.007,0.432,0.199,0.129
383,0.004,0.018,-0.884,-0.076,-0.026,999.061,0.432,0.222,0.12
384,0.01,0.026,-1.269,-0.065,0.007,999.233,0.432,0.205,0.114
385,-0.032,-0.015,-1.731,-0.025,0.094,999.036,0.43,0.219,0.121
386,-0.014,0.007,-2.072,-0.036,0.022,998.9,0.417,0.216,0.13
387,-0.007,0.007,-2.195,-0.069,-0.009,998.94,0.396,0.187,0.117
388,-0.015,0.003,-1.766,-0.042,0.104,998.839,0.369,0.216,0.117
389,0.014,0.03,-1.277,-0.057,0.102,998.932,0.369,0.216,0.117
390,-0.004,0.011,-1.541,-0.073,0.028,998.974,0.375,0.186,0.114
391,-0.013,0.002,-1.701,-0.012,0.016,998.978,0.375,0.199,0.141
392,0.044,0.073,-1.4,-0.032,0.0,999.003,0.358,0.186,0.144
393,-0.004,-0.001,-1.3,-0.108,-0.033,999.042,0.367,0.163,0.144
394,-0.005,-0.016,-1.633,-0.055,-0.035,999.035,0.361,0.162,0.124
395,-0.011,-0.008,-1.294,0.111,0.017,998.923,0.328,0.162,0.129
396,-0.011,-0.011,-0.833,0.051,0.084,998.904,0.336,0.144,0.13
397,0.001,0.0,-1.096,-0.046,0.07,998.976,0.337,0.151,0.145
398,0.001,0.0,-1.096,0.012,-0.036,998.945,0.337,0.151,0.145
399,-0.003,-0.001,-1.022,0.012,-0.036,998.945,0.324,0.132,0.142
400,0.003,0.007,-0.711,-0.025,-0.064,998.929,0.324,0.132,0.142
401,0.01,0.014,-0.666,-0.072,-0.021,998.96,0.33,0.108,0.123
402,-0.005,-0.011,-0.634,0.018,0.008,998.94,0.316,0.102,0.138
403,0.008,0.014,-0.418,0.032,0.038,998.949,0.331,0.105,0.129
404,-0.044,-0.056,-0.536,-0.031,0.055,999.002,0.327,0.106,0.123
405,-0.011,-0.008,-0.707,-0.015,0.025,999.016,0.31,0.103,0.127
406,0.002,0.005,-0.645,-0.03,-0.011,998.999,0.336,0.099,0.139
407,0.044,0.06,-0.59,-0.059,0.002,998.983,0.319,0.075,0.123
408,-0.031,-0.021,-0.819,0.001,0.049,998.884,0.319,0.075,0.123
409,-0.021,-0.019,-0.83,0.069,0.056,998.857,0.312,0.072,0.153
410,0.008,0.011,-0.613,0.052,0.039,998.965,0.315,0.07,0.126
411,0.01,0.009,-0.343,0.052,0.023,999.002,0.324,0.073,0.135
412,0.04,0.051,-0.111,0.058,0.001,999.007,0.33,0.061,0.129
413,0.02,0.026,-0.006,-0.005,0.024,999.013,0.306,0.066,0.162
414,0.005,-0.001,-0.023,-0.001,0.022,998.987,0.324,0.07,0.148
415,-0.009,-0.016,-0.007,0.03,0.003,998.986,0.322,0.066,0.136
416,-0.009,-0.016,-0.007,0.028,0.021,998.984,0.331,0.055,0.157
417,-0.034,-0.053,0.058,0.028,0.021,998.984,0.331,0.055,0.157
418,-0.035,-0.053,0.033,0.011,0.051,998.971,0.328,0.06,0.127
419,-0.005,-0.01,0.002,0.001,0.045,999.004,0.33,0.07,0.127
420,0.008,0.004,-0.024,0.016,0.017,998.987,0.325,0.042,0.132
421,0.0,-0.007,0.007,0.018,-0.02,999.027,0.324,0.058,0.118
422,0.004,0.0,0.074,0.032,-0.022,999.041,0.312,0.069,0.138
423,0.002,-0.007,0.067,0.007,0.007,998.995,0.33,0.067,0.123
424,0.002,-0.002,0.002,-0.007,-0.002,999.001,0.331,0.073,0.129
425,0.002,0.0,-0.016,-0.003,0.003,998.994,0.325,0.043,0.132
426,0.002,0.0,-0.035,-0.008,0.021,998.99,0.309,0.052,0.136
427,0.002,0.0,-0.037,-0.001,0.013,998.994,0.301,0.06,0.147
428,0.003,0.0,-0.023,0.004,0.002,998.993,0.301,0.06,0.147
429,0.002,-0.001,-0.011,0.0,0.01,998.989,0.31,0.054,0.13
430,0.001,-0.002,-0.011,-0.006,0.016,998.991,0.321,0.054,0.13
431,0.001,-0.002,-0.025,-0.026,0.059,998.995,0.304,0.07,0.138
432,0.002,-0.001,-0.025,-0.019,0.064,998.992,0.307,0.058,0.141
433,0.002,0.001,-0.004,0.004,0.004,998.999,0.31,0.066,0.127
434,0.006,0.004,0.026,0.001,-0.004,999.002,0.31,0.052,0.136
435,0.006,0.004,0.026,-0.004,0.006,998.996,0.309,0.051,0.139
436,0.004,0.005,-0.001,-0.004,0.006,998.996,0.313,0.058,0.118
437,0.002,0.0,-0.016,-0.003,0.005,999.0,0.313,0.058,0.118
438,-0.001,-0.005,-0.009,0.002,0.007,998.997,0.325,0.022,0.135
439,0.0,-0.003,-0.025,0.003,0.007,998.988,0.321,0.046,0.144
440,0.002,-0.002,-0.052,-0.008,0.021,998.988,0.33,0.049,0.132
441,0.0,-0.005,-0.066,-0.013,0.024,998.987,0.315,0.049,0.145
442,0.002,-0.002,-0.066,-0.011,0.017,998.979,0.309,0.049,0.148
443,0.001,-0.001,-0.076,0.007,0.006,998.981,0.321,0.048,0.133
444,0.001,0.0,-0.043,0.028,-0.012,998.987,0.322,0.045,0.129
445,0.001,-0.002,-0.015,0.01,0.004,998.99,0.312,0.028,0.135
446,0.002,-0.001,-0.012,-0.005,0.017,998.992,0.312,0.028,0.135
447,0.002,0.0,-0.097,-0.006,0.013,998.992,0.325,0.049,0.124
448,0.003,0.002,-0.073,0.0,-0.003,998.99,0.307,0.06,0.133
449,0.003,0.0,-0.021,0.002,-0.003,998.991,0.331,0.051,0.13
450,0.002,-0.002,-0.008,-0.003,0.014,998.991,0.312,0.051,0.145
451,0.002,-0.002,-0.009,-0.003,0.017,998.991,0.304,0.042,0.123
452,0.002,-0.001,-0.009,-0.004,0.017,998.992,0.316,0.055,0.118
453,0.002,-0.001,-0.009,-0.004,0.014,998.991,0.325,0.046,0.129
454,0.002,-0.001,-0.009,-0.004,0.014,998.991,0.309,0.058,0.13
455,0.002,-0.001,-0.009,-0.004,0.015,998.992,0.309,0.058,0.13
456,0.003,0.0,-0.009,-0.005,0.017,998.994,0.31,0.045,0.141
457,0.003,0.0,-0.009,-0.006,0.017,998.992,0.327,0.069,0.142
458,0.003,0.0,-0.009,-0.005,0.018,998.989,0.322,0.048,0.138
459,0.004,0.0,-0.009,-0.005,0.019,998.988,0.334,0.061,0.127
460,0.002,-0.001,-0.002,-0.003,0.01,998.991,0.327,0.04,0.127
461,0.001,-0.001,0.023,-0.001,0.013,998.994,0.316,0.04,0.132
462,0.002,-0.002,0.005,-0.002,0.021,998.992,0.31,0.036,0.127
463,0.004,-0.001,-0.002,-0.002,0.014,998.992,0.328,0.043,0.136
464,0.002,-0.002,0.034,-0.003,0.013,998.992,0.333,0.064,0.135
465,0.001,-0.004,0.056,-0.003,0.011,998.994,0.333,0.064,0.135
466,0.003,-0.003,0.097,-0.006,0.012,998.993,0.33,0.054,0.123
467,0.003,-0.004,0.076,-0.011,0.027,998.989,0.319,0.045,0.141
468,0.002,-0.002,0.015,-0.008,0.028,998.99,0.33,0.043,0.136
469,0.002,-0.001,-0.008,-0.006,0.017,998.992,0.319,0.049,0.129
470,0.002,-0.001,-0.01,-0.006,0.015,998.99,0.322,0.042,0.142
471,0.003,0.0,-0.01,-0.006,0.015,998.989,0.313,0.051,0.15
472,0.003,0.0,-0.01,-0.005,0.016,998.991,0.325,0.049,0.151
473,0.002,-0.002,-0.009,-0.005,0.016,998.991,0.325,0.049,0.151
474,0.002,-0.001,-0.009,-0.004,0.016,998.992,0.312,0.049,0.154
475,0.001,-0.002,-0.009,-0.005,0.013,998.992,0.316,0.054,0.129
476,0.002,-0.001,-0.009,-0.004,0.014,998.991,0.315,0.04,0.112
477,0.002,-0.002,-0.009,-0.005,0.016,998.99,0.304,0.051,0.148
478,0.003,0.0,-0.01,-0.005,0.015,998.991,0.319,0.07,0.145
479,0.003,-0.001,-0.009,-0.004,0.016,998.992,0.297,0.033,0.132
480,0.003,-0.002,-0.01,-0.002,0.017,998.992,0.318,0.043,0.135
481,0.002,0.0,-0.009,-0.003,0.016,998.991,0.316,0.051,0.135
482,0.002,0.0,-0.008,-0.004,0.015,998.99,0.316,0.051,0.135
483,0.002,-0.001,-0.009,-0.003,0.015,998.989,0.315,0.054,0.135
484,0.002,-0.001,-0.009,-0.003,0.016,998.988,0.322,0.036,0.132
485,0.002,-0.001,-0.009,-0.002,0.014,998.991,0.306,0.049,0.156
486,0.003,0.0,-0.009,-0.002,0.013,998.993,0.319,0.054,0.136
487,0.004,0.003,-0.009,-0.002,0.015,998.991,0.321,0.046,0.132
488,0.004,0.0,-0.009,-0.003,0.017,998.99,0.321,0.052,0.133
489,0.003,-0.001,-0.009,-0.005,0.016,998.99,0.321,0.046,0.133
490,0.003,-0.001,-0.009,-0.005,0.016,998.991,0.321,0.046,0.133
491,0.003,-0.001,-0.009,-0.004,0.017,998.992,0.316,0.04,0.13
492,0.002,-0.001,-0.009,-0.004,0.017,998.992,0.298,0.063,0.132
493,0.002,-0.002,-0.009,-0.002,0.016,998.991,0.288,0.052,0.127
494,0.002,-0.002,-0.009,-0.004,0.016,998.992,0.322,0.066,0.129
495,0.002,-0.001,-0.009,-0.005,0.017,998.994,0.306,0.064,0.132
496,0.003,-0.002,-0.01,-0.002,0.017,998.993,0.318,0.043,0.132
497,0.002,-0.001,-0.009,-0.003,0.017,998.989,0.312,0.046,0.139
498,0.002,0.0,-0.009,-0.006,0.018,998.991,0.309,0.057,0.13
499,0.002,0.0,-0.009,-0.006,0.018,998.991,0.321,0.049,0.133
500,0.002,-0.001,-0.009,-0.005,0.017,998.99,0.321,0.049,0.133
501,0.002,-0.002,-0.009,-0.004,0.016,998.991,0.313,0.049,0.121
502,0.002,-0.001,-0.01,-0.005,0.015,998.991,0.307,0.042,0.136
503,0.002,0.0,-0.01,-0.006,0.015,998.991,0.316,0.039,0.136
504,0.002,-0.001,-0.01,-0.005,0.015,998.993,0.325,0.052,0.136
505,0.003,-0.002,-0.009,-0.005,0.014,998.993,0.309,0.066,0.139
506,0.003,-0.001,-0.009,-0.004,0.014,998.99,0.297,0.058,0.129
507,0.002,0.0,-0.009,-0.004,0.016,998.99,0.307,0.058,0.12
508,0.002,-0.001,-0.009,-0.002,0.016,998.991,0.334,0.061,0.135
509,0.002,-0.001,-0.009,-0.001,0.015,998.992,0.334,0.061,0.135
510,0.002,-0.001,-0.01,-0.001,0.015,998.992,0.31,0.058,0.142
511,0.002,-0.001,-0.009,-0.004,0.017,998.992,0.31,0.058,0.142
512,0.003,-0.001,-0.009,-0.006,0.015,998.992,0.319,0.057,0.132
513,0.003,0.002,-0.01,-0.004,0.014,998.991,0.321,0.058,0.136
514,0.0,-0.001,-0.009,-0.003,0.015,998.99,0.321,0.058,0.136
515,0.001,-0.003,-0.009,-0.003,0.015,998.99,0.325,0.049,0.129
516,0.001,-0.004,-0.009,-0.003,0.016,998.989,0.309,0.039,0.138
517,0.0,-0.002,-0.009,-0.005,0.016,998.99,0.31,0.057,0.151
518,0.001,-0.002,-0.01,-0.005,0.015,998.992,0.333,0.042,0.151
519,0.005,0.002,-0.011,-0.003,0.019,998.999,0.333,0.042,0.151
520,0.002,-0.001,-0.015,-0.006,0.038,998.995,0.33,0.039,0.139
521,0.002,-0.001,-0.016,-0.009,0.026,998.995,0.316,0.072,0.129
522,0.002,-0.001,0.0,-0.001,0.006,998.998,0.318,0.052,0.127
523,0.003,-0.001,0.017,0.001,0.007,998.988,0.321,0.06,0.171
524,0.004,0.002,0.016,-0.012,0.014,998.988,0.31,0.058,0.139
525,0.003,0.0,-0.014,-0.007,0.013,998.989,0.312,0.061,0.139
526,0.004,0.001,-0.015,0.012,0.001,998.991,0.313,0.048,0.136
527,0.004,0.001,-0.015,0.009,0.035,998.993,0.313,0.048,0.136
528,0.004,0.0,-0.013,-0.002,0.062,998.997,0.313,0.055,0.139
529,0.002,-0.001,-0.009,-0.002,0.062,998.997,0.301,0.042,0.121
530,0.002,0.0,-0.006,-0.003,0.032,999.012,0.306,0.064,0.135
531,0.0,0.0,-0.022,-0.006,-0.004,998.996,0.327,0.043,0.135
532,0.0,0.0,-0.021,-0.01,0.008,998.97,0.342,0.055,0.147
533,0.004,0.004,-0.008,-0.011,0.029,998.995,0.318,0.055,0.127
534,0.004,0.007,-0.01,-0.015,0.004,999.003,0.316,0.039,0.115
535,0.0,-0.003,-0.009,-0.014,0.024,998.99,0.298,0.04,0.144
536,0.004,0.004,-0.047,-0.007,0.063,998.994,0.325,0.036,0.133
537,0.003,-0.004,-0.051,-0.016,0.035,998.975,0.325,0.036,0.133
538,0.016,0.011,0.002,-0.027,0.058,999.059,0.297,0.048,0.136
539,0.014,0.023,-0.022,-0.032,0.057,999.084,0.297,0.048,0.136
540,0.012,0.017,-0.004,-0.028,0.02,999.066,0.3,0.03,0.148
541,0.008,0.004,0.028,-0.027,-0.027,999.052,0.312,0.034,0.144
542,0.002,-0.006,0.034,-0.03,-0.053,998.981,0.307,0.046,0.145
543,0.007,0.004,0.003,-0.012,-0.035,999.008,0.303,0.052,0.136
544,0.009,0.009,-0.002,0.005,-0.037,998.994,0.318,0.04,0.127
545,0.011,0.007,0.011,0.013,0.017,998.997,0.307,0.043,0.129
546,0.011,0.007,0.011,0.002,0.034,999.0,0.307,0.043,0.129
547,0.002,0.008,0.011,0.002,0.034,999.0,0.312,0.049,0.136
548,0.002,-0.004,-0.018,0.032,-0.001,998.845,0.315,0.055,0.123
549,-0.007,-0.021,0.001,0.035,0.031,998.846,0.297,0.027,0.135
550,-0.004,-0.016,-0.034,0.003,0.034,999.009,0.3,0.046,0.144
551,0.031,0.042,0.005,-0.1,-0.04,999.09,0.303,0.039,0.172
552,0.012,0.01,-0.011,-0.106,-0.033,999.023,0.3,0.031,0.13
553,-0.011,-0.026,-0.035,0.063,-0.006,998.738,0.31,0.049,0.135
554,-0.011,-0.01,-0.055,0.079,0.015,998.779,0.304,0.036,0.144
555,-0.012,-0.024,-0.072,0.066,0.033,998.885,0.306,0.025,0.136
556,-0.001,0.001,-0.032,0.048,0.004,998.912,0.306,0.025,0.136
557,0.002,0.001,-0.05,0.002,0.047,999.007,0.301,0.042,0.135
558,-0.015,-0.023,-0.053,0.014,0.085,999.026,0.306,0.045,0.151
559,0.008,0.006,-0.048,-0.004,0.052,999.071,0.304,0.021,0.141
560,-0.002,0.002,-0.053,0.009,0.04,998.948,0.303,0.048,0.165
561,-0.036,-0.049,-0.083,0.052,0.034,998.834,0.297,0.024,0.132
562,-0.038,-0.05,-0.045,0.037,0.011,998.798,0.286,0.034,0.16
563,-0.002,-0.007,0.0,0.014,0.033,999.036,0.286,0.034,0.16
564,-0.002,-0.007,0.0,0.012,0.073,999.032,0.304,0.027,0.148
565,-0.004,-0.004,-0.007,0.027,0.074,998.919,0.28,0.009,0.151
566,-0.016,-0.023,0.0,0.027,0.074,998.919,0.304,0.013,0.163
567,-0.007,-0.004,-0.007,0.013,0.092,999.037,0.304,0.015,0.148
568,0.003,0.018,-0.005,-0.049,0.111,998.909,0.297,0.03,0.138
569,-0.018,-0.025,-0.017,-0.061,0.15,998.818,0.286,0.027,0.139
570,-0.002,-0.004,-0.011,-0.015,0.105,998.823,0.285,0.03,0.15
571,0.006,0.002,-0.032,-0.004,0.012,998.991,0.315,0.015,0.141
572,-0.002,0.008,-0.049,-0.041,0.017,999.068,0.28,0.013,0.142
573,0.017,0.041,-0.021,-0.084,0.015,999.264,0.28,0.013,0.142
574,0.016,0.019,-0.009,-0.06,0.0,999.306,0.3,0.021,0.142
575,0.002,0.002,-0.035,-0.015,0.023,999.053,0.289,0.022,0.153
576,-0.002,0.001,-0.04,0.002,0.045,998.966,0.294,0.018,0.144
577,0.002,0.001,-0.011,-0.014,0.028,998.893,0.307,0.015,0.147
578,0.001,-0.006,0.007,-0.015,0.042,998.948,0.298,0.007,0.15
579,0.0,-0.004,-0.005,0.001,0.037,999.022,0.289,0.024,0.144
580,0.002,-0.014,-0.023,-0.014,0.007,998.984,0.297,0.015,0.141
581,0.005,0.0,-0.009,-0.053,-0.048,998.955,0.258,0.004,0.151
582,-0.009,-0.044,-0.023,-0.027,0.01,998.94,0.306,0.015,0.141
583,-0.009,-0.044,-0.023,0.053,0.082,998.961,0.306,0.015,0.141
584,-0.003,-0.028,-0.016,0.053,0.082,998.961,0.285,0.024,0.145
585,0.004,-0.006,0.015,-0.001,0.027,999.062,0.279,0.016,0.145
586,-0.007,-0.028,-0.004,-0.017,0.019,998.889,0.279,-0.001,0.153
587,-0.006,-0.021,0.0,0.026,0.068,998.896,0.283,0.004,0.163
588,-0.009,-0.018,-0.003,0.066,0.117,998.819,0.31,0.015,0.141
589,-0.001,0.0,0.016,0.081,0.036,998.898,0.264,0.001,0.154
590,0.002,0.009,-0.034,0.019,-0.003,999.161,0.276,0.018,0.138
591,0.007,0.006,-0.028,-0.041,0.025,998.989,0.286,0.01,0.16
592,0.017,0.018,0.002,-0.091,-0.031,999.078,0.274,0.013,0.151
593,0.015,-0.001,-0.018,-0.046,-0.026,999.175,0.274,0.013,0.151
594,-0.031,-0.064,-0.06,0.061,0.046,998.937,0.271,0.007,0.153
595,-0.004,-0.028,-0.05,0.07,0.045,998.915,0.286,0.0,0.153
596,0.007,0.001,-0.055,-0.003,0.057,998.998,0.283,0.009,0.151
597,-0.034,-0.044,-0.055,0.06,0.11,998.85,0.267,0.015,0.169
598,0.004,0.007,-0.049,0.059,0.015,998.884,0.283,0.001,0.15
599,0.0,-0.003,-0.037,-0.011,-0.025,998.854,0.273,0.001,0.141
600,0.008,0.013,-0.033,0.031,-0.021,998.934,0.291,-0.003,0.168
601,0.008,0.013,-0.033,-0.046,-0.048,999.088,0.291,-0.003,0.168
602,0.018,0.018,-0.031,-0.112,0.015,999.073,0.295,0.001,0.153
603,0.014,0.014,-0.009,-0.112,0.015,999.073,0.282,-0.009,0.168
604,-0.004,-0.021,-0.016,-0.034,0.057,998.948,0.291,0.004,0.156
605,-0.005,-0.017,-0.019,-0.017,0.063,998.756,0.286,0.013,0.16
606,-0.005,-0.017,-0.039,0.015,0.024,998.928,0.27,0.013,0.168
607,0.002,0.001,-0.031,0.055,0.007,998.962,0.285,-0.003,0.165
608,-0.004,-0.015,-0.021,0.023,-0.011,998.728,0.27,0.0,0.151
609,0.004,-0.018,-0.044,0.049,0.012,998.797,0.277,0.007,0.148
610,0.0,-0.007,0.004,0.088,0.041,998.761,0.279,-0.001,0.15
611,-0.014,-0.016,0.035,0.019,0.047,998.822,0.274,0.018,0.169
612,-0.002,-0.014,0.008,-0.073,0.084,999.101,0.283,0.004,0.169
613,0.004,0.004,0.013,-0.089,0.082,999.144,0.283,0.004,0.169
614,0.001,0.005,0.013,-0.036,0.094,998.966,0.265,0.012,0.166
615,0.01,0.018,0.004,-0.04,0.048,998.972,0.271,-0.016,0.178
616,0.012,0.016,0.042,-0.118,0.144,999.165,0.291,0.006,0.162
617,0.016,0.025,0.018,-0.117,0.187,999.261,0.283,0.009,0.175
618,0.023,0.018,0.011,-0.025,0.05,999.127,0.261,0.01,0.177
619,0.009,-0.004,0.014,-0.033,0.051,998.9,0.271,0.012,0.154
620,0.009,-0.004,0.014,-0.142,-0.027,998.855,0.286,-0.006,0.151
621,0.028,0.039,0.037,-0.142,-0.027,998.855,0.28,0.016,0.177
622,0.027,0.023,0.017,-0.172,-0.111,999.034,0.28,0.016,0.177
623,0.005,0.009,0.0,-0.012,-0.037,999.285,0.277,-0.009,0.156
624,0.008,0.009,-0.029,0.064,-0.039,999.146,0.292,-0.006,0.178
625,0.0,0.009,-0.026,-0.052,-0.047,999.086,0.268,0.01,0.181
626,0.006,0.014,0.005,-0.078,0.017,999.115,0.279,-0.007,0.153
627,0.0,-0.013,0.005,0.038,0.029,999.015,0.291,0.012,0.171
628,0.007,-0.001,-0.032,0.073,0.017,999.046,0.276,-0.012,0.147
629,-0.01,-0.022,-0.072,-0.005,-0.001,998.833,0.27,-0.006,0.177
630,0.002,-0.004,-0.025,-0.031,-0.072,998.868,0.256,0.004,0.162
631,0.018,0.012,0.01,-0.106,-0.074,999.177,0.268,-0.012,0.166
632,-0.028,-0.039,0.027,-0.052,0.03,998.699,0.268,-0.012,0.166
633,-0.006,-0.004,0.021,-0.056,-0.032,998.635,0.255,0.009,0.154
634,0.004,0.0,0.016,-0.029,-0.029,999.113,0.265,0.004,0.18
635,-0.007,-0.012,-0.032,0.028,0.041,999.186,0.273,0.006,0.166
636,-0.01,-0.017,-0.02,-0.046,0.021,999.165,0.264,0.0,0.165
637,0.009,0.008,0.011,-0.02,-0.058,999.064,0.276,0.007,0.168
638,0.009,0.008,0.011,-0.029,-0.115,999.266,0.267,0.004,0.171
639,-0.004,-0.002,-0.033,-0.029,-0.115,999.266,0.267,0.004,0.171
640,-0.017,-0.042,-0.009,-0.018,0.003,999.324,0.265,-0.004,0.169
641,0.0,-0.004,-0.019,-0.015,0.027,999.213,0.273,0.012,0.177
642,-0.004,-0.002,-0.023,-0.002,-0.01,999.155,0.285,-0.001,0.171
643,-0.03,-0.04,-0.016,0.001,0.009,999.013,0.276,0.007,0.174
644,-0.007,-0.017,-0.029,-0.032,-0.005,999.028,0.28,-0.004,0.162
645,0.003,0.015,-0.008,0.045,0.019,998.922,0.27,0.004,0.168
646,0.007,0.002,-0.012,0.046,0.064,998.911,0.25,-0.006,0.18
647,-0.004,-0.014,-0.004,-0.007,0.048,999.085,0.265,-0.004,0.171
648,0.007,0.005,-0.024,-0.011,0.052,999.035,0.261,-0.009,0.171
649,0.01,0.011,-0.052,0.0,0.021,998.993,0.261,-0.009,0.171
650,0.016,0.025,-0.014,0.028,0.044,999.01,0.27,-0.004,0.199
651,0.016,0.012,-0.009,0.024,0.018,999.019,0.283,0.016,0.159
652,-0.008,-0.011,-0.004,0.007,-0.03,999.012,0.262,-0.003,0.177
653,-0.011,-0.043,0.021,0.0,0.039,998.891,0.265,0.001,0.162
654,0.0,0.011,0.051,0.002,0.071,999.172,0.28,-0.004,0.169
655,0.003,0.0,0.028,-0.022,0.036,999.343,0.268,0.012,0.174
656,0.002,0.004,0.04,0.003,0.032,999.098,0.258,0.003,0.166
657,0.002,0.004,0.04,0.0,0.008,998.918,0.271,0.001,0.19
658,0.007,0.011,0.028,0.0,0.008,998.918,0.282,0.009,0.183
659,0.004,0.003,0.045,-0.014,-0.03,998.826,0.282,0.009,0.183
660,0.004,-0.001,0.016,0.015,-0.04,998.822,0.28,0.013,0.169
661,0.005,0.004,-0.035,0.003,-0.014,998.721,0.282,0.004,0.169
662,0.002,0.006,-0.014,-0.012,0.0,998.796,0.276,0.003,0.169
663,0.003,0.007,-0.028,-0.028,-0.014,998.996,0.262,0.004,0.187
664,-0.007,-0.016,-0.023,-0.038,0.037,998.895,0.27,0.018,0.178
665,-0.005,-0.014,-0.014,0.0,0.015,998.761,0.261,-0.004,0.165
666,0.007,0.009,0.0,0.014,-0.008,998.904,0.274,-0.009,0.178
667,-0.009,-0.039,-0.016,0.047,0.068,998.684,0.267,-0.006,0.162
668,-0.007,-0.022,-0.011,0.019,0.067,998.845,0.262,-0.001,0.177
669,0.001,-0.007,-0.009,-0.035,0.033,999.155,0.262,-0.001,0.177
670,0.01,0.003,0.004,0.003,0.037,998.873,0.277,-0.007,0.172
671,-0.014,-0.025,0.009,-0.003,0.021,998.888,0.279,-0.007,0.172
672,-0.003,-0.006,0.037,-0.004,0.033,998.951,0.27,0.0,0.172
673,0.02,0.034,0.058,-0.023,-0.031,998.921,0.276,0.007,0.159
674,0.018,0.029,0.12,0.005,-0.036,998.95,0.258,-0.007,0.186
675,-0.022,-0.032,0.072,0.023,0.089,999.039,0.256,-0.001,0.175
676,-0.022,-0.032,0.072,-0.025,0.064,999.217,0.256,-0.001,0.175
677,0.0,0.0,0.035,-0.025,0.064,999.217,0.27,0.022,0.187
678,0.016,0.015,0.02,-0.017,0.036,999.217,0.27,0.022,0.187
679,0.014,0.012,0.013,0.012,0.064,999.042,0.256,0.003,0.175
680,-0.008,0.001,0.014,-0.009,0.015,998.966,0.25,0.009,0.174
681,-0.001,-0.005,0.007,-0.026,-0.043,998.882,0.261,-0.003,0.175
682,0.004,0.005,0.016,-0.003,-0.052,998.895,0.271,0.009,0.163
683,0.001,-0.009,0.014,0.0,-0.022,998.958,0.25,-0.013,0.166
684,0.005,0.007,0.032,-0.001,-0.031,998.96,0.268,0.004,0.195
685,0.004,0.001,0.001,-0.025,0.0,998.986,0.282,0.01,0.175
686,0.004,0.0,-0.001,-0.014,0.012,999.034,0.282,0.01,0.175
687,0.016,0.016,0.015,0.005,-0.024,999.014,0.253,-0.004,0.166
688,0.022,0.023,0.061,0.007,-0.024,998.978,0.276,-0.009,0.166
689,0.019,0.016,0.088,-0.002,0.001,998.985,0.267,0.006,0.183
690,0.004,0.002,0.073,-0.008,0.002,999.003,0.259,0.012,0.196
691,-0.009,-0.02,0.044,0.014,0.009,999.028,0.25,-0.003,0.175
692,-0.002,-0.009,0.055,0.009,0.029,999.016,0.252,0.01,0.171
693,-0.009,-0.015,0.033,0.006,0.053,998.987,0.288,0.001,0.178
694,-0.009,-0.015,0.033,0.029,0.0,999.005,0.277,0.012,0.186
695,0.018,0.026,0.038,0.029,0.0,999.005,0.27,0.021,0.168
696,0.003,0.009,0.056,0.025,-0.041,999.008,0.27,0.021,0.168
697,-0.006,-0.009,0.024,0.008,0.02,998.993,0.271,0.003,0.153
698,-0.004,-0.012,0.011,-0.008,0.006,999.011,0.258,0.01,0.18
699,-0.007,-0.014,0.016,0.002,-0.004,999.018,0.279,0.007,0.175
700,0.009,0.007,0.035,0.007,0.002,998.989,0.253,0.009,0.18
701,0.002,-0.01,0.032,-0.018,-0.016,998.98,0.268,0.021,0.165
702,0.0,-0.012,0.034,-0.017,-0.001,998.994,0.27,0.003,0.18
703,0.014,0.016,0.051,-0.021,0.018,999.011,0.286,-0.004,0.166
704,-0.01,-0.017,0.023,-0.028,0.041,999.001,0.243,0.022,0.175
705,-0.02,-0.037,0.029,-0.008,0.017,998.966,0.264,0.006,0.184
706,0.0,-0.012,0.053,0.002,-0.011,998.979,0.264,0.006,0.184
707,0.017,0.015,0.065,0.0,0.006,999.001,0.292,0.021,0.174
708,-0.009,-0.015,0.066,-0.003,-0.002,999.002,0.277,0.001,0.159
709,-0.04,-0.054,0.014,-0.006,0.005,998.981,0.28,0.019,0.16
710,-0.013,-0.017,0.023,0.004,0.002,998.979,0.273,0.013,0.178
711,0.001,-0.007,0.074,0.013,-0.015,999.013,0.273,0.018,0.169
712,0.002,-0.001,0.114,0.015,0.016,999.01,0.273,0.007,0.159
713,0.002,-0.001,0.114,0.015,0.016,999.01,0.273,0.007,0.159
714,0.0,-0.005,0.126,0.007,-0.028,998.983,0.264,0.027,0.183
715,0.001,-0.007,0.104,-0.014,-0.028,998.983,0.279,0.004,0.186
716,0.003,-0.003,0.064,-0.02,-0.02,998.988,0.286,0.01,0.172
717,0.002,-0.001,0.006,-0.009,0.003,998.995,0.259,0.025,0.178
718,0.001,-0.002,-0.008,0.0,0.017,998.993,0.261,0.006,0.186
719,0.003,-0.009,0.211,-0.008,0.017,998.989,0.246,0.016,0.181
720,0.001,-0.006,0.154,-0.037,-0.001,998.994,0.273,0.019,0.171
721,0.002,-0.002,0.018,-0.048,-0.005,998.996,0.264,0.015,0.189
722,0.002,0.0,-0.011,-0.021,0.01,998.991,0.271,0.018,0.165
723,0.004,0.0,-0.01,-0.002,0.017,998.99,0.271,0.018,0.165
724,0.002,0.0,-0.009,-0.003,0.016,998.989,0.277,0.03,0.178
725,0.002,0.0,-0.009,-0.003,0.013,998.992,0.268,0.004,0.186
726,0.002,-0.001,-0.009,-0.004,0.014,998.994,0.261,0.019,0.174
727,0.002,-0.001,-0.009,-0.005,0.016,998.991,0.256,0.022,0.18
728,0.002,-0.001,-0.009,-0.005,0.014,998.99,0.279,0.025,0.171
729,0.002,-0.001,-0.009,-0.003,0.013,998.991,0.274,0.03,0.193
730,0.002,-0.001,-0.009,-0.004,0.014,998.992,0.259,0.025,0.175
731,0.002,-0.001,-0.009,-0.004,0.015,998.993,0.27,0.016,0.184
732,0.002,-0.001,-0.011,-0.004,0.015,998.993,0.27,0.016,0.184
733,0.002,-0.002,-0.009,-0.004,0.013,998.992,0.264,0.027,0.187
734,0.002,-0.003,-0.009,-0.005,0.014,998.99,0.271,0.021,0.171
735,0.002,-0.005,-0.009,-0.004,0.016,998.988,0.267,0.016,0.186
736,0.002,-0.002,-0.009,-0.004,0.015,998.991,0.271,0.016,0.172
737,0.002,-0.001,-0.009,-0.003,0.016,998.992,0.271,0.027,0.183
738,0.002,0.0,-0.01,-0.006,0.016,998.989,0.268,0.012,0.183
739,0.002,-0.002,-0.009,-0.006,0.014,998.99,0.253,0.012,0.18
740,0.002,-0.002,-0.009,-0.004,0.013,998.993,0.258,0.01,0.192
741,0.002,-0.001,-0.009,-0.005,0.012,998.995,0.27,0.019,0.187
742,0.003,0.0,-0.009,-0.005,0.014,998.996,0.28,0.019,0.181
743,0.002,0.0,-0.009,-0.006,0.018,998.99,0.27,0.028,0.183
744,0.002,0.0,-0.077,-0.009,0.035,998.988,0.27,0.028,0.183
745,0.002,0.002,-0.028,-0.006,0.037,998.992,0.256,-0.006,0.183
746,0.004,0.001,-0.009,-0.003,0.018,998.994,0.274,0.024,0.198
747,0.003,-0.001,-0.009,-0.003,0.015,998.99,0.259,0.031,0.183
748,0.003,-0.001,-0.01,-0.005,0.015,998.991,0.262,0.016,0.184
749,0.003,0.0,-0.009,-0.006,0.014,998.993,0.277,0.028,0.177
750,0.003,0.0,-0.009,-0.004,0.015,998.991,0.261,0.007,0.178
751,0.002,0.0,-0.009,-0.004,0.015,998.991,0.261,0.007,0.178
752,0.002,-0.001,-0.009,-0.003,0.015,998.991,0.259,0.012,0.19
753,0.001,-0.002,-0.009,-0.005,0.015,998.991,0.249,0.021,0.172
754,0.004,0.001,-0.01,-0.007,0.015,998.99,0.25,0.015,0.181
755,0.004,0.0,-0.01,-0.005,0.014,998.99,0.279,0.04,0.181
756,0.003,0.0,-0.009,-0.005,0.015,998.991,0.268,0.028,0.165
757,0.002,0.001,-0.009,-0.006,0.016,998.992,0.262,0.018,0.168
758,0.003,0.0,-0.009,-0.004,0.015,998.989,0.259,0.039,0.169
759,0.003,0.0,-0.009,-0.002,0.017,998.989,0.265,0.022,0.168
760,0.002,-0.001,-0.009,-0.004,0.016,998.99,0.273,0.021,0.186
761,0.003,-0.001,-0.009,-0.004,0.014,998.988,0.267,0.027,0.162
762,0.002,-0.002,-0.009,-0.003,0.014,998.99,0.267,0.027,0.162
763,0.002,-0.001,-0.01,-0.002,0.013,998.993,0.28,0.022,0.183
764,0.002,-0.002,-0.01,-0.004,0.014,998.992,0.25,0.019,0.168
765,0.002,-0.002,-0.009,-0.005,0.013,998.992,0.265,0.024,0.172
766,0.003,-0.002,-0.009,-0.006,0.014,998.991,0.259,0.027,0.186
767,0.002,-0.001,-0.009,-0.005,0.017,998.99,0.264,0.016,0.163
768,0.002,-0.001,-0.009,-0.004,0.017,998.994,0.288,0.018,0.168
769,0.002,-0.002,-0.01,-0.004,0.017,998.994,0.252,-0.003,0.178
770,0.002,-0.001,-0.01,-0.005,0.014,998.992,0.253,0.019,0.193
771,0.002,-0.001,-0.009,-0.006,0.014,998.989,0.253,0.019,0.193
772,0.003,-0.002,-0.009,-0.005,0.015,998.99,0.274,0.021,0.183
773,0.003,-0.008,-0.008,-0.004,0.013,998.989,0.264,0.016,0.195
774,0.002,-0.004,-0.008,-0.003,0.011,998.992,0.265,0.022,0.174
775,0.003,-0.001,-0.009,-0.004,0.012,998.995,0.27,0.019,0.162
776,0.002,-0.002,-0.009,-0.003,0.014,998.992,0.264,0.015,0.168
777,0.002,-0.002,-0.009,-0.002,0.014,998.992,0.258,0.001,0.195
778,0.002,-0.001,-0.009,-0.004,0.013,998.989,0.27,0.001,0.189
779,0.002,0.0,-0.009,-0.004,0.014,998.99,0.27,0.018,0.177
780,0.001,0.0,-0.009,-0.003,0.016,998.992,0.27,0.018,0.177
781,0.002,0.0,-0.01,-0.003,0.015,998.988,0.262,0.027,0.183
782,0.002,0.0,-0.009,-0.005,0.015,998.989,0.264,0.015,0.181
783,0.002,0.0,-0.009,-0.005,0.016,998.991,0.267,0.016,0.178
784,0.002,-0.001,-0.01,-0.004,0.014,998.993,0.247,0.019,0.168
785,0.002,-0.002,-0.01,-0.003,0.015,998.994,0.259,0.019,0.177
786,0.002,0.0,-0.009,-0.004,0.015,998.99,0.253,0.001,0.172
787,0.002,0.0,-0.009,-0.003,0.015,998.987,0.244,0.019,0.192
788,0.002,-0.002,-0.009,-0.003,0.015,998.987,0.244,0.019,0.192
789,0.003,-0.001,-0.01,-0.004,0.015,998.988,0.255,0.015,0.181
790,0.002,0.0,-0.009,-0.004,0.015,998.989,0.265,0.036,0.181
791,0.002,-0.002,-0.009,-0.003,0.016,998.991,0.27,0.031,0.184
792,0.002,-0.007,-0.009,-0.005,0.016,998.99,0.261,0.015,0.172
793,0.002,-0.003,-0.009,-0.004,0.014,998.989,0.259,0.033,0.177
794,0.002,-0.001,-0.009,-0.005,0.015,998.991,0.253,0.021,0.181
795,0.002,-0.001,-0.009,-0.006,0.016,998.993,0.258,0.007,0.193
796,0.002,-0.002,-0.008,-0.004,0.015,998.992,0.274,0.018,0.175
797,0.002,-0.002,-0.009,-0.005,0.015,998.992,0.264,0.006,0.172
798,0.002,-0.002,-0.009,-0.005,0.015,998.991,0.264,0.006,0.172
799,0.002,-0.001,-0.009,-0.003,0.015,998.99,0.271,0.027,0.192
800,0.002,-0.001,-0.009,-0.004,0.015,998.993,0.262,0.019,0.18
