,Gyroscope X (deg/s),Gyroscope Y (deg/s),Gyroscope Z (deg/s),Accelerometer X (g),Accelerometer Y (g),Accelerometer Z (g),Magnetometer X (G),Magnetometer Y (G),Magnetometer Z (G)
0,0.002,-0.001,-0.013,-0.003,0.007,0.999,0.354,0.028,-0.607
1,0.002,-0.001,-0.013,-0.003,0.007,0.999,0.322,0.024,-0.597
2,0.002,-0.001,-0.013,-0.003,0.007,0.999,0.322,0.024,-0.597
3,0.002,-0.001,-0.013,-0.003,0.007,0.999,0.322,0.024,-0.597
4,0.002,-0.001,-0.013,-0.003,0.007,0.999,0.322,0.024,-0.597
5,0.002,-0.001,-0.013,-0.003,0.007,0.999,0.322,0.024,-0.597
6,0.002,-0.001,-0.013,-0.003,0.007,0.999,0.322,0.024,-0.597
7,0.002,-0.001,-0.013,-0.003,0.007,0.999,0.322,0.024,-0.597
8,0.002,-0.001,-0.013,-0.003,0.007,0.999,0.322,0.024,-0.597
9,0.002,-0.001,-0.013,-0.003,0.007,0.999,0.322,0.024,-0.597
10,0.002,-0.001,-0.013,-0.003,0.007,0.999,0.322,0.024,-0.597
11,0.002,-0.001,-0.013,-0.003,0.007,0.999,0.322,0.024,-0.597
12,0.002,-0.001,-0.013,-0.003,0.007,0.999,0.322,0.024,-0.597
13,0.002,-0.001,-0.013,-0.003,0.007,0.999,0.322,0.024,-0.597
14,0.002,-0.001,-0.013,-0.003,0.007,0.999,0.322,0.024,-0.597
15,0.002,-0.001,-0.013,-0.003,0.007,0.999,0.322,0.024,-0.597
16,0.002,-0.001,-0.013,-0.003,0.007,0.999,0.322,0.024,-0.597
17,0.002,-0.001,-0.013,-0.003,0.007,0.999,0.322,0.024,-0.597
18,0.002,-0.001,-0.013,-0.003,0.007,0.999,0.322,0.024,-0.597
19,0.002,-0.001,-0.013,-0.003,0.007,0.999,0.322,0.024,-0.597
20,0.002,-0.001,-0.013,-0.003,0.007,0.999,0.322,0.024,-0.597
21,0.002,-0.001,-0.013,-0.003,0.007,0.999,0.322,0.024,-0.597
22,0.002,-0.001,-0.013,-0.003,0.007,0.999,0.322,0.024,-0.597
23,0.002,-0.001,-0.013,-0.003,0.007,0.999,0.322,0.024,-0.597
24,0.002,-0.001,-0.013,-0.003,0.007,0.999,0.322,0.024,-0.597
25,0.002,-0.001,-0.013,-0.003,0.007,0.999,0.322,0.024,-0.597
26,0.002,-0.001,-0.013,-0.003,0.007,0.999,0.322,0.024,-0.597
27,0.002,-0.001,-0.013,-0.003,0.007,0.999,0.322,0.024,-0.597
28,0.002,-0.001,-0.013,-0.003,0.007,0.999,0.322,0.024,-0.597
29,0.002,-0.001,-0.013,-0.003,0.007,0.999,0.322,0.024,-0.597
30,0.002,-0.001,-0.013,-0.003,0.007,0.999,0.322,0.024,-0.597
31,0.002,-0.001,-0.013,-0.003,0.007,0.999,0.322,0.024,-0.597
32,0.002,-0.001,-0.013,-0.003,0.007,0.999,0.322,0.024,-0.597
33,0.002,-0.001,-0.013,-0.003,0.007,0.999,0.322,0.024,-0.597
34,0.002,-0.001,-0.013,-0.003,0.007,0.999,0.322,0.024,-0.597
35,0.002,-0.001,-0.013,-0.003,0.007,0.999,0.322,0.024,-0.597
36,0.002,-0.001,-0.013,-0.003,0.007,0.999,0.322,0.024,-0.597
37,0.002,-0.001,-0.013,-0.003,0.007,0.999,0.322,0.024,-0.597
38,0.002,-0.001,-0.013,-0.003,0.007,0.999,0.322,0.024,-0.597
39,0.002,-0.001,-0.013,-0.003,0.007,0.999,0.322,0.024,-0.597
40,0.002,-0.001,-0.013,-0.003,0.007,0.999,0.322,0.024,-0.597
41,0.002,-0.001,-0.013,-0.003,0.007,0.999,0.322,0.024,-0.597
42,0.002,-0.001,-0.013,-0.003,0.007,0.999,0.322,0.024,-0.597
43,0.002,-0.001,-0.013,-0.003,0.007,0.999,0.322,0.024,-0.597
44,0.002,-0.001,-0.013,-0.003,0.007,0.999,0.322,0.024,-0.597
45,0.002,-0.001,-0.013,-0.003,0.007,0.999,0.322,0.024,-0.597
46,0.002,-0.001,-0.013,-0.003,0.007,0.999,0.322,0.024,-0.597
47,0.002,-0.001,-0.013,-0.003,0.007,0.999,0.322,0.024,-0.597
48,0.002,-0.001,-0.013,-0.003,0.007,0.999,0.322,0.024,-0.597
49,0.002,-0.001,-0.013,-0.003,0.007,0.999,0.322,0.024,-0.597
50,0.002,-0.001,-0.013,-0.003,0.007,0.999,0.322,0.024,-0.597
51,0.002,-0.001,-0.013,-0.003,0.007,0.999,0.322,0.024,-0.597
52,0.002,-0.001,-0.013,-0.003,0.007,0.999,0.322,0.024,-0.597
53,0.002,-0.001,-0.013,-0.003,0.007,0.999,0.322,0.024,-0.597
54,0.002,-0.001,-0.013,-0.003,0.007,0.999,0.322,0.024,-0.597
55,0.002,-0.001,-0.013,-0.003,0.007,0.999,0.322,0.024,-0.597
56,0.002,-0.002,-0.012,-0.003,0.004,1.002,0.322,0.024,-0.597
57,0.002,0.0,-0.014,-0.003,0.004,1.002,0.348,0.021,-0.6
58,0.002,-0.001,-0.014,-0.005,0.003,1.001,0.348,0.021,-0.6
59,0.001,-0.001,-0.014,-0.001,0.007,0.999,0.342,0.016,-0.607
60,0.002,0.0,-0.014,-0.001,0.006,1.0,0.34,0.018,-0.586
61,0.002,0.0,-0.014,-0.005,0.005,1.001,0.34,0.006,-0.586
62,0.002,-0.001,-0.014,-0.007,0.005,1.0,0.367,0.027,-0.6
63,0.001,-0.002,-0.014,-0.006,0.005,1.0,0.345,0.03,-0.583
64,0.001,-0.003,-0.014,-0.004,0.005,0.999,0.313,0.033,-0.589
65,0.002,-0.002,-0.014,-0.004,0.006,0.999,0.33,0.021,-0.588
66,0.002,0.0,-0.014,-0.006,0.005,0.999,0.358,0.007,-0.582
67,0.002,-0.002,-0.014,-0.005,0.005,0.999,0.358,0.007,-0.582
68,0.002,-0.003,-0.014,-0.005,0.006,1.001,0.36,0.018,-0.606
69,0.002,-0.002,-0.013,-0.005,0.005,1.0,0.352,0.024,-0.588
70,0.002,-0.002,-0.013,-0.003,0.003,1.002,0.348,0.015,-0.586
71,0.002,-0.002,-0.013,-0.003,0.003,1.002,0.348,0.033,-0.604
72,0.002,-0.002,-0.013,-0.003,0.004,1.0,0.354,0.027,-0.603
73,0.002,-0.002,-0.014,-0.002,0.004,0.999,0.351,0.037,-0.612
74,0.002,-0.001,-0.014,-0.001,0.004,1.001,0.336,0.028,-0.585
75,0.002,-0.002,-0.014,-0.004,0.004,1.002,0.346,0.034,-0.594
76,0.002,-0.002,-0.014,-0.003,0.008,1.0,0.348,0.018,-0.595
77,0.002,-0.002,-0.013,-0.003,0.008,1.0,0.351,0.021,-0.598
78,0.002,-0.002,-0.013,-0.003,0.005,0.999,0.343,0.025,-0.607
79,0.002,-0.001,-0.014,-0.003,0.005,0.999,0.337,0.027,-0.595
80,0.002,-0.001,-0.013,-0.004,0.006,0.999,0.337,0.027,-0.595
81,0.002,-0.002,-0.014,-0.003,0.006,1.0,0.346,0.021,-0.589
82,0.002,-0.002,-0.014,-0.004,0.006,0.999,0.357,0.024,-0.588
83,0.002,-0.002,-0.013,-0.006,0.006,1.001,0.346,0.016,-0.601
84,0.001,-0.002,-0.014,-0.004,0.006,1.001,0.342,0.028,-0.586
85,0.002,-0.002,-0.014,-0.005,0.007,1.001,0.34,0.018,-0.598
86,0.002,-0.002,-0.014,-0.006,0.008,0.999,0.346,0.019,-0.592
87,0.002,-0.002,-0.014,-0.003,0.005,0.999,0.316,0.024,-0.594
88,0.002,-0.002,-0.014,-0.003,0.003,1.0,0.337,0.009,-0.582
89,0.002,-0.001,-0.013,-0.004,0.005,1.0,0.345,0.018,-0.594
90,0.001,-0.002,-0.014,-0.005,0.007,0.999,0.342,0.022,-0.595
91,0.002,-0.004,-0.014,-0.005,0.008,1.0,0.342,0.028,-0.603
92,0.002,-0.002,-0.014,-0.004,0.006,1.002,0.339,0.009,-0.574
93,0.002,-0.002,-0.014,-0.005,0.005,1.0,0.339,0.009,-0.574
94,0.002,-0.002,-0.013,-0.005,0.006,1.0,0.328,0.021,-0.585
95,0.002,-0.002,-0.014,-0.005,0.006,1.0,0.34,0.037,-0.58
96,0.002,-0.002,-0.012,-0.006,0.007,1.001,0.34,0.037,-0.58
97,0.002,-0.002,-0.014,-0.005,0.006,1.001,0.339,0.031,-0.586
98,0.002,-0.002,-0.013,-0.005,0.005,1.002,0.333,0.031,-0.586
99,0.003,-0.001,-0.014,-0.005,0.006,1.001,0.333,0.031,-0.586
100,0.002,-0.002,-0.014,-0.003,0.005,1.0,0.337,0.033,-0.601
101,0.002,-0.002,-0.014,-0.002,0.006,1.001,0.337,0.013,-0.604
102,0.002,-0.002,-0.014,-0.002,0.006,1.0,0.337,0.031,-0.588
103,0.002,-0.002,-0.014,-0.001,0.005,1.0,0.336,0.027,-0.606
104,0.002,-0.002,-0.014,-0.003,0.004,1.001,0.343,0.012,-0.618
105,0.002,-0.003,-0.014,-0.006,0.005,1.003,0.336,0.019,-0.588
106,0.002,-0.001,-0.013,-0.005,0.004,1.001,0.345,0.021,-0.604
107,0.002,-0.002,-0.014,-0.004,0.005,1.0,0.345,0.021,-0.604
108,0.002,-0.002,-0.014,-0.002,0.005,1.001,0.343,0.01,-0.6
109,0.002,-0.002,-0.014,-0.003,0.006,0.999,0.346,0.022,-0.606
110,0.001,-0.002,-0.014,-0.005,0.003,0.999,0.348,0.006,-0.6
111,0.001,-0.002,-0.014,-0.006,0.004,0.998,0.331,0.028,-0.579
112,0.002,0.0,-0.013,-0.006,0.004,0.998,0.331,0.028,-0.579
113,0.002,0.0,-0.014,-0.005,0.005,1.001,0.354,0.016,-0.594
114,0.002,-0.001,-0.014,-0.003,0.004,1.001,0.348,0.039,-0.595
115,0.002,-0.001,-0.014,-0.004,0.007,1.0,0.358,0.012,-0.604
116,0.002,-0.001,-0.013,-0.004,0.006,1.001,0.34,0.033,-0.604
117,0.002,-0.002,-0.014,-0.002,0.003,1.0,0.36,0.024,-0.595
118,0.002,-0.002,-0.013,-0.003,0.002,1.0,0.333,0.019,-0.594
119,0.002,-0.002,-0.013,-0.004,0.003,1.003,0.331,0.013,-0.61
120,0.001,-0.002,-0.014,-0.004,0.005,1.001,0.351,0.034,-0.612
121,0.001,-0.001,-0.014,-0.002,0.006,1.0,0.346,0.027,-0.594
122,0.002,-0.001,-0.014,-0.004,0.007,1.0,0.343,0.021,-0.588
123,0.002,-0.002,-0.014,-0.004,0.006,1.001,0.343,0.021,-0.588
124,0.002,-0.002,-0.014,-0.004,0.005,1.002,0.346,0.039,-0.6
125,0.002,-0.002,-0.014,-0.004,0.006,1.001,0.352,0.01,-0.601
126,0.002,-0.002,-0.014,-0.003,0.006,1.001,0.355,0.015,-0.607
127,0.001,-0.004,-0.013,-0.004,0.005,1.001,0.351,0.01,-0.598
128,0.001,-0.001,-0.013,-0.004,0.006,1.001,0.349,0.027,-0.603
129,0.002,-0.001,-0.014,-0.004,0.006,1.0,0.358,0.028,-0.595
130,0.002,-0.002,-0.014,-0.004,0.006,1.0,0.33,0.028,-0.612
131,0.002,-0.002,-0.014,-0.003,0.006,1.002,0.361,0.036,-0.604
132,0.001,0.0,-0.014,-0.004,0.007,1.003,0.334,0.018,-0.604
133,0.002,-0.001,-0.014,-0.006,0.005,1.002,0.342,0.031,-0.583
134,0.003,-0.002,-0.013,-0.005,0.004,1.001,0.352,0.03,-0.6
135,0.004,-0.002,-0.014,-0.004,0.005,1.001,0.352,0.027,-0.591
136,0.003,-0.002,-0.014,-0.006,0.006,1.0,0.343,0.022,-0.601
137,0.002,-0.002,-0.014,-0.004,0.006,1.001,0.342,0.013,-0.607
138,0.002,0.0,-0.014,-0.002,0.005,1.001,0.355,0.025,-0.604
139,0.002,0.0,-0.014,-0.002,0.005,0.999,0.355,0.025,-0.604
140,0.002,-0.001,-0.014,-0.004,0.006,1.001,0.357,0.021,-0.586
141,0.002,-0.002,-0.013,-0.006,0.007,1.0,0.345,0.027,-0.603
142,0.002,-0.002,-0.013,-0.006,0.004,0.998,0.363,0.028,-0.595
143,0.001,-0.002,-0.013,-0.006,0.004,1.001,0.351,0.016,-0.597
144,0.002,-0.002,-0.013,-0.006,0.005,0.999,0.364,0.028,-0.589
145,0.002,-0.002,-0.014,-0.005,0.005,0.998,0.361,0.021,-0.61
146,0.002,-0.003,-0.014,-0.004,0.004,0.998,0.354,0.016,-0.595
147,0.002,-0.002,-0.013,-0.005,0.003,0.999,0.34,0.018,-0.609
148,0.002,-0.002,-0.014,-0.005,0.003,0.999,0.339,0.022,-0.609
149,0.001,-0.001,-0.013,-0.004,0.004,0.998,0.345,0.019,-0.595
150,0.002,0.0,-0.014,-0.004,0.004,0.999,0.334,0.033,-0.598
151,0.002,-0.002,-0.014,-0.005,0.003,1.001,0.343,0.025,-0.6
152,0.002,-0.002,-0.014,-0.004,0.003,1.003,0.333,0.022,-0.594
153,0.002,-0.001,-0.013,-0.003,0.003,1.002,0.349,0.025,-0.603
154,0.002,-0.002,-0.013,-0.005,0.005,1.001,0.349,0.025,-0.603
155,0.002,0.0,-0.013,-0.006,0.005,1.001,0.36,0.021,-0.597
156,0.002,-0.002,-0.013,-0.006,0.005,1.0,0.358,0.007,-0.604
157,0.002,-0.002,-0.013,-0.005,0.004,1.0,0.345,0.031,-0.628
158,0.002,-0.002,-0.013,-0.002,0.002,1.001,0.345,0.024,-0.588
159,0.002,-0.002,-0.014,-0.001,0.003,1.001,0.355,0.018,-0.603
160,0.002,-0.003,-0.014,-0.005,0.005,1.0,0.351,0.021,-0.594
161,0.001,-0.002,-0.014,-0.004,0.006,1.0,0.342,0.028,-0.591
162,0.001,-0.002,-0.014,-0.003,0.005,1.001,0.343,0.022,-0.598
163,0.002,-0.001,-0.014,-0.004,0.006,1.001,0.339,0.033,-0.601
164,0.002,-0.002,-0.013,-0.003,0.007,0.999,0.319,0.028,-0.574
165,0.002,-0.001,-0.013,-0.003,0.007,0.999,0.339,0.007,-0.612
166,0.002,-0.002,-0.013,-0.005,0.006,0.999,0.342,0.027,-0.588
167,0.002,-0.002,-0.014,-0.006,0.005,1.002,0.336,0.033,-0.583
168,0.002,-0.002,-0.014,-0.005,0.005,1.004,0.339,0.013,-0.603
169,0.001,-0.001,-0.013,-0.005,0.006,1.001,0.339,0.013,-0.603
170,0.002,-0.002,-0.014,-0.003,0.005,1.0,0.345,0.028,-0.6
171,0.002,-0.002,-0.014,-0.003,0.005,1.001,0.328,0.021,-0.577
172,0.001,-0.001,-0.014,-0.005,0.005,1.002,0.339,0.031,-0.6
173,0.001,0.0,-0.014,-0.005,0.006,1.002,0.348,0.03,-0.597
174,0.001,0.0,-0.014,-0.006,0.004,0.999,0.318,0.025,-0.603
175,0.001,-0.002,-0.014,-0.007,0.0,1.0,0.361,0.028,-0.606
176,0.002,-0.002,-0.014,-0.006,0.001,1.0,0.352,0.028,-0.607
177,0.002,-0.002,-0.013,-0.006,0.005,0.999,0.348,0.039,-0.598
178,0.001,-0.001,-0.014,-0.005,0.004,1.0,0.34,0.012,-0.597
179,0.001,-0.001,-0.013,-0.005,0.004,1.002,0.331,0.024,-0.601
180,0.002,-0.001,-0.014,-0.003,0.003,1.0,0.358,0.022,-0.589
181,0.002,-0.002,-0.014,-0.004,0.002,0.998,0.358,0.022,-0.589
182,0.002,-0.002,-0.014,-0.006,0.008,1.001,0.337,0.015,-0.579
183,0.002,-0.002,-0.014,-0.006,0.008,1.001,0.337,0.015,-0.579
184,0.002,-0.002,-0.013,-0.005,0.005,1.001,0.343,0.015,-0.595
185,0.002,-0.001,-0.013,-0.005,0.003,0.999,0.349,0.033,-0.603
186,0.001,-0.002,-0.014,-0.004,0.003,1.0,0.346,0.019,-0.603
187,0.001,-0.002,-0.013,-0.004,0.004,1.0,0.364,0.022,-0.597
188,0.001,-0.001,-0.014,-0.005,0.004,0.999,0.358,0.004,-0.604
189,0.002,0.0,-0.013,-0.005,0.005,1.0,0.346,0.027,-0.618
190,0.002,-0.002,-0.014,-0.006,0.005,1.001,0.348,0.046,-0.598
191,0.002,-0.002,-0.014,-0.005,0.006,1.001,0.339,0.013,-0.598
192,0.002,-0.002,-0.014,-0.004,0.006,1.0,0.34,0.013,-0.595
193,0.001,-0.001,-0.014,-0.004,0.004,1.001,0.354,0.016,-0.597
194,0.001,-0.002,-0.013,-0.005,0.006,1.001,0.349,0.024,-0.601
195,0.002,-0.001,-0.014,-0.005,0.004,1.002,0.345,0.018,-0.595
196,0.002,-0.001,-0.014,-0.005,0.003,1.002,0.348,0.021,-0.604
197,0.002,0.0,-0.014,-0.005,0.004,1.003,0.348,0.021,-0.604
198,0.002,-0.002,-0.014,-0.004,0.003,1.002,0.346,0.039,-0.604
199,0.002,-0.002,-0.014,-0.006,0.006,1.002,0.34,0.024,-0.583
200,0.002,-0.002,-0.013,-0.007,0.004,1.003,0.343,0.012,-0.583
201,0.002,-0.003,-0.014,-0.007,0.004,1.003,0.346,0.016,-0.601
202,0.002,-0.002,-0.014,-0.005,0.004,1.001,0.334,0.034,-0.607
203,0.002,-0.002,-0.013,-0.004,0.006,1.0,0.351,-0.001,-0.612
204,0.002,-0.001,-0.014,-0.005,0.005,1.0,0.351,0.031,-0.607
205,0.002,-0.001,-0.013,-0.004,0.004,1.0,0.348,0.025,-0.594
206,0.002,-0.001,-0.014,-0.003,0.003,1.001,0.339,0.022,-0.595
207,0.002,-0.002,-0.014,-0.004,0.004,0.999,0.333,0.019,-0.61
208,0.002,-0.001,-0.014,-0.004,0.003,0.998,0.339,0.03,-0.601
209,0.002,-0.002,-0.014,-0.003,0.004,1.0,0.331,0.028,-0.574
210,0.002,-0.002,-0.014,-0.003,0.005,1.001,0.351,0.03,-0.61
211,0.002,-0.002,-0.014,-0.003,0.004,1.0,0.349,0.024,-0.598
212,0.002,-0.002,-0.014,-0.003,0.004,1.0,0.327,0.028,-0.603
213,0.002,-0.001,-0.014,-0.004,0.005,1.001,0.345,0.007,-0.606
214,0.002,-0.002,-0.014,-0.006,0.006,0.999,0.346,0.031,-0.585
215,0.002,-0.003,-0.014,-0.005,0.008,0.999,0.33,0.025,-0.592
216,0.002,-0.002,-0.013,-0.003,0.007,1.0,0.339,0.022,-0.606
217,0.002,-0.003,-0.013,-0.003,0.008,1.002,0.339,0.022,-0.606
218,0.002,-0.002,-0.014,-0.003,0.008,1.002,0.345,0.03,-0.613
219,0.002,0.0,-0.014,-0.003,0.007,0.999,0.345,0.03,-0.613
220,0.001,-0.001,-0.014,-0.003,0.006,0.999,0.346,0.033,-0.595
221,0.001,-0.002,-0.014,-0.005,0.006,1.001,0.351,0.019,-0.619
222,0.002,-0.001,-0.013,-0.005,0.006,1.0,0.352,0.016,-0.585
223,0.002,-0.001,-0.014,-0.003,0.005,0.999,0.327,0.018,-0.621
224,0.002,-0.002,-0.014,-0.005,0.003,1.001,0.358,0.007,-0.61
225,0.002,-0.002,-0.014,-0.005,0.005,0.999,0.352,0.025,-0.591
226,0.002,-0.003,-0.014,-0.003,0.007,0.998,0.342,0.018,-0.613
227,0.002,-0.002,-0.014,-0.002,0.004,1.001,0.358,0.036,-0.577
228,0.002,-0.003,-0.013,-0.002,0.005,1.001,0.349,0.019,-0.621
229,0.002,-0.002,-0.013,-0.004,0.007,1.0,0.334,0.015,-0.606
230,0.002,-0.002,-0.014,-0.005,0.007,1.0,0.34,0.022,-0.603
231,0.002,-0.001,-0.014,-0.005,0.006,1.001,0.334,0.043,-0.594
232,0.002,0.0,-0.014,-0.005,0.008,1.001,0.363,0.024,-0.604
233,0.002,0.0,-0.014,-0.006,0.007,1.001,0.366,0.031,-0.604
234,0.001,-0.002,-0.014,-0.002,0.006,1.002,0.343,0.025,-0.597
235,0.002,-0.002,-0.014,-0.002,0.006,1.002,0.348,0.033,-0.598
236,0.002,-0.001,-0.014,-0.002,0.006,1.001,0.348,0.028,-0.568
237,0.002,-0.001,-0.014,-0.001,0.008,0.999,0.348,0.028,-0.568
238,0.001,-0.001,-0.014,-0.003,0.009,1.0,0.333,0.052,-0.61
239,0.002,-0.001,-0.014,-0.005,0.006,0.999,0.337,0.021,-0.586
240,0.003,-0.002,-0.014,-0.004,0.005,0.998,0.336,0.019,-0.582
241,0.001,-0.002,-0.014,-0.004,0.005,1.0,0.357,0.019,-0.6
242,0.001,-0.001,-0.014,-0.004,0.005,1.0,0.334,0.042,-0.592
243,0.002,0.0,-0.013,-0.004,0.005,0.999,0.319,0.027,-0.586
244,0.001,-0.002,-0.014,-0.004,0.006,1.002,0.331,0.01,-0.598
245,0.002,-0.003,-0.013,-0.004,0.006,1.003,0.346,0.022,-0.597
246,0.002,-0.002,-0.012,-0.004,0.004,1.001,0.342,0.018,-0.607
247,0.002,-0.001,-0.014,-0.006,0.007,1.002,0.331,0.031,-0.589
248,0.003,-0.002,-0.014,-0.006,0.006,1.001,0.336,0.033,-0.627
249,0.003,-0.001,-0.014,-0.004,0.002,1.001,0.354,0.03,-0.609
250,0.002,-0.002,-0.014,-0.005,0.004,0.999,0.33,0.03,-0.58
251,0.002,-0.002,-0.014,-0.005,0.006,0.999,0.342,0.034,-0.612
252,0.002,-0.002,-0.014,-0.002,0.005,1.001,0.339,0.018,-0.598
253,0.002,-0.003,-0.014,-0.002,0.005,1.001,0.355,0.028,-0.607
254,0.002,-0.002,-0.014,-0.004,0.003,1.001,0.325,0.031,-0.61
255,0.002,-0.003,-0.014,-0.004,0.002,1.002,0.325,0.031,-0.61
256,0.001,-0.002,-0.014,-0.002,0.002,1.003,0.345,0.03,-0.63
257,0.002,-0.002,-0.014,-0.004,0.004,1.002,0.325,0.022,-0.594
258,0.003,-0.002,-0.014,-0.006,0.005,1.002,0.325,0.022,-0.594
259,0.002,-0.003,-0.013,-0.003,0.006,1.002,0.352,0.024,-0.589
260,0.002,-0.002,-0.013,-0.001,0.004,1.0,0.36,0.024,-0.604
261,0.002,-0.002,-0.014,-0.002,0.003,0.999,0.324,0.019,-0.597
262,0.002,-0.002,-0.015,-0.004,0.005,1.0,0.337,0.024,-0.603
263,0.002,-0.002,-0.016,-0.006,0.007,1.001,0.316,0.025,-0.583
264,0.003,-0.003,-0.018,-0.006,0.007,1.002,0.348,0.025,-0.598
265,0.003,-0.005,-0.019,-0.005,0.005,1.0,0.333,0.034,-0.613
266,0.002,-0.001,-0.023,-0.008,0.013,1.017,0.345,0.034,-0.595
267,-0.002,-0.002,-0.033,-0.012,0.013,1.021,0.34,0.024,-0.595
268,0.0,0.0,-0.051,-0.006,0.004,1.004,0.34,0.024,-0.595
269,0.004,-0.006,-0.029,0.005,-0.005,0.997,0.337,0.021,-0.615
270,0.003,-0.005,-0.014,0.005,0.001,0.998,0.342,0.018,-0.597
271,0.002,-0.003,-0.011,0.005,0.001,0.998,0.345,0.018,-0.571
272,0.001,-0.004,-0.013,-0.004,0.006,1.001,0.361,0.025,-0.604
273,0.002,-0.006,-0.013,-0.003,0.005,1.0,0.34,0.018,-0.607
274,0.002,-0.004,-0.013,-0.003,0.005,1.0,0.349,0.016,-0.604
275,-0.018,0.019,-0.011,-0.006,0.005,1.001,0.348,0.004,-0.597
276,-0.019,0.053,-0.014,0.01,-0.009,0.992,0.334,0.016,-0.597
277,-0.02,0.077,-0.012,0.006,-0.01,0.992,0.352,0.031,-0.592
278,-0.016,0.104,-0.014,-0.004,0.004,0.999,0.348,0.019,-0.607
279,-0.007,0.068,-0.013,-0.004,0.006,1.001,0.342,0.01,-0.583
280,0.0,0.01,-0.005,-0.021,0.008,1.007,0.352,0.022,-0.61
281,0.001,-0.01,0.001,-0.023,0.01,1.003,0.331,0.034,-0.6
282,0.002,0.007,-0.004,-0.018,0.01,1.001,0.357,0.022,-0.615
283,0.001,0.025,-0.013,-0.013,0.009,1.002,0.34,0.025,-0.6
284,0.0,0.028,-0.016,-0.014,0.009,1.0,0.331,0.009,-0.621
285,0.002,0.009,-0.014,-0.018,0.008,1.002,0.331,0.009,-0.621
286,0.007,-0.023,-0.016,-0.021,0.007,1.005,0.352,0.028,-0.594
287,0.006,-0.006,-0.019,-0.016,0.009,1.003,0.363,0.004,-0.606
288,0.004,0.02,-0.021,-0.015,0.01,1.0,0.372,0.03,-0.588
289,0.003,0.012,-0.018,-0.015,0.01,1.0,0.351,0.034,-0.613
290,0.001,0.006,-0.016,-0.019,0.008,1.002,0.366,0.021,-0.612
291,0.0,0.032,-0.022,-0.018,0.011,0.999,0.333,0.021,-0.588
292,0.004,0.029,-0.025,-0.019,0.013,0.996,0.349,0.034,-0.612
293,0.004,0.018,-0.014,-0.022,0.008,1.003,0.34,0.021,-0.607
294,0.006,0.007,-0.014,-0.023,0.006,1.004,0.342,0.036,-0.592
295,0.005,0.004,-0.011,-0.027,0.01,0.999,0.352,0.028,-0.616
296,0.004,-0.018,-0.006,-0.025,0.01,1.0,0.337,0.033,-0.598
297,0.003,-0.046,-0.004,-0.025,0.008,1.003,0.352,0.033,-0.603
298,0.002,-0.024,-0.002,-0.022,0.009,1.002,0.343,0.031,-0.601
299,0.0,0.012,-0.011,-0.017,0.008,0.999,0.33,0.022,-0.586
300,0.002,0.021,-0.018,-0.021,0.013,0.996,0.327,0.025,-0.601
301,-0.009,0.06,-0.007,-0.02,0.012,0.996,0.342,0.034,-0.595
302,-0.005,0.044,-0.009,-0.019,0.009,0.996,0.354,0.028,-0.603
303,0.009,0.01,-0.001,-0.03,0.013,0.998,0.354,0.028,-0.603
304,0.004,0.016,-0.013,-0.029,0.012,1.0,0.367,0.039,-0.609
305,0.002,0.007,-0.014,-0.027,0.005,1.001,0.339,0.022,-0.595
306,0.002,-0.021,-0.011,-0.027,0.005,1.001,0.366,0.033,-0.594
307,0.001,-0.011,-0.014,-0.032,0.007,1.002,0.355,0.019,-0.612
308,0.0,0.011,-0.014,-0.022,0.011,0.998,0.358,0.015,-0.6
309,-0.001,-0.003,-0.009,-0.022,0.01,0.999,0.354,0.033,-0.592
310,-0.007,-0.015,0.009,-0.027,0.006,1.003,0.342,0.022,-0.604
311,0.003,-0.014,-0.008,-0.029,0.008,1.01,0.349,0.034,-0.619
312,0.007,0.007,-0.018,-0.019,0.01,1.006,0.342,0.033,-0.61
313,0.004,0.017,-0.017,-0.019,0.007,0.996,0.358,0.01,-0.607
314,0.0,0.017,-0.015,-0.026,0.008,0.999,0.354,0.022,-0.607
315,0.003,-0.004,-0.013,-0.026,0.008,1.002,0.34,0.018,-0.601
316,0.007,-0.015,-0.013,-0.029,0.009,1.002,0.346,0.021,-0.592
317,0.006,-0.002,-0.009,-0.021,0.01,1.0,0.346,0.021,-0.592
318,0.004,-0.005,-0.01,-0.022,0.007,0.999,0.334,0.019,-0.58
319,0.009,-0.009,-0.009,-0.031,0.007,1.002,0.334,0.019,-0.58
320,0.019,-0.023,0.0,-0.031,0.012,1.004,0.333,0.033,-0.61
321,0.011,0.0,0.014,-0.027,0.012,1.004,0.336,0.018,-0.577
322,0.011,0.008,0.105,-0.007,0.039,1.001,0.339,0.03,-0.603
323,-0.001,-0.013,0.135,0.001,0.036,1.018,0.34,0.027,-0.619
324,0.0,-0.075,0.147,0.001,0.036,1.018,0.348,0.039,-0.594
325,0.018,-0.067,0.077,-0.012,0.043,1.004,0.34,0.028,-0.601
326,0.016,-0.026,0.046,-0.013,0.034,1.005,0.349,0.034,-0.606
327,-0.003,0.016,0.042,-0.01,0.041,0.985,0.346,0.031,-0.607
328,-0.009,0.025,0.014,-0.011,0.064,0.968,0.339,0.022,-0.613
329,0.001,0.021,0.045,-0.015,0.069,1.004,0.331,0.033,-0.613
330,-0.007,0.014,0.051,-0.045,0.058,1.029,0.34,0.025,-0.583
331,0.009,0.005,0.046,-0.072,0.053,0.995,0.34,0.025,-0.583
332,0.01,-0.002,-0.079,-0.05,0.073,0.965,0.351,0.03,-0.609
333,0.022,0.005,-0.221,-0.021,0.111,1.017,0.348,0.034,-0.618
334,0.016,-0.014,-0.231,0.001,0.109,1.051,0.355,0.033,-0.615
335,0.015,0.005,-0.21,-0.005,0.067,1.005,0.346,0.024,-0.606
336,0.021,0.018,-0.123,-0.025,0.04,1.023,0.339,0.016,-0.604
337,-0.009,0.014,-0.139,-0.017,0.031,1.058,0.346,0.034,-0.601
338,-0.015,0.022,-0.164,-0.003,0.053,0.978,0.366,0.028,-0.612
339,-0.012,-0.004,-0.093,-0.012,0.101,0.936,0.339,0.037,-0.592
340,-0.008,-0.01,0.004,-0.026,0.038,0.944,0.349,0.018,-0.598
341,-0.017,-0.044,0.04,-0.026,0.038,0.944,0.346,0.03,-0.612
342,0.013,0.004,0.046,-0.054,0.037,0.981,0.348,0.016,-0.615
343,-0.016,-0.032,-0.024,-0.054,0.046,1.115,0.33,0.025,-0.618
344,-0.045,-0.033,-0.169,-0.067,0.066,1.089,0.355,0.033,-0.604
345,0.009,-0.07,-0.223,-0.034,0.069,0.949,0.355,0.033,-0.604
346,0.013,-0.063,-0.242,0.014,0.054,0.925,0.343,0.004,-0.604
347,0.039,0.006,-0.212,-0.004,0.045,0.989,0.349,0.015,-0.613
348,0.02,-0.004,-0.211,-0.013,0.047,0.988,0.346,0.018,-0.619
349,0.0,-0.039,-0.254,-0.009,0.049,0.945,0.369,0.025,-0.61
350,-0.011,-0.073,-0.232,-0.025,0.067,0.948,0.345,0.016,-0.618
351,0.011,-0.087,-0.129,-0.007,0.053,0.989,0.354,0.021,-0.607
352,0.013,-0.049,-0.053,0.029,0.002,0.972,0.348,0.0,-0.6
353,0.006,-0.03,-0.103,0.021,-0.018,0.99,0.351,0.021,-0.616
354,-0.014,-0.03,-0.181,0.012,0.005,1.001,0.355,0.006,-0.589
355,-0.065,0.002,-0.235,0.002,0.017,0.99,0.327,0.013,-0.631
356,-0.047,-0.018,-0.154,-0.009,0.04,0.999,0.345,0.013,-0.6
357,-0.007,0.002,-0.077,-0.034,-0.023,0.986,0.339,0.012,-0.609
358,0.007,-0.014,-0.093,-0.023,-0.015,1.01,0.346,0.021,-0.616
359,-0.023,-0.023,-0.114,-0.023,-0.015,1.01,0.358,0.012,-0.622
360,-0.009,-0.058,-0.089,0.0,0.015,1.036,0.363,-0.004,-0.621
361,0.031,-0.05,-0.049,0.009,0.0,1.02,0.361,0.001,-0.591
362,0.059,-0.042,-0.087,0.0,-0.038,1.047,0.346,0.015,-0.616
363,0.03,-0.028,-0.136,-0.035,-0.05,1.101,0.346,0.015,-0.616
364,0.006,-0.039,-0.097,-0.05,-0.052,1.048,0.352,-0.001,-0.589
365,-0.003,-0.028,0.039,-0.007,-0.056,0.976,0.352,0.004,-0.6
366,-0.003,0.0,0.085,0.04,-0.056,1.022,0.339,0.015,-0.6
367,-0.002,-0.006,0.003,-0.007,-0.038,1.052,0.334,0.022,-0.619
368,-0.003,-0.029,-0.116,-0.061,0.001,1.023,0.334,0.003,-0.603
369,-0.002,-0.027,-0.125,-0.031,-0.006,1.011,0.355,-0.004,-0.601
370,-0.005,-0.013,-0.049,0.014,-0.055,0.998,0.33,0.003,-0.606
371,-0.025,0.009,0.0,0.01,-0.069,1.016,0.366,0.0,-0.604
372,-0.015,0.001,0.013,-0.023,-0.023,1.0,0.351,0.001,-0.61
373,-0.028,-0.002,0.015,-0.01,0.005,0.991,0.358,0.004,-0.58
374,-0.025,0.007,0.02,0.002,0.005,1.019,0.342,0.013,-0.594
375,-0.018,0.004,0.003,-0.017,-0.037,1.04,0.34,0.009,-0.601
376,-0.041,0.006,0.018,-0.017,-0.037,1.04,0.346,0.01,-0.612
377,-0.033,0.002,0.095,0.017,-0.048,0.983,0.354,0.01,-0.604
378,0.08,-0.142,-0.298,0.023,-0.055,0.973,0.339,0.009,-0.576
379,0.132,-0.044,-0.311,0.151,0.0,0.911,0.339,0.009,-0.576
380,-0.037,0.012,-0.153,0.109,0.074,0.913,0.342,-0.006,-0.595
381,-0.051,0.002,-0.037,-0.05,0.061,0.991,0.345,0.016,-0.585
382,-0.02,-0.018,0.001,0.0,0.029,0.983,0.351,0.007,-0.603
383,-0.013,-0.014,-0.004,0.02,0.013,0.997,0.343,0.019,-0.601
384,-0.007,-0.013,0.004,0.014,0.01,1.002,0.355,0.012,-0.588
385,-0.001,-0.021,0.02,0.007,0.014,0.999,0.346,0.009,-0.598
386,0.003,-0.056,0.034,0.005,0.017,1.0,0.352,0.013,-0.582
387,0.001,-0.088,0.154,0.002,0.016,1.005,0.345,0.024,-0.588
388,-0.003,-0.02,0.282,-0.002,0.007,1.012,0.345,-0.003,-0.583
389,0.001,0.002,0.173,0.002,0.007,0.948,0.357,0.01,-0.601
390,0.009,0.03,0.154,0.012,0.024,0.946,0.358,0.027,-0.592
391,-0.001,0.113,0.241,0.029,0.03,1.002,0.349,0.019,-0.592
392,-0.005,0.231,0.407,0.017,-0.007,0.997,0.349,0.022,-0.583
393,0.015,0.207,0.494,0.005,-0.048,0.993,0.36,0.027,-0.606
394,0.004,0.197,0.392,0.003,-0.005,0.993,0.36,0.027,-0.606
395,-0.259,0.474,0.21,0.006,0.036,0.987,0.328,0.021,-0.597
396,-0.179,0.308,0.235,0.08,0.057,1.001,0.328,0.021,-0.597
397,-0.07,0.183,0.03,0.021,0.084,0.993,0.345,0.015,-0.592
398,0.084,0.163,0.011,-0.064,0.025,1.01,0.351,0.031,-0.598
399,-0.123,0.143,-0.165,-0.043,0.024,1.06,0.364,0.031,-0.61
400,-0.148,0.123,-0.2,-0.047,0.124,0.993,0.369,0.036,-0.627
401,-0.093,-0.071,-0.088,-0.061,0.101,0.962,0.352,0.043,-0.591
402,-0.114,-0.121,-0.111,-0.098,0.034,1.018,0.367,0.049,-0.604
403,-0.104,-0.059,-0.127,-0.096,0.03,1.021,0.36,0.04,-0.597
404,-0.205,-0.119,0.03,-0.056,0.049,1.012,0.351,0.04,-0.609
405,-0.279,-0.188,0.145,-0.022,0.073,1.013,0.369,0.033,-0.6
406,-0.176,-0.205,0.125,-0.026,0.074,0.984,0.354,0.052,-0.618
407,-0.121,-0.242,0.087,-0.06,0.04,0.967,0.333,0.03,-0.603
408,0.026,-0.21,0.093,-0.055,0.023,0.99,0.355,0.051,-0.6
409,0.188,-0.105,0.053,-0.022,0.067,0.955,0.342,0.055,-0.594
410,0.359,-0.108,0.071,-0.01,0.07,0.981,0.346,0.054,-0.583
411,0.182,-0.065,0.193,-0.01,0.07,0.981,0.337,0.049,-0.603
412,0.057,-0.093,0.116,0.036,0.009,1.038,0.342,0.045,-0.591
413,-0.007,-0.088,0.107,0.045,0.001,1.045,0.315,0.055,-0.594
414,0.011,-0.053,0.13,-0.003,0.062,0.987,0.315,0.055,-0.594
415,0.093,0.001,0.022,-0.002,0.087,0.966,0.327,0.051,-0.562
416,0.126,0.083,-0.155,-0.011,0.032,0.98,0.34,0.048,-0.588
417,0.056,0.033,-0.074,-0.041,-0.033,1.013,0.334,0.057,-0.582
418,0.053,0.023,0.018,-0.013,-0.018,1.037,0.346,0.057,-0.553
419,0.038,0.051,-0.015,-0.001,0.017,0.992,0.336,0.061,-0.585
420,-0.067,-0.069,-0.008,-0.03,0.015,0.984,0.339,0.04,-0.589
421,-0.043,-0.067,0.122,-0.021,0.006,0.998,0.343,0.042,-0.573
422,-0.012,-0.069,0.149,-0.003,0.036,0.958,0.313,0.054,-0.583
423,0.015,-0.055,0.129,0.014,0.039,0.987,0.33,0.058,-0.559
424,0.022,0.142,0.06,0.023,0.015,1.047,0.34,0.054,-0.574
425,-0.015,0.341,-0.077,-0.036,0.039,1.062,0.348,0.058,-0.577
426,-0.035,0.105,-0.066,-0.093,0.061,1.037,0.33,0.061,-0.582
427,-0.014,-0.007,-0.028,-0.061,0.055,1.016,0.334,0.037,-0.571
428,0.002,-0.006,-0.016,-0.016,0.035,1.0,0.331,0.052,-0.568
429,0.005,0.004,-0.014,-0.016,0.035,1.0,0.331,0.057,-0.574
430,0.002,0.005,-0.011,-0.018,0.034,1.0,0.345,0.061,-0.573
431,0.0,-0.007,-0.013,-0.019,0.038,1.001,0.345,0.061,-0.573
432,0.003,-0.021,-0.015,-0.024,0.039,1.0,0.357,0.052,-0.588
433,0.011,-0.037,-0.029,-0.025,0.038,0.999,0.328,0.06,-0.58
434,0.006,-0.028,-0.058,-0.025,0.036,1.0,0.334,0.04,-0.591
435,0.014,-0.027,-0.083,-0.024,0.036,1.0,0.337,0.043,-0.586
436,0.009,-0.024,-0.131,-0.014,0.041,0.995,0.349,0.064,-0.592
437,0.013,-0.042,-0.128,-0.014,0.044,0.995,0.327,0.048,-0.582
438,0.016,-0.023,-0.126,-0.012,0.037,1.003,0.334,0.057,-0.571
439,0.023,-0.009,-0.121,-0.006,0.034,1.006,0.339,0.049,-0.582
440,0.023,0.0,-0.124,-0.007,0.032,1.001,0.337,0.054,-0.58
441,0.013,0.025,-0.266,-0.012,0.027,0.996,0.331,0.057,-0.583
442,0.005,0.021,-0.233,-0.011,0.028,0.99,0.349,0.049,-0.568
443,0.009,-0.004,-0.183,-0.011,0.031,0.995,0.349,0.049,-0.568
444,-0.002,0.035,-0.183,-0.004,0.019,1.012,0.339,0.031,-0.577
445,-0.007,0.026,-0.104,0.0,0.03,1.017,0.339,0.054,-0.589
446,0.004,0.005,-0.044,-0.003,0.038,0.999,0.33,0.048,-0.564
447,0.0,-0.007,-0.017,-0.003,0.038,0.999,0.349,0.036,-0.571
448,-0.029,0.021,-0.039,-0.003,0.022,0.995,0.34,0.037,-0.589
449,-0.032,0.011,-0.018,-0.008,0.021,1.004,0.346,0.045,-0.573
450,-0.013,-0.001,-0.004,-0.015,0.031,1.018,0.337,0.036,-0.579
451,-0.012,0.006,-0.006,-0.018,0.038,1.007,0.361,0.036,-0.579
452,-0.015,0.004,0.002,-0.022,0.042,1.0,0.331,0.043,-0.571
453,-0.01,-0.002,0.004,-0.019,0.036,1.004,0.346,0.028,-0.576
454,-0.004,-0.001,0.005,-0.015,0.037,1.0,0.345,0.04,-0.576
455,-0.005,0.0,-0.005,-0.017,0.042,0.999,0.346,0.052,-0.583
456,-0.004,0.0,-0.004,-0.02,0.044,0.999,0.351,0.04,-0.574
457,0.0,0.0,-0.003,-0.018,0.039,0.995,0.351,0.054,-0.577
458,-0.004,-0.002,-0.005,-0.015,0.034,0.998,0.346,0.046,-0.568
459,-0.017,-0.016,-0.018,-0.013,0.037,1.002,0.348,0.027,-0.585
460,-0.049,-0.117,0.012,-0.016,0.042,1.007,0.346,0.043,-0.598
461,-0.042,-0.052,-0.025,-0.008,0.032,1.017,0.334,0.037,-0.588
462,0.008,-0.015,0.0,0.0,0.034,1.008,0.349,0.045,-0.564
463,-0.002,0.009,-0.027,0.016,0.054,0.927,0.349,0.045,-0.564
464,-0.011,-0.006,-0.017,0.001,0.068,0.935,0.34,0.042,-0.574
465,-0.003,-0.007,-0.011,-0.017,0.058,1.001,0.343,0.039,-0.565
466,0.001,0.002,-0.015,-0.014,0.045,1.003,0.33,0.046,-0.574
467,0.0,-0.008,-0.014,-0.015,0.044,1.006,0.34,0.04,-0.564
468,0.0,0.002,-0.015,-0.009,0.043,0.999,0.34,0.03,-0.568
469,0.001,-0.006,-0.013,-0.013,0.044,0.998,0.331,0.034,-0.567
470,0.0,0.0,-0.014,-0.009,0.047,0.998,0.342,0.036,-0.57
471,0.0,-0.004,-0.014,-0.009,0.044,1.0,0.334,0.019,-0.567
472,0.001,-0.003,-0.014,-0.008,0.042,1.0,0.331,0.045,-0.576
473,0.001,-0.001,-0.014,-0.009,0.046,1.0,0.351,0.066,-0.589
474,0.001,-0.003,-0.013,-0.008,0.045,1.002,0.349,0.049,-0.574
475,0.001,0.0,-0.013,-0.007,0.042,1.0,0.333,0.046,-0.556
476,0.001,-0.002,-0.013,-0.008,0.043,1.0,0.352,0.043,-0.592
477,0.001,-0.001,-0.013,-0.01,0.044,0.999,0.357,0.052,-0.573
478,0.001,0.0,-0.014,-0.01,0.046,0.999,0.33,0.04,-0.562
479,0.002,0.0,-0.014,-0.01,0.045,0.998,0.33,0.04,-0.562
480,0.002,-0.001,-0.014,-0.012,0.046,1.0,0.352,0.045,-0.589
481,0.001,-0.002,-0.014,-0.01,0.046,0.999,0.334,0.046,-0.571
482,0.001,-0.002,-0.013,-0.01,0.046,0.999,0.349,0.045,-0.568
483,0.0,-0.002,-0.013,-0.01,0.045,0.998,0.348,0.04,-0.555
484,0.001,-0.002,-0.014,-0.012,0.044,1.0,0.352,0.058,-0.57
485,0.001,0.0,-0.014,-0.011,0.044,1.001,0.342,0.058,-0.561
486,0.001,-0.002,-0.013,-0.008,0.043,0.999,0.342,0.058,-0.561
487,0.002,-0.002,-0.014,-0.007,0.042,1.001,0.334,0.043,-0.564
488,0.002,-0.002,-0.013,-0.008,0.042,1.001,0.336,0.028,-0.567
489,0.002,-0.002,-0.013,-0.01,0.044,1.0,0.354,0.051,-0.591
490,0.0,-0.002,-0.013,-0.008,0.044,1.0,0.337,0.042,-0.57
491,0.002,-0.002,-0.014,-0.007,0.044,1.001,0.345,0.028,-0.573
492,0.001,-0.001,-0.014,-0.01,0.046,1.0,0.322,0.055,-0.58
493,0.001,-0.002,-0.014,-0.009,0.046,0.999,0.345,0.049,-0.565
494,0.001,-0.002,-0.014,-0.008,0.047,0.999,0.349,0.043,-0.579
495,0.002,-0.002,-0.014,-0.01,0.044,0.997,0.349,0.043,-0.579
496,0.002,-0.002,-0.013,-0.009,0.041,0.998,0.339,0.058,-0.574
497,0.002,-0.003,-0.014,-0.009,0.043,1.0,0.355,0.043,-0.576
498,0.002,-0.003,-0.014,-0.009,0.044,1.0,0.363,0.031,-0.57
499,0.002,-0.003,-0.014,-0.011,0.044,1.001,0.352,0.046,-0.573
500,0.002,-0.001,-0.014,-0.011,0.044,1.001,0.346,0.052,-0.562
501,0.001,-0.002,-0.014,-0.01,0.044,0.999,0.342,0.055,-0.571
502,0.001,-0.002,-0.013,-0.007,0.043,0.998,0.34,0.054,-0.583
503,0.001,-0.002,-0.013,-0.008,0.044,0.999,0.34,0.054,-0.58
504,0.001,0.0,-0.013,-0.008,0.045,1.0,0.339,0.049,-0.571
505,0.002,-0.001,-0.014,-0.007,0.046,1.001,0.346,0.046,-0.571
506,0.002,-0.002,-0.014,-0.007,0.047,0.999,0.334,0.037,-0.576
507,0.002,-0.002,-0.014,-0.007,0.047,1.0,0.342,0.036,-0.577
508,0.002,-0.003,-0.013,-0.009,0.046,1.0,0.331,0.042,-0.547
509,0.002,-0.001,-0.014,-0.009,0.045,0.999,0.357,0.031,-0.57
510,0.002,-0.002,-0.014,-0.01,0.045,0.999,0.342,0.037,-0.562
511,0.002,-0.002,-0.014,-0.008,0.047,0.999,0.334,0.046,-0.586
512,0.002,-0.002,-0.014,-0.007,0.046,1.0,0.337,0.042,-0.586
513,0.002,-0.001,-0.014,-0.007,0.043,0.999,0.351,0.042,-0.586
514,0.002,-0.002,-0.014,-0.008,0.045,1.0,0.364,0.049,-0.588
515,0.002,-0.002,-0.013,-0.009,0.044,1.0,0.328,0.043,-0.571
516,0.001,-0.001,-0.013,-0.009,0.045,1.0,0.331,0.043,-0.583
517,0.002,-0.002,-0.014,-0.008,0.046,0.999,0.331,0.043,-0.583
518,0.002,-0.003,-0.014,-0.007,0.044,0.999,0.346,0.049,-0.588
519,0.002,-0.002,-0.014,-0.009,0.045,1.0,0.357,0.058,-0.577
520,0.002,-0.002,-0.013,-0.009,0.044,1.0,0.331,0.057,-0.568
521,0.002,-0.002,-0.014,-0.008,0.043,0.999,0.349,0.036,-0.588
522,0.002,-0.002,-0.014,-0.011,0.045,0.998,0.348,0.058,-0.565
523,0.002,-0.002,-0.014,-0.01,0.047,1.0,0.355,0.048,-0.588
524,0.001,-0.002,-0.014,-0.009,0.046,1.001,0.345,0.049,-0.562
525,0.002,-0.002,-0.014,-0.011,0.045,1.001,0.333,0.06,-0.577
526,0.002,-0.003,-0.014,-0.008,0.046,1.0,0.342,0.042,-0.573
527,0.002,-0.002,-0.012,-0.008,0.044,0.999,0.346,0.042,-0.571
528,0.002,-0.002,-0.014,-0.008,0.043,0.999,0.342,0.045,-0.567
529,0.002,-0.002,-0.014,-0.008,0.043,1.0,0.345,0.045,-0.58
530,0.002,-0.003,-0.013,-0.01,0.043,1.001,0.345,0.045,-0.58
531,0.001,-0.002,-0.014,-0.009,0.045,1.001,0.34,0.049,-0.564
532,0.003,-0.002,-0.014,-0.007,0.045,1.0,0.36,0.037,-0.588
533,0.002,-0.001,-0.014,-0.009,0.043,1.002,0.346,0.043,-0.574
534,0.001,-0.002,-0.014,-0.009,0.043,1.002,0.342,0.058,-0.573
535,0.002,-0.004,-0.014,-0.009,0.043,1.002,0.352,0.043,-0.574
536,0.002,-0.001,-0.014,-0.008,0.045,1.001,0.358,0.051,-0.58
537,0.002,-0.002,-0.013,-0.01,0.044,0.999,0.34,0.042,-0.574
538,0.002,0.0,-0.014,-0.01,0.045,0.998,0.343,0.04,-0.567
539,0.002,0.0,-0.014,-0.011,0.045,1.0,0.352,0.046,-0.567
540,0.002,-0.002,-0.014,-0.01,0.043,1.0,0.339,0.054,-0.574
541,0.002,-0.002,-0.014,-0.009,0.044,0.999,0.345,0.048,-0.574
542,0.001,-0.003,-0.012,-0.008,0.044,0.999,0.345,0.048,-0.574
543,0.002,-0.002,-0.014,-0.008,0.045,0.999,0.331,0.036,-0.562
544,0.003,0.0,-0.014,-0.009,0.046,0.998,0.349,0.046,-0.58
545,0.002,-0.001,-0.013,-0.01,0.045,0.998,0.336,0.036,-0.565
546,0.002,-0.002,-0.014,-0.009,0.046,0.999,0.336,0.036,-0.565
547,0.002,-0.003,-0.014,-0.009,0.045,1.0,0.322,0.045,-0.574
548,0.002,-0.001,-0.014,-0.009,0.046,0.999,0.345,0.049,-0.561
549,0.002,-0.001,-0.014,-0.006,0.046,1.0,0.327,0.042,-0.568
550,0.002,-0.001,-0.014,-0.007,0.045,0.996,0.327,0.042,-0.568
551,0.002,-0.001,-0.014,-0.006,0.046,0.997,0.351,0.052,-0.565
552,0.002,0.0,-0.014,-0.006,0.046,0.997,0.322,0.045,-0.57
553,0.002,-0.002,-0.012,-0.006,0.045,0.998,0.322,0.045,-0.586
554,0.002,-0.002,-0.014,-0.01,0.043,0.998,0.363,0.051,-0.582
555,0.002,-0.001,-0.015,-0.01,0.045,0.999,0.331,0.04,-0.571
556,0.002,-0.002,-0.014,-0.008,0.047,0.998,0.349,0.057,-0.565
557,0.002,-0.001,-0.014,-0.009,0.047,0.999,0.334,0.049,-0.585
558,0.002,-0.002,-0.014,-0.011,0.046,1.002,0.342,0.052,-0.565
559,0.002,-0.002,-0.014,-0.008,0.045,0.999,0.328,0.052,-0.556
560,0.002,-0.002,-0.014,-0.007,0.046,0.999,0.345,0.043,-0.555
561,0.001,-0.002,-0.013,-0.01,0.046,0.999,0.351,0.046,-0.58
562,0.002,-0.002,-0.014,-0.009,0.045,0.998,0.352,0.049,-0.577
563,0.002,-0.002,-0.014,-0.008,0.043,0.999,0.336,0.054,-0.583
564,0.002,-0.002,-0.013,-0.007,0.045,1.0,0.342,0.036,-0.582
565,0.002,-0.002,-0.014,-0.007,0.047,1.0,0.339,0.069,-0.549
566,0.002,0.0,-0.014,-0.009,0.046,0.999,0.339,0.069,-0.549
567,0.002,-0.002,-0.014,-0.009,0.045,1.001,0.349,0.037,-0.582
568,0.002,-0.002,-0.014,-0.011,0.045,0.999,0.345,0.045,-0.588
569,0.002,-0.002,-0.014,-0.01,0.044,1.0,0.34,0.039,-0.573
570,0.002,-0.002,-0.014,-0.01,0.044,1.0,0.342,0.057,-0.573
571,0.002,0.0,-0.014,-0.008,0.044,1.0,0.348,0.045,-0.573
572,0.002,-0.002,-0.014,-0.009,0.045,1.001,0.346,0.052,-0.567
573,0.002,-0.002,-0.013,-0.008,0.046,0.999,0.343,0.057,-0.591
574,0.002,-0.002,-0.013,-0.008,0.047,0.997,0.336,0.045,-0.573
575,0.002,-0.002,-0.014,-0.008,0.045,0.998,0.334,0.03,-0.595
576,0.002,-0.001,-0.015,-0.006,0.044,0.999,0.331,0.049,-0.567
577,0.002,-0.002,-0.013,-0.007,0.048,0.999,0.345,0.036,-0.588
578,0.002,-0.002,-0.013,-0.008,0.047,0.999,0.354,0.064,-0.582
579,0.002,-0.004,-0.013,-0.008,0.043,0.999,0.354,0.064,-0.582
580,0.002,-0.002,-0.014,-0.01,0.045,0.999,0.339,0.049,-0.567
581,0.001,-0.002,-0.014,-0.009,0.047,1.0,0.354,0.043,-0.586
582,0.002,-0.002,-0.013,-0.009,0.046,0.999,0.325,0.046,-0.573
583,0.002,-0.001,-0.013,-0.009,0.045,1.0,0.348,0.034,-0.567
584,0.002,-0.002,-0.012,-0.009,0.045,1.0,0.346,0.037,-0.573
585,0.001,0.0,-0.013,-0.009,0.045,1.0,0.331,0.055,-0.568
586,0.002,-0.002,-0.014,-0.007,0.046,1.0,0.346,0.063,-0.562
587,0.002,-0.002,-0.014,-0.007,0.046,1.0,0.355,0.036,-0.577
588,0.002,0.0,-0.014,-0.007,0.046,1.0,0.342,0.064,-0.579
589,0.002,-0.002,-0.014,-0.01,0.045,1.001,0.346,0.039,-0.585
590,0.002,-0.002,-0.014,-0.011,0.044,1.001,0.352,0.033,-0.576
591,0.002,-0.001,-0.014,-0.011,0.043,0.999,0.349,0.033,-0.571
592,0.002,-0.002,-0.014,-0.011,0.044,0.998,0.342,0.036,-0.589
593,0.001,-0.001,-0.014,-0.01,0.045,0.998,0.354,0.055,-0.583
594,0.001,-0.002,-0.014,-0.008,0.046,0.999,0.354,0.055,-0.583
595,0.002,-0.002,-0.013,-0.009,0.046,0.999,0.351,0.069,-0.577
596,0.002,0.0,-0.014,-0.008,0.046,1.0,0.342,0.018,-0.573
597,0.002,-0.001,-0.014,-0.009,0.047,1.002,0.327,0.045,-0.571
598,0.002,-0.002,-0.014,-0.009,0.047,1.001,0.342,0.049,-0.582
599,0.002,-0.002,-0.014,-0.009,0.046,0.998,0.345,0.024,-0.573
600,0.002,-0.002,-0.014,-0.011,0.045,0.996,0.354,0.052,-0.564
601,0.002,-0.002,-0.013,-0.009,0.044,0.997,0.327,0.039,-0.577
602,0.002,-0.004,-0.013,-0.009,0.045,0.999,0.355,0.04,-0.574
603,0.001,-0.002,-0.014,-0.008,0.044,0.999,0.342,0.048,-0.576
604,0.002,-0.002,-0.013,-0.009,0.046,1.001,0.342,0.057,-0.568
605,0.002,0.0,-0.014,-0.009,0.046,1.001,0.339,0.045,-0.592
606,0.002,-0.002,-0.014,-0.01,0.045,1.0,0.334,0.031,-0.574
607,0.002,-0.001,-0.014,-0.011,0.044,0.999,0.348,0.051,-0.586
608,0.002,-0.002,-0.013,-0.011,0.045,1.001,0.348,0.051,-0.586
609,0.003,-0.002,-0.013,-0.012,0.046,1.001,0.34,0.051,-0.57
610,0.002,-0.001,-0.013,-0.01,0.046,1.0,0.348,0.031,-0.592
611,0.002,-0.001,-0.014,-0.01,0.047,0.999,0.345,0.031,-0.577
612,0.002,-0.002,-0.014,-0.01,0.046,1.001,0.343,0.048,-0.588
613,0.002,-0.002,-0.013,-0.01,0.043,1.002,0.337,0.039,-0.594
614,0.002,-0.002,-0.014,-0.009,0.044,1.0,0.334,0.049,-0.594
615,0.002,-0.002,-0.014,-0.007,0.044,1.001,0.339,0.036,-0.582
616,0.002,0.0,-0.014,-0.006,0.044,1.0,0.348,0.042,-0.571
617,0.002,-0.001,-0.014,-0.007,0.045,1.001,0.354,0.042,-0.591
618,0.002,0.0,-0.013,-0.008,0.046,1.001,0.343,0.042,-0.603
619,0.002,-0.002,-0.014,-0.009,0.045,1.001,0.345,0.037,-0.592
620,0.002,-0.002,-0.014,-0.008,0.044,1.0,0.361,0.049,-0.589
621,0.002,0.0,-0.014,-0.01,0.045,0.998,0.345,0.052,-0.571
622,0.002,-0.001,-0.014,-0.01,0.044,0.998,0.333,0.018,-0.567
623,0.002,-0.001,-0.014,-0.008,0.044,0.998,0.346,0.058,-0.579
624,0.002,-0.001,-0.013,-0.009,0.045,1.0,0.358,0.049,-0.567
625,0.002,-0.003,-0.013,-0.008,0.043,1.0,0.327,0.049,-0.564
626,0.001,-0.001,-0.014,-0.008,0.045,1.0,0.327,0.049,-0.564
627,0.002,-0.003,-0.013,-0.008,0.045,1.0,0.349,0.051,-0.582
628,0.002,-0.002,-0.014,-0.008,0.043,1.0,0.351,0.034,-0.591
629,0.001,-0.003,-0.014,-0.01,0.047,1.001,0.336,0.048,-0.552
630,0.002,-0.003,-0.014,-0.009,0.048,1.0,0.345,0.04,-0.586
631,0.001,-0.001,-0.014,-0.009,0.047,1.001,0.345,0.043,-0.567
632,0.002,-0.002,-0.014,-0.009,0.046,1.0,0.34,0.042,-0.565
633,0.001,-0.001,-0.013,-0.008,0.046,1.001,0.342,0.034,-0.574
634,0.001,-0.003,-0.014,-0.01,0.048,1.001,0.358,0.052,-0.597
635,0.001,-0.002,-0.014,-0.008,0.045,0.997,0.336,0.045,-0.583
636,0.001,-0.002,-0.014,-0.007,0.043,0.998,0.333,0.039,-0.576
637,0.001,-0.003,-0.014,-0.008,0.043,1.001,0.337,0.042,-0.571
638,0.002,-0.001,-0.014,-0.007,0.044,1.0,0.346,0.058,-0.585
639,0.002,-0.002,-0.014,-0.009,0.044,1.001,0.316,0.058,-0.568
640,0.002,-0.001,-0.014,-0.009,0.044,1.001,0.337,0.045,-0.58
641,0.002,-0.001,-0.013,-0.009,0.046,1.0,0.328,0.046,-0.58
642,0.002,-0.003,-0.014,-0.01,0.047,0.997,0.336,0.039,-0.573
643,0.002,0.0,-0.013,-0.009,0.047,0.997,0.336,0.039,-0.573
644,0.002,0.0,-0.013,-0.009,0.045,0.999,0.333,0.046,-0.58
645,0.002,0.0,-0.013,-0.006,0.044,1.001,0.331,0.049,-0.564
646,0.002,-0.002,-0.013,-0.007,0.045,1.001,0.331,0.049,-0.564
647,0.001,-0.002,-0.014,-0.006,0.047,0.997,0.345,0.046,-0.582
648,0.001,-0.001,-0.014,-0.007,0.049,0.998,0.346,0.043,-0.591
649,0.002,-0.002,-0.014,-0.009,0.046,0.999,0.36,0.046,-0.591
650,0.001,-0.002,-0.014,-0.009,0.045,0.999,0.339,0.049,-0.564
651,0.002,-0.002,-0.013,-0.01,0.046,0.999,0.343,0.051,-0.553
652,0.002,-0.002,-0.014,-0.009,0.046,1.0,0.343,0.055,-0.585
653,0.002,-0.001,-0.013,-0.009,0.043,1.001,0.327,0.034,-0.582
654,0.002,-0.002,-0.013,-0.009,0.044,0.999,0.34,0.046,-0.57
655,0.002,-0.004,-0.014,-0.008,0.044,0.999,0.336,0.042,-0.576
656,0.002,-0.002,-0.014,-0.009,0.044,0.998,0.334,0.031,-0.588
657,0.002,-0.001,-0.014,-0.007,0.047,1.0,0.334,0.031,-0.588
658,0.002,0.0,-0.014,-0.007,0.047,1.0,0.364,0.048,-0.577
659,0.002,0.0,-0.014,-0.007,0.047,1.0,0.364,0.048,-0.577
660,0.002,-0.002,-0.014,-0.006,0.046,1.0,0.349,0.042,-0.567
661,0.002,-0.001,-0.014,-0.005,0.046,0.998,0.345,0.061,-0.579
662,0.002,-0.001,-0.014,-0.006,0.046,0.997,0.346,0.048,-0.58
663,0.002,-0.002,-0.013,-0.005,0.046,0.998,0.346,0.033,-0.546
664,0.002,0.0,-0.014,-0.007,0.045,0.999,0.337,0.045,-0.585
665,0.002,-0.001,-0.014,-0.007,0.044,0.999,0.342,0.043,-0.577
666,0.002,-0.002,-0.014,-0.006,0.046,0.998,0.346,0.037,-0.585
667,0.002,-0.001,-0.015,-0.007,0.046,0.998,0.346,0.051,-0.582
668,0.002,-0.001,-0.014,-0.009,0.046,0.999,0.339,0.051,-0.579
669,0.002,0.0,-0.014,-0.009,0.047,1.001,0.345,0.051,-0.574
670,0.002,-0.004,-0.014,-0.011,0.047,1.0,0.357,0.043,-0.582
671,0.002,-0.001,-0.013,-0.011,0.045,1.0,0.339,0.049,-0.562
672,0.002,-0.002,-0.014,-0.01,0.045,1.002,0.345,0.049,-0.583
673,0.002,-0.001,-0.014,-0.01,0.048,1.001,0.34,0.057,-0.582
674,0.002,-0.002,-0.014,-0.009,0.046,0.998,0.328,0.049,-0.576
675,0.002,-0.001,-0.014,-0.009,0.046,0.998,0.331,0.043,-0.58
676,0.002,-0.001,-0.013,-0.009,0.045,0.999,0.328,0.058,-0.576
677,0.002,-0.002,-0.013,-0.011,0.045,0.999,0.328,0.058,-0.576
678,0.001,-0.002,-0.013,-0.009,0.045,1.0,0.342,0.051,-0.568
679,0.002,-0.002,-0.013,-0.01,0.045,0.998,0.343,0.049,-0.573
680,0.003,-0.001,-0.014,-0.01,0.044,0.998,0.346,0.036,-0.565
681,0.002,-0.001,-0.013,-0.009,0.042,0.999,0.336,0.039,-0.556
682,0.002,-0.002,-0.013,-0.009,0.043,1.0,0.325,0.039,-0.582
683,0.002,-0.001,-0.013,-0.01,0.045,0.999,0.343,0.051,-0.582
684,0.002,-0.002,-0.013,-0.009,0.045,0.999,0.336,0.034,-0.588
685,0.002,-0.002,-0.013,-0.006,0.046,0.999,0.348,0.046,-0.586
686,0.002,0.0,-0.013,-0.007,0.046,1.0,0.346,0.04,-0.574
687,0.002,0.0,-0.014,-0.007,0.044,1.0,0.351,0.034,-0.571
688,0.002,0.0,-0.014,-0.008,0.044,1.0,0.339,0.034,-0.585
689,0.002,-0.001,-0.013,-0.008,0.044,0.998,0.342,0.037,-0.598
690,0.002,-0.003,-0.014,-0.009,0.043,0.998,0.348,0.046,-0.586
691,0.002,0.0,-0.014,-0.008,0.045,1.001,0.337,0.057,-0.58
692,0.002,-0.003,-0.013,-0.008,0.046,1.0,0.337,0.057,-0.58
693,0.001,-0.002,-0.014,-0.008,0.046,1.0,0.324,0.054,-0.573
694,0.001,-0.001,-0.014,-0.008,0.047,1.001,0.342,0.054,-0.559
695,0.002,-0.004,-0.014,-0.01,0.048,1.0,0.324,0.043,-0.588
696,0.001,-0.002,-0.014,-0.008,0.047,0.999,0.324,0.043,-0.588
697,0.0,-0.002,-0.014,-0.007,0.046,1.001,0.348,0.048,-0.579
698,0.002,-0.001,-0.014,-0.008,0.045,1.001,0.325,0.048,-0.561
699,0.002,-0.002,-0.014,-0.008,0.045,1.0,0.333,0.034,-0.582
700,0.001,-0.002,-0.014,-0.007,0.046,0.998,0.342,0.052,-0.57
701,0.002,-0.002,-0.014,-0.008,0.046,1.0,0.358,0.031,-0.582
702,0.002,-0.002,-0.014,-0.009,0.044,1.002,0.346,0.054,-0.57
703,0.002,-0.003,-0.014,-0.006,0.043,0.998,0.325,0.033,-0.565
704,0.002,-0.002,-0.013,-0.009,0.045,0.998,0.336,0.042,-0.582
705,0.001,-0.002,-0.014,-0.009,0.047,1.0,0.352,0.042,-0.568
706,0.002,-0.002,-0.014,-0.007,0.046,0.999,0.318,0.051,-0.558
707,0.002,-0.002,-0.013,-0.008,0.046,0.999,0.349,0.045,-0.559
708,0.002,0.0,-0.013,-0.007,0.047,1.0,0.331,0.045,-0.573
709,0.001,-0.002,-0.014,-0.007,0.045,1.001,0.355,0.048,-0.582
710,0.002,-0.002,-0.014,-0.007,0.043,1.002,0.343,0.049,-0.553
711,0.002,-0.002,-0.014,-0.007,0.043,1.002,0.351,0.045,-0.58
712,0.003,-0.003,-0.014,-0.009,0.046,1.002,0.342,0.021,-0.571
713,0.002,-0.002,-0.014,-0.011,0.046,1.0,0.345,0.045,-0.556
714,0.002,-0.002,-0.014,-0.011,0.045,0.999,0.345,0.045,-0.556
715,0.002,-0.002,-0.014,-0.011,0.045,0.999,0.34,0.046,-0.586
716,0.002,-0.002,-0.014,-0.009,0.046,0.999,0.337,0.039,-0.583
717,0.002,-0.002,-0.014,-0.009,0.045,0.998,0.322,0.039,-0.571
718,0.001,-0.001,-0.014,-0.01,0.044,0.997,0.33,0.037,-0.576
719,0.001,-0.002,-0.014,-0.01,0.045,0.999,0.345,0.045,-0.582
720,0.002,-0.002,-0.013,-0.009,0.047,0.999,0.331,0.04,-0.58
721,0.002,-0.002,-0.013,-0.008,0.048,0.999,0.354,0.039,-0.58
722,0.002,-0.001,-0.013,-0.009,0.049,0.998,0.337,0.049,-0.567
723,0.002,-0.001,-0.014,-0.009,0.047,0.999,0.342,0.049,-0.58
724,0.002,-0.002,-0.014,-0.008,0.045,0.999,0.346,0.045,-0.577
725,0.002,-0.002,-0.014,-0.008,0.044,0.999,0.351,0.048,-0.571
726,0.002,-0.001,-0.014,-0.01,0.045,1.0,0.334,0.043,-0.57
727,0.002,-0.001,-0.014,-0.01,0.044,0.999,0.331,0.043,-0.564
728,0.001,0.0,-0.013,-0.01,0.044,0.999,0.336,0.049,-0.598
729,0.001,-0.001,-0.014,-0.01,0.047,0.998,0.342,0.045,-0.585
730,0.001,-0.002,-0.014,-0.008,0.046,0.998,0.342,0.045,-0.585
731,0.002,-0.002,-0.014,-0.007,0.045,1.001,0.352,0.036,-0.585
732,0.002,-0.002,-0.013,-0.008,0.047,1.002,0.333,0.043,-0.579
733,0.002,-0.002,-0.013,-0.01,0.045,1.0,0.34,0.042,-0.559
734,0.002,-0.001,-0.014,-0.011,0.044,1.0,0.346,0.054,-0.582
735,0.002,-0.002,-0.014,-0.01,0.045,1.0,0.348,0.034,-0.592
736,0.002,0.0,-0.014,-0.007,0.045,0.999,0.327,0.037,-0.571
737,0.002,-0.001,-0.014,-0.005,0.046,1.0,0.348,0.051,-0.574
738,0.002,-0.002,-0.014,-0.008,0.046,0.999,0.355,0.03,-0.564
739,0.002,-0.002,-0.013,-0.01,0.046,0.999,0.324,0.04,-0.585
740,0.002,-0.004,-0.013,-0.01,0.045,1.001,0.349,0.048,-0.571
741,0.002,-0.001,-0.014,-0.01,0.045,1.0,0.351,0.055,-0.598
742,0.002,-0.001,-0.014,-0.012,0.046,0.999,0.348,0.045,-0.57
743,0.002,-0.001,-0.014,-0.011,0.046,1.0,0.348,0.036,-0.57
744,0.001,-0.002,-0.014,-0.011,0.046,1.0,0.348,0.036,-0.57
745,0.002,-0.002,-0.014,-0.008,0.046,1.001,0.349,0.045,-0.586
746,0.002,-0.003,-0.014,-0.008,0.046,1.001,0.351,0.034,-0.589
747,0.002,-0.002,-0.014,-0.008,0.045,1.0,0.333,0.054,-0.573
748,0.002,-0.003,-0.014,-0.008,0.047,0.999,0.348,0.04,-0.571
