,Gyroscope X (deg/s),Gyroscope Y (deg/s),Gyroscope Z (deg/s),Accelerometer X (g),Accelerometer Y (g),Accelerometer Z (g),Magnetometer X (G),Magnetometer Y (G),Magnetometer Z (G)
0,0.0,-0.002,0.0,0.0,0.0,0.0,0.219,-0.223,0.12
1,0.0,-0.002,0.0,0.0,0.0,0.0,0.219,-0.223,0.12
2,0.0,-0.002,0.0,0.0,0.0,0.0,0.219,-0.223,0.12
3,0.0,-0.002,0.0,0.0,0.0,0.0,0.217,-0.216,0.136
4,0.0,-0.001,0.0,0.0,0.0,0.0,0.211,-0.222,0.13
5,0.0,-0.002,-0.001,0.0,0.0,0.0,0.216,-0.219,0.129
6,0.0,-0.001,-0.001,0.0,0.0,0.0,0.214,-0.229,0.139
7,0.0,-0.001,-0.001,0.0,0.0,0.0,0.208,-0.226,0.132
8,0.0,-0.001,0.0,0.0,0.0,0.0,0.217,-0.229,0.121
9,0.0,-0.001,0.0,0.0,0.0,0.0,0.21,-0.217,0.121
10,0.0,-0.001,-0.001,0.0,0.0,0.0,0.223,-0.228,0.135
11,0.0,-0.002,0.0,0.0,0.0,0.0,0.213,-0.216,0.126
12,0.0,-0.001,0.0,0.0,0.0,0.0,0.225,-0.225,0.132
13,0.0,-0.002,0.0,0.0,0.0,0.0,0.223,-0.225,0.132
14,0.0,-0.002,0.0,0.0,0.0,0.0,0.22,-0.228,0.129
15,0.0,-0.001,0.0,0.0,0.0,0.0,0.222,-0.219,0.123
16,0.0,-0.001,-0.001,0.0,0.0,0.0,0.213,-0.226,0.126
17,0.0,-0.001,-0.001,0.0,0.0,0.0,0.213,-0.223,0.133
18,0.0,-0.002,-0.001,0.0,0.0,0.0,0.216,-0.22,0.132
19,0.0,-0.002,0.0,0.0,0.0,0.0,0.216,-0.225,0.13
20,0.0,-0.001,0.0,0.0,0.0,0.0,0.222,-0.216,0.133
21,0.0,-0.001,-0.001,0.0,0.0,0.0,0.223,-0.238,0.118
22,0.0,-0.002,-0.001,0.0,0.0,0.0,0.217,-0.22,0.127
23,0.0,-0.001,-0.001,0.0,0.0,0.0,0.223,-0.213,0.135
24,0.0,-0.002,0.0,0.0,0.0,0.0,0.216,-0.225,0.133
25,0.0,-0.002,-0.001,0.0,0.0,0.0,0.216,-0.228,0.136
26,0.0,-0.001,-0.001,0.0,0.0,0.0,0.216,-0.223,0.133
27,0.0,-0.001,-0.001,0.0,0.0,0.0,0.217,-0.225,0.132
28,0.0,-0.002,-0.001,0.0,0.0,0.0,0.22,-0.22,0.129
29,0.0,-0.002,0.0,0.0,0.0,0.0,0.22,-0.228,0.13
30,0.0,-0.002,0.0,0.0,0.0,0.0,0.217,-0.228,0.121
31,0.0,-0.002,0.0,0.0,0.0,0.0,0.21,-0.222,0.133
32,0.0,-0.001,0.0,0.0,0.0,0.0,0.219,-0.226,0.133
33,0.0,-0.001,0.0,0.0,0.0,0.0,0.229,-0.223,0.129
34,0.0,-0.001,0.0,0.0,0.0,0.0,0.217,-0.223,0.135
35,0.0,-0.001,-0.001,0.0,0.0,0.0,0.219,-0.222,0.138
36,0.0,-0.002,0.0,0.0,0.0,0.0,0.217,-0.223,0.132
37,0.0,-0.001,-0.001,0.0,0.0,0.0,0.214,-0.211,0.135
38,0.0,-0.001,-0.001,0.0,0.0,0.0,0.217,-0.219,0.136
39,0.0,-0.002,0.0,0.0,0.0,0.0,0.214,-0.22,0.126
40,0.0,-0.001,0.0,0.0,0.0,0.0,0.214,-0.223,0.135
41,0.0,-0.001,0.0,0.0,0.0,0.0,0.217,-0.216,0.124
42,0.0,-0.001,0.0,0.0,0.0,0.0,0.219,-0.225,0.121
43,0.0,-0.002,-0.001,0.0,0.0,0.0,0.22,-0.231,0.124
44,0.0,-0.001,-0.001,0.0,0.0,0.0,0.213,-0.223,0.139
45,0.0,-0.002,0.0,0.0,0.0,0.0,0.217,-0.225,0.13
46,0.0,-0.002,-0.001,0.0,0.0,0.0,0.216,-0.22,0.121
47,0.0,-0.001,-0.001,0.0,0.0,0.0,0.219,-0.225,0.127
48,0.0,-0.002,-0.001,0.0,0.0,0.0,0.213,-0.228,0.129
49,0.0,-0.002,-0.001,0.0,0.0,0.0,0.216,-0.226,0.124
50,0.0,-0.002,0.0,0.0,0.0,0.0,0.213,-0.223,0.132
51,0.0,-0.002,0.0,0.0,0.0,0.0,0.21,-0.222,0.117
52,0.0,-0.002,-0.001,0.0,0.0,0.0,0.229,-0.213,0.129
53,0.0,-0.001,0.0,0.0,0.0,0.0,0.214,-0.219,0.135
54,0.0,-0.001,0.0,0.0,0.0,0.0,0.223,-0.223,0.121
55,0.0,-0.002,-0.001,0.0,0.0,0.0,0.217,-0.235,0.126
56,0.0,-0.001,0.0,0.0,0.0,0.0,0.217,-0.225,0.13
57,0.0,-0.002,0.0,0.0,0.0,0.0,0.217,-0.228,0.13
58,0.0,-0.002,-0.001,0.0,0.0,0.0,0.216,-0.222,0.133
59,0.0,-0.002,-0.001,0.0,0.0,0.0,0.217,-0.219,0.13
60,0.0,-0.002,-0.001,0.0,0.0,0.0,0.217,-0.231,0.129
61,0.0,-0.001,0.0,0.0,0.0,0.0,0.223,-0.211,0.123
62,0.0,-0.002,0.0,0.0,0.0,0.0,0.213,-0.226,0.133
63,0.0,-0.002,0.0,0.0,0.0,0.0,0.207,-0.225,0.135
64,0.0,-0.002,0.0,0.0,0.0,0.0,0.216,-0.219,0.133
65,0.0,-0.001,-0.001,0.0,0.0,0.0,0.216,-0.219,0.133
66,0.0,-0.001,-0.001,0.0,0.0,0.0,0.217,-0.211,0.136
67,0.0,-0.002,0.0,0.0,0.0,0.0,0.225,-0.228,0.136
68,0.0,-0.002,0.0,0.0,0.0,0.0,0.214,-0.213,0.13
69,0.0,-0.002,-0.001,0.0,0.0,0.0,0.216,-0.229,0.129
70,0.0,-0.002,0.0,0.0,0.0,0.0,0.216,-0.228,0.133
71,0.0,-0.002,0.0,0.0,0.0,0.0,0.223,-0.216,0.127
72,0.0,-0.002,-0.001,0.0,0.0,0.0,0.214,-0.22,0.129
73,0.0,-0.002,-0.001,0.0,0.0,0.0,0.219,-0.228,0.129
74,0.0,-0.002,0.0,0.0,0.0,0.0,0.223,-0.222,0.126
75,0.0,-0.002,0.0,0.0,0.0,0.0,0.219,-0.237,0.132
76,0.0,-0.002,-0.001,0.0,0.0,0.0,0.22,-0.22,0.127
77,0.0,-0.001,0.0,0.0,0.0,0.0,0.216,-0.22,0.13
78,0.0,-0.002,0.0,0.0,0.0,0.0,0.22,-0.226,0.132
79,0.0,-0.002,0.0,0.0,0.0,0.0,0.226,-0.231,0.127
80,0.0,-0.002,0.0,0.0,0.0,0.0,0.217,-0.228,0.126
81,0.0,-0.001,0.0,0.0,0.0,0.0,0.219,-0.225,0.121
82,0.0,-0.001,0.0,0.0,0.0,0.0,0.214,-0.214,0.13
83,0.0,-0.001,0.0,0.0,0.0,0.0,0.22,-0.217,0.126
84,0.0,-0.002,0.0,0.0,0.0,0.0,0.217,-0.226,0.124
85,0.0,-0.002,0.0,0.0,0.0,0.0,0.217,-0.222,0.127
86,0.0,-0.002,-0.001,0.0,0.0,0.0,0.214,-0.226,0.126
87,0.0,-0.002,-0.001,0.0,0.0,0.0,0.21,-0.22,0.136
88,0.0,-0.001,-0.001,0.0,0.0,0.0,0.216,-0.217,0.132
89,0.0,-0.002,-0.001,0.0,0.0,0.0,0.211,-0.216,0.133
90,0.0,-0.002,0.0,0.0,0.0,0.0,0.217,-0.226,0.135
91,0.0,-0.001,0.0,0.0,0.0,0.0,0.217,-0.223,0.13
92,0.0,-0.001,-0.001,0.0,0.0,0.0,0.214,-0.22,0.136
93,0.0,-0.001,0.0,0.0,0.0,0.0,0.216,-0.226,0.132
94,0.0,-0.002,0.0,0.0,0.0,0.0,0.211,-0.222,0.127
95,0.0,-0.002,-0.001,0.0,0.0,0.0,0.214,-0.228,0.141
96,0.0,-0.001,-0.001,0.0,0.0,0.0,0.216,-0.223,0.135
97,0.0,-0.001,-0.001,0.0,0.0,0.0,0.216,-0.223,0.132
98,0.0,-0.001,0.0,0.0,0.0,0.0,0.217,-0.222,0.13
99,0.0,-0.002,0.0,0.0,0.0,0.0,0.213,-0.228,0.13
100,0.0,-0.002,-0.001,0.0,0.0,0.0,0.225,-0.219,0.129
101,0.0,-0.002,-0.001,0.0,0.0,0.0,0.219,-0.223,0.124
102,0.0,-0.002,0.0,0.0,0.0,0.0,0.213,-0.222,0.133
103,0.0,-0.002,-0.001,0.0,0.0,0.0,0.222,-0.223,0.135
104,0.0,-0.002,-0.001,0.0,0.0,0.0,0.211,-0.216,0.129
105,0.0,-0.001,-0.001,0.0,0.0,0.0,0.214,-0.217,0.132
106,0.0,-0.001,0.0,0.0,0.0,0.0,0.213,-0.223,0.135
107,0.0,-0.001,-0.001,0.0,0.0,0.0,0.211,-0.232,0.13
108,0.0,-0.001,0.0,0.0,0.0,0.0,0.207,-0.22,0.129
109,0.0,-0.001,-0.001,0.0,0.0,0.0,0.216,-0.219,0.133
110,0.0,-0.002,0.0,0.0,0.0,0.0,0.217,-0.226,0.139
111,0.0,-0.002,0.0,0.0,0.0,0.0,0.216,-0.225,0.124
112,0.0,-0.002,-0.001,0.0,0.0,0.0,0.214,-0.22,0.127
113,0.0,-0.002,0.0,0.0,0.0,0.0,0.222,-0.229,0.133
114,0.0,0.0,0.0,0.0,0.0,0.0,0.213,-0.228,0.13
115,0.0,-0.001,0.0,0.0,0.0,0.0,0.214,-0.226,0.129
116,0.0,-0.002,0.0,0.0,0.0,0.0,0.214,-0.216,0.132
117,0.0,-0.001,0.0,0.0,0.0,0.0,0.213,-0.22,0.133
118,0.0,-0.001,-0.001,0.0,0.0,0.0,0.216,-0.219,0.135
119,0.0,-0.001,0.0,0.0,0.0,0.0,0.213,-0.216,0.124
120,0.0,-0.002,-0.001,0.0,0.0,0.0,0.222,-0.222,0.126
121,0.0,-0.002,-0.001,0.0,0.0,0.0,0.207,-0.228,0.13
122,0.0,0.0,-0.001,0.0,0.0,0.0,0.216,-0.223,0.124
123,0.0,-0.002,0.0,0.0,0.0,0.0,0.217,-0.228,0.127
124,0.0,-0.002,-0.001,0.0,0.0,0.0,0.211,-0.223,0.129
125,0.0,-0.002,0.0,0.0,0.0,0.0,0.219,-0.229,0.133
126,0.0,-0.002,0.0,0.0,0.0,0.0,0.22,-0.231,0.135
127,0.0,-0.002,-0.001,0.0,0.0,0.0,0.216,-0.213,0.133
128,0.0,-0.002,0.0,0.0,0.0,0.0,0.217,-0.216,0.129
129,0.0,-0.002,-0.001,0.0,0.0,0.0,0.217,-0.22,0.127
130,0.0,-0.001,-0.001,0.0,0.0,0.0,0.211,-0.222,0.136
131,0.0,-0.001,0.0,0.0,0.0,0.0,0.213,-0.229,0.135
132,0.0,-0.001,-0.001,0.0,0.0,0.0,0.211,-0.214,0.126
133,0.0,-0.002,0.0,0.0,0.0,0.0,0.219,-0.219,0.138
134,0.0,-0.002,0.0,0.0,0.0,0.0,0.208,-0.223,0.127
135,0.0,-0.001,-0.001,0.0,0.0,0.0,0.216,-0.223,0.133
136,0.0,-0.002,0.0,0.0,0.0,0.0,0.223,-0.225,0.13
137,0.0,-0.002,-0.001,0.0,0.0,0.0,0.213,-0.216,0.135
138,0.0,-0.002,-0.001,0.0,0.0,0.0,0.219,-0.211,0.133
139,0.0,-0.002,-0.001,0.0,0.0,0.0,0.216,-0.222,0.133
140,0.0,-0.001,0.0,0.0,0.0,0.0,0.213,-0.225,0.126
141,0.0,-0.001,-0.001,0.0,0.0,0.0,0.217,-0.228,0.136
142,0.0,-0.002,0.0,0.0,0.0,0.0,0.217,-0.229,0.127
143,0.0,-0.002,0.0,0.0,0.0,0.0,0.216,-0.216,0.138
144,0.0,-0.002,0.0,0.0,0.0,0.0,0.21,-0.217,0.124
145,0.0,-0.002,-0.001,0.0,0.0,0.0,0.21,-0.222,0.13
146,0.0,-0.001,-0.001,0.0,0.0,0.0,0.22,-0.219,0.132
147,0.0,-0.002,0.0,0.0,0.0,0.0,0.21,-0.225,0.136
148,0.0,-0.002,0.0,0.0,0.0,0.0,0.219,-0.225,0.133
149,0.0,-0.002,-0.001,0.0,0.0,0.0,0.214,-0.222,0.13
150,0.0,-0.002,-0.001,0.0,0.0,0.0,0.214,-0.222,0.13
151,0.0,-0.002,0.0,0.0,0.0,0.0,0.217,-0.217,0.127
152,0.0,-0.002,0.0,0.0,0.0,0.0,0.22,-0.226,0.127
153,0.0,-0.002,-0.001,0.0,0.0,0.0,0.21,-0.222,0.13
154,0.0,-0.001,0.0,0.0,0.0,0.0,0.216,-0.225,0.121
155,0.0,-0.001,0.0,0.0,0.0,0.0,0.217,-0.222,0.127
156,0.0,-0.002,0.0,0.0,0.0,0.0,0.216,-0.217,0.135
157,0.0,-0.001,-0.001,0.0,0.0,0.0,0.219,-0.22,0.124
158,0.0,-0.002,0.0,0.0,0.0,0.0,0.217,-0.225,0.132
159,0.0,-0.002,0.0,0.0,0.0,0.0,0.216,-0.22,0.133
160,0.0,-0.002,0.0,0.0,0.0,0.0,0.216,-0.223,0.135
161,0.0,-0.002,-0.001,0.0,0.0,0.0,0.222,-0.213,0.132
162,0.0,-0.002,0.0,0.0,0.0,0.0,0.216,-0.225,0.133
163,0.0,-0.002,0.0,0.0,0.0,0.0,0.214,-0.217,0.124
164,0.0,-0.001,0.0,0.0,0.0,0.0,0.214,-0.225,0.132
165,0.0,-0.002,0.0,0.0,0.0,0.0,0.21,-0.228,0.121
166,0.0,-0.002,-0.001,0.0,0.0,0.0,0.22,-0.22,0.126
167,0.0,-0.002,0.0,0.0,0.0,0.0,0.214,-0.223,0.135
168,0.0,-0.002,-0.001,0.0,0.0,0.0,0.226,-0.226,0.13
169,0.0,-0.001,0.0,0.0,0.0,0.0,0.216,-0.222,0.123
170,0.0,-0.001,0.0,0.0,0.0,0.0,0.225,-0.223,0.127
171,0.0,-0.002,0.0,0.0,0.0,0.0,0.205,-0.222,0.127
172,0.0,-0.001,0.0,0.0,0.0,0.0,0.213,-0.22,0.13
173,0.0,-0.001,-0.001,0.0,0.0,0.0,0.21,-0.222,0.129
174,0.0,-0.002,0.0,0.0,0.0,0.0,0.22,-0.22,0.133
175,0.0,-0.001,0.0,0.0,0.0,0.0,0.213,-0.225,0.121
176,0.0,-0.002,0.0,0.0,0.0,0.0,0.213,-0.225,0.121
177,0.0,-0.002,0.0,0.0,0.0,0.0,0.222,-0.22,0.127
178,0.0,-0.001,0.0,0.0,0.0,0.0,0.214,-0.22,0.129
179,0.0,-0.002,0.0,0.0,0.0,0.0,0.219,-0.22,0.117
180,0.0,-0.001,0.0,0.0,0.0,0.0,0.21,-0.226,0.13
181,0.0,-0.002,-0.001,0.0,0.0,0.0,0.216,-0.226,0.145
182,0.0,-0.002,0.0,0.0,0.0,0.0,0.208,-0.226,0.124
183,0.0,-0.002,0.0,0.0,0.0,0.0,0.214,-0.223,0.124
184,0.0,-0.002,0.0,0.0,0.0,0.0,0.22,-0.217,0.135
185,0.0,-0.002,0.0,0.0,0.0,0.0,0.21,-0.219,0.139
186,0.0,-0.002,0.0,0.0,0.0,0.0,0.208,-0.226,0.124
187,0.0,-0.002,0.0,0.0,0.0,0.0,0.208,-0.226,0.124
188,0.0,-0.002,-0.001,0.0,0.0,0.0,0.216,-0.229,0.135
189,0.0,-0.001,-0.001,0.0,0.0,0.0,0.214,-0.216,0.141
190,0.0,-0.002,0.0,0.0,0.0,0.0,0.214,-0.216,0.141
191,0.0,-0.001,0.0,0.0,0.0,0.0,0.213,-0.225,0.121
192,0.0,-0.001,-0.001,0.0,0.0,0.0,0.214,-0.217,0.129
193,0.0,-0.002,0.0,0.0,0.0,0.0,0.214,-0.217,0.129
194,0.0,-0.002,0.0,0.0,0.0,0.0,0.219,-0.217,0.124
195,0.0,-0.001,0.0,0.0,0.0,0.0,0.21,-0.219,0.138
196,0.0,-0.001,0.0,0.0,0.0,0.0,0.211,-0.223,0.13
197,0.0,-0.001,0.0,0.0,0.0,0.0,0.211,-0.223,0.13
198,0.0,-0.001,0.0,0.0,0.0,0.0,0.213,-0.219,0.124
199,0.0,-0.001,-0.001,0.0,0.0,0.0,0.214,-0.22,0.129
200,0.0,-0.002,0.0,0.0,0.0,0.0,0.22,-0.216,0.121
201,0.0,-0.002,0.0,0.0,0.0,0.0,0.211,-0.219,0.135
202,0.0,-0.002,0.0,0.0,0.0,0.0,0.211,-0.219,0.135
203,0.0,-0.001,0.0,0.0,0.0,0.0,0.213,-0.22,0.127
204,0.0,-0.002,0.0,0.0,0.0,0.0,0.202,-0.216,0.132
205,0.0,-0.001,0.0,0.0,0.0,0.0,0.217,-0.217,0.13
206,0.0,-0.001,0.0,0.0,0.0,0.0,0.217,-0.217,0.13
207,0.0,-0.001,-0.001,0.0,0.0,0.0,0.216,-0.222,0.124
208,0.0,-0.002,0.0,0.0,0.0,0.0,0.217,-0.237,0.126
209,0.0,-0.002,-0.001,0.0,0.0,0.0,0.213,-0.222,0.127
210,0.0,-0.001,0.0,0.0,0.0,0.0,0.216,-0.222,0.127
211,0.0,-0.002,0.0,0.0,0.0,0.0,0.214,-0.22,0.13
212,0.0,-0.001,0.0,0.0,0.0,0.0,0.205,-0.22,0.132
213,0.0,-0.001,0.0,0.0,0.0,0.0,0.205,-0.22,0.132
214,0.0,-0.002,-0.001,0.0,0.0,0.0,0.205,-0.228,0.132
215,0.0,-0.002,-0.001,0.0,0.0,0.0,0.208,-0.225,0.13
216,0.0,-0.001,-0.001,0.0,0.0,0.0,0.214,-0.216,0.13
217,0.0,-0.001,0.0,0.0,0.0,0.0,0.213,-0.21,0.127
218,0.0,-0.001,0.0,0.0,0.0,0.0,0.213,-0.222,0.12
219,0.0,-0.002,-0.001,0.0,0.0,0.0,0.21,-0.22,0.127
220,0.0,-0.002,-0.001,0.0,0.0,0.0,0.219,-0.219,0.127
221,0.0,-0.002,0.0,0.0,0.0,0.0,0.223,-0.219,0.126
222,0.0,-0.002,0.0,0.0,0.0,0.0,0.211,-0.222,0.124
223,0.0,-0.001,0.0,0.0,0.0,0.0,0.214,-0.222,0.136
224,0.0,-0.001,-0.001,0.0,0.0,0.0,0.207,-0.225,0.127
225,0.0,-0.001,0.0,0.0,0.0,0.0,0.222,-0.225,0.13
226,0.0,-0.001,0.0,0.0,0.0,0.0,0.211,-0.22,0.139
227,0.0,-0.002,0.0,0.0,0.0,0.0,0.214,-0.217,0.132
228,0.0,-0.001,0.0,0.0,0.0,0.0,0.219,-0.219,0.126
229,0.0,-0.002,0.0,0.0,0.0,0.0,0.217,-0.228,0.124
230,0.0,-0.002,0.0,0.0,0.0,0.0,0.214,-0.231,0.13
231,0.0,-0.002,0.0,0.0,0.0,0.0,0.213,-0.22,0.127
232,0.0,-0.001,0.0,0.0,0.0,0.0,0.211,-0.216,0.139
233,0.0,-0.002,0.0,0.0,0.0,0.0,0.219,-0.225,0.127
234,0.0,-0.001,0.0,0.0,0.0,0.0,0.21,-0.226,0.135
235,0.0,-0.001,0.0,0.0,0.0,0.0,0.21,-0.223,0.13
236,0.0,-0.002,-0.001,0.0,0.0,0.0,0.216,-0.226,0.129
237,0.0,-0.002,0.0,0.0,0.0,0.0,0.211,-0.228,0.123
238,0.0,-0.002,0.0,0.0,0.0,0.0,0.217,-0.222,0.127
239,0.0,-0.002,0.0,0.0,0.0,0.0,0.216,-0.226,0.133
240,0.0,-0.002,0.0,0.0,0.0,0.0,0.213,-0.216,0.127
241,0.0,-0.002,0.0,0.0,0.0,0.0,0.22,-0.216,0.138
242,0.0,-0.002,0.0,0.0,0.0,0.0,0.219,-0.217,0.136
243,0.0,-0.001,0.0,0.0,0.0,0.0,0.213,-0.213,0.13
244,0.0,-0.001,-0.001,0.0,0.0,0.0,0.213,-0.234,0.121
245,0.0,-0.002,-0.001,0.0,0.0,0.0,0.211,-0.225,0.135
246,0.0,-0.001,0.0,0.0,0.0,0.0,0.216,-0.228,0.129
247,0.0,-0.002,0.0,0.0,0.0,0.0,0.213,-0.225,0.132
248,0.0,-0.002,0.0,0.0,0.0,0.0,0.213,-0.229,0.12
249,0.0,-0.002,0.0,0.0,0.0,0.0,0.208,-0.223,0.138
250,0.0,-0.002,0.0,0.0,0.0,0.0,0.216,-0.223,0.123
251,0.0,-0.002,-0.001,0.0,0.0,0.0,0.216,-0.223,0.123
252,0.0,-0.002,0.0,0.0,0.0,0.0,0.22,-0.219,0.129
253,0.0,-0.002,0.0,0.0,0.0,0.0,0.211,-0.223,0.133
254,0.0,-0.001,0.0,0.0,0.0,0.0,0.213,-0.223,0.129
255,0.0,-0.001,0.0,0.0,0.0,0.0,0.217,-0.22,0.12
256,0.0,-0.002,0.0,0.0,0.0,0.0,0.214,-0.219,0.126
257,0.0,-0.002,0.0,0.0,0.0,0.0,0.208,-0.222,0.133
258,0.0,-0.002,0.0,0.0,0.0,0.0,0.208,-0.222,0.133
259,0.0,-0.002,-0.001,0.0,0.0,0.0,0.216,-0.229,0.13
260,0.0,-0.002,-0.001,0.0,0.0,0.0,0.205,-0.211,0.133
261,0.0,-0.002,-0.001,0.0,0.0,0.0,0.205,-0.211,0.133
262,0.0,-0.002,-0.001,0.0,0.0,0.0,0.208,-0.222,0.121
263,0.0,-0.001,-0.001,0.0,0.0,0.0,0.219,-0.22,0.129
264,0.0,-0.002,0.0,0.0,0.0,0.0,0.22,-0.214,0.123
265,0.0,-0.002,0.0,0.0,0.0,0.0,0.214,-0.219,0.13
266,0.0,-0.002,-0.001,0.0,0.0,0.0,0.217,-0.22,0.129
267,0.0,-0.002,-0.001,0.0,0.0,0.0,0.217,-0.219,0.132
268,0.0,-0.001,0.0,0.0,0.0,0.0,0.211,-0.228,0.13
269,0.0,-0.002,-0.001,0.0,0.0,0.0,0.211,-0.228,0.13
270,0.0,-0.001,-0.001,0.0,0.0,0.0,0.22,-0.214,0.132
271,0.0,-0.001,0.0,0.0,0.0,0.0,0.217,-0.22,0.135
272,0.0,-0.001,0.0,0.0,0.0,0.0,0.217,-0.22,0.135
273,0.0,-0.001,-0.001,0.0,0.0,0.0,0.211,-0.22,0.123
274,0.0,-0.002,0.0,0.0,0.0,0.0,0.214,-0.22,0.133
275,0.0,-0.002,-0.001,0.0,0.0,0.0,0.213,-0.222,0.126
276,0.0,-0.002,0.0,0.0,0.0,0.0,0.219,-0.226,0.126
277,0.0,-0.002,-0.001,0.0,0.0,0.0,0.217,-0.229,0.133
278,0.0,-0.002,0.0,0.0,0.0,0.0,0.217,-0.222,0.127
279,0.0,-0.001,0.0,0.0,0.0,0.0,0.213,-0.22,0.127
280,0.0,-0.001,0.0,0.0,0.0,0.0,0.213,-0.22,0.127
281,0.0,-0.001,0.0,0.0,0.0,0.0,0.216,-0.22,0.127
282,0.0,-0.001,0.0,0.0,0.0,0.0,0.216,-0.216,0.124
283,0.0,-0.002,0.0,0.0,0.0,0.0,0.216,-0.216,0.124
284,0.0,-0.002,-0.001,0.0,0.0,0.0,0.22,-0.216,0.127
285,0.0,-0.002,0.0,0.0,0.0,0.0,0.223,-0.214,0.126
286,0.0,-0.002,0.0,0.0,0.0,0.0,0.21,-0.22,0.135
287,0.0,-0.002,0.0,0.0,0.0,0.0,0.211,-0.22,0.126
288,0.0,-0.002,0.0,0.0,0.0,0.0,0.21,-0.226,0.121
289,0.0,-0.002,0.0,0.0,0.0,0.0,0.211,-0.223,0.129
290,0.0,-0.002,-0.001,0.0,0.0,0.0,0.211,-0.216,0.127
291,0.0,-0.002,-0.001,0.0,0.0,0.0,0.22,-0.22,0.129
292,0.0,-0.002,0.0,0.0,0.0,0.0,0.219,-0.229,0.121
293,0.0,-0.002,-0.001,0.0,0.0,0.0,0.216,-0.219,0.127
294,0.0,-0.002,-0.001,0.0,0.0,0.0,0.223,-0.216,0.124
295,0.0,-0.002,0.0,0.0,0.0,0.0,0.22,-0.217,0.133
296,0.0,-0.001,0.0,0.0,0.0,0.0,0.21,-0.226,0.124
297,0.0,-0.002,-0.001,0.0,0.0,0.0,0.211,-0.223,0.126
298,0.0,-0.002,0.0,0.0,0.0,0.0,0.214,-0.223,0.133
299,0.0,-0.002,-0.001,0.0,0.0,0.0,0.22,-0.213,0.13
300,0.0,-0.001,0.0,0.0,0.0,0.0,0.216,-0.222,0.129
301,0.0,-0.002,-0.001,0.0,0.0,0.0,0.207,-0.225,0.127
302,0.0,-0.001,0.0,0.0,0.0,0.0,0.219,-0.231,0.126
303,0.0,-0.002,0.0,0.0,0.0,0.0,0.211,-0.228,0.123
304,0.0,-0.002,0.0,0.0,0.0,0.0,0.217,-0.225,0.124
305,0.0,-0.002,0.0,0.0,0.0,0.0,0.219,-0.225,0.124
306,0.0,-0.002,0.0,0.0,0.0,0.0,0.213,-0.22,0.135
307,0.0,-0.002,-0.001,0.0,0.0,0.0,0.213,-0.228,0.123
308,0.0,-0.001,-0.001,0.0,0.0,0.0,0.208,-0.216,0.126
309,0.0,-0.002,0.0,0.0,0.0,0.0,0.213,-0.222,0.124
310,0.0,-0.002,0.0,0.0,0.0,0.0,0.217,-0.228,0.133
311,0.0,-0.002,-0.001,0.0,0.0,0.0,0.217,-0.223,0.127
312,0.0,-0.001,0.0,0.0,0.0,0.0,0.208,-0.228,0.126
313,0.0,-0.002,0.0,0.0,0.0,0.0,0.216,-0.222,0.135
314,0.0,-0.001,-0.001,0.0,0.0,0.0,0.217,-0.225,0.123
315,0.0,-0.002,-0.001,0.0,0.0,0.0,0.207,-0.219,0.136
316,0.0,-0.002,-0.001,0.0,0.0,0.0,0.22,-0.225,0.126
317,0.0,-0.001,-0.001,0.0,0.0,0.0,0.214,-0.226,0.13
318,0.0,-0.002,0.0,0.0,0.0,0.0,0.223,-0.216,0.13
319,0.0,-0.001,0.0,0.0,0.0,0.0,0.219,-0.22,0.123
320,0.0,-0.001,0.0,0.0,0.0,0.0,0.207,-0.222,0.133
321,0.0,-0.002,0.0,0.0,0.0,0.0,0.217,-0.225,0.133
322,0.0,-0.001,0.0,0.0,0.0,0.0,0.211,-0.22,0.13
323,0.0,-0.001,0.0,0.0,0.0,0.0,0.214,-0.223,0.132
324,0.0,-0.001,-0.001,0.0,0.0,0.0,0.207,-0.223,0.123
325,0.0,-0.001,-0.001,0.0,0.0,0.0,0.208,-0.223,0.126
326,0.0,-0.002,0.0,0.0,0.0,0.0,0.211,-0.223,0.133
327,0.0,-0.002,0.0,0.0,0.0,0.0,0.225,-0.229,0.132
328,0.0,-0.001,-0.001,0.0,0.0,0.0,0.214,-0.216,0.124
329,0.0,-0.002,-0.001,0.0,0.0,0.0,0.22,-0.229,0.124
330,0.0,-0.001,0.0,0.0,0.0,0.0,0.207,-0.223,0.127
331,0.0,-0.002,0.0,0.0,0.0,0.0,0.213,-0.225,0.124
332,0.0,-0.001,-0.001,0.0,0.0,0.0,0.22,-0.231,0.135
333,0.0,-0.001,-0.001,0.0,0.0,0.0,0.22,-0.231,0.135
334,0.0,-0.001,0.0,0.0,0.0,0.0,0.216,-0.223,0.127
335,0.0,-0.002,-0.001,0.0,0.0,0.0,0.213,-0.223,0.126
336,0.0,-0.002,-0.001,0.0,0.0,0.0,0.213,-0.223,0.126
337,0.0,-0.001,0.0,0.0,0.0,0.0,0.213,-0.217,0.124
338,0.0,-0.002,-0.001,0.0,0.0,0.0,0.21,-0.214,0.135
339,0.0,-0.002,-0.001,0.0,0.0,0.0,0.21,-0.214,0.135
340,0.0,-0.002,-0.001,0.0,0.0,0.0,0.211,-0.22,0.127
341,0.0,-0.002,0.0,0.0,0.0,0.0,0.219,-0.226,0.123
342,0.0,-0.002,0.0,0.0,0.0,0.0,0.214,-0.228,0.129
343,0.0,-0.002,0.0,0.0,0.0,0.0,0.205,-0.222,0.126
344,0.0,-0.002,0.0,0.0,0.0,0.0,0.217,-0.225,0.129
345,0.0,-0.002,0.0,0.0,0.0,0.0,0.219,-0.222,0.132
346,0.0,-0.001,-0.001,0.0,0.0,0.0,0.207,-0.222,0.126
347,0.0,-0.002,0.0,0.0,0.0,0.0,0.217,-0.231,0.126
348,0.0,-0.002,0.0,0.0,0.0,0.0,0.211,-0.219,0.132
349,0.0,-0.001,0.0,0.0,0.0,0.0,0.211,-0.219,0.132
350,0.0,-0.001,0.0,0.0,0.0,0.0,0.211,-0.225,0.135
351,0.0,-0.002,0.0,0.0,0.0,0.0,0.219,-0.216,0.133
352,0.0,-0.002,0.0,0.0,0.0,0.0,0.226,-0.228,0.133
353,0.0,-0.002,0.0,0.0,0.0,0.0,0.216,-0.219,0.136
354,0.0,-0.002,-0.001,0.0,0.0,0.0,0.213,-0.222,0.129
355,0.0,-0.002,-0.001,0.0,0.0,0.0,0.205,-0.226,0.132
356,0.0,-0.002,-0.001,0.0,0.0,0.0,0.211,-0.225,0.135
357,0.0,-0.001,-0.001,0.0,0.0,0.0,0.219,-0.225,0.126
358,0.0,-0.001,0.0,0.0,0.0,0.0,0.219,-0.217,0.133
359,0.0,-0.001,-0.001,0.0,0.0,0.0,0.22,-0.225,0.123
360,0.0,-0.001,-0.001,0.0,0.0,0.0,0.204,-0.228,0.136
361,0.0,-0.002,0.0,0.0,0.0,0.0,0.204,-0.228,0.136
362,0.0,-0.001,-0.001,0.0,0.0,0.0,0.219,-0.219,0.127
363,0.0,-0.001,0.0,0.0,0.0,0.0,0.222,-0.229,0.127
364,0.0,-0.002,0.0,0.0,0.0,0.0,0.22,-0.226,0.126
365,0.0,-0.002,0.0,0.0,0.0,0.0,0.217,-0.217,0.127
366,0.0,-0.002,-0.001,0.0,0.0,0.0,0.216,-0.225,0.121
367,0.0,-0.002,-0.001,0.0,0.0,0.0,0.213,-0.22,0.126
368,0.0,-0.001,0.0,0.0,0.0,0.0,0.213,-0.219,0.132
369,0.0,-0.002,0.0,0.0,0.0,0.0,0.226,-0.216,0.13
370,0.0,-0.002,0.0,0.0,0.0,0.0,0.214,-0.234,0.127
371,0.0,-0.001,-0.001,0.0,0.0,0.0,0.213,-0.216,0.124
372,0.0,-0.001,0.0,0.0,0.0,0.0,0.207,-0.228,0.135
373,0.0,-0.002,0.0,0.0,0.0,0.0,0.211,-0.216,0.124
374,0.0,-0.002,-0.001,0.0,0.0,0.0,0.223,-0.231,0.127
375,0.0,-0.002,0.0,0.0,0.0,0.0,0.216,-0.223,0.129
376,0.0,-0.001,0.0,0.0,0.0,0.0,0.208,-0.22,0.13
377,0.0,-0.002,0.0,0.0,0.0,0.0,0.217,-0.225,0.127
378,0.0,-0.002,-0.001,0.0,0.0,0.0,0.217,-0.223,0.132
379,0.0,-0.002,0.0,0.0,0.0,0.0,0.208,-0.22,0.124
380,0.0,-0.001,0.0,0.0,0.0,0.0,0.21,-0.22,0.132
381,0.0,-0.002,0.0,0.0,0.0,0.0,0.217,-0.226,0.124
382,0.0,-0.002,0.0,0.0,0.0,0.0,0.211,-0.223,0.132
383,0.0,-0.002,0.0,0.0,0.0,0.0,0.211,-0.219,0.129
384,0.0,-0.002,-0.001,0.0,0.0,0.0,0.213,-0.213,0.123
385,0.0,-0.002,0.0,0.0,0.0,0.0,0.21,-0.217,0.126
386,0.0,-0.002,0.0,0.0,0.0,0.0,0.21,-0.222,0.127
387,0.0,-0.001,0.0,0.0,0.0,0.0,0.21,-0.214,0.127
388,0.0,-0.001,0.0,0.0,0.0,0.0,0.211,-0.222,0.126
389,0.0,-0.002,-0.001,0.0,0.0,0.0,0.213,-0.228,0.133
390,0.0,-0.002,0.0,0.0,0.0,0.0,0.214,-0.226,0.129
391,0.0,-0.002,0.0,0.0,0.0,0.0,0.216,-0.217,0.124
392,0.0,-0.002,-0.001,0.0,0.0,0.0,0.22,-0.216,0.132
393,0.0,-0.001,0.0,0.0,0.0,0.0,0.208,-0.217,0.127
394,0.0,-0.002,-0.001,0.0,0.0,0.0,0.214,-0.22,0.12
395,0.0,-0.002,0.0,0.0,0.0,0.0,0.214,-0.22,0.136
396,0.0,-0.002,0.0,0.0,0.0,0.0,0.216,-0.217,0.13
397,0.0,-0.002,-0.001,0.0,0.0,0.0,0.208,-0.225,0.121
398,0.0,-0.002,-0.001,0.0,0.0,0.0,0.216,-0.228,0.129
399,0.0,-0.002,0.0,0.0,0.0,0.0,0.22,-0.22,0.126
400,0.0,-0.001,0.0,0.0,0.0,0.0,0.219,-0.222,0.126
401,0.0,-0.002,-0.001,0.0,0.0,0.0,0.213,-0.22,0.133
402,0.0,-0.002,0.0,0.0,0.0,0.0,0.214,-0.219,0.13
403,0.0,-0.002,0.0,0.0,0.0,0.0,0.208,-0.226,0.126
404,0.0,-0.001,0.0,0.0,0.0,0.0,0.21,-0.217,0.135
405,0.0,-0.001,-0.001,0.0,0.0,0.0,0.217,-0.225,0.124
406,0.0,-0.001,-0.001,0.0,0.0,0.0,0.22,-0.22,0.135
407,0.0,-0.002,0.0,0.0,0.0,0.0,0.217,-0.225,0.129
408,0.0,-0.002,0.0,0.0,0.0,0.0,0.213,-0.22,0.129
409,0.0,-0.002,0.0,0.0,0.0,0.0,0.213,-0.225,0.129
410,0.0,-0.002,-0.001,0.0,0.0,0.0,0.219,-0.222,0.12
411,0.0,-0.002,0.0,0.0,0.0,0.0,0.214,-0.225,0.13
412,0.0,-0.002,0.0,0.0,0.0,0.0,0.216,-0.222,0.133
413,0.0,-0.001,-0.001,0.0,0.0,0.0,0.214,-0.225,0.129
414,0.0,-0.002,-0.001,0.0,0.0,0.0,0.213,-0.219,0.123
415,0.0,-0.002,-0.001,0.0,0.0,0.0,0.214,-0.225,0.126
416,0.0,-0.002,-0.001,0.0,0.0,0.0,0.222,-0.219,0.127
417,0.0,-0.002,-0.001,0.0,0.0,0.0,0.217,-0.22,0.129
418,0.0,-0.002,-0.001,0.0,0.0,0.0,0.217,-0.219,0.129
419,0.0,-0.002,0.0,0.0,0.0,0.0,0.217,-0.229,0.12
420,0.0,-0.001,0.0,0.0,0.0,0.0,0.217,-0.229,0.12
421,0.0,-0.002,0.0,0.0,0.0,0.0,0.211,-0.225,0.121
422,0.0,-0.002,0.0,0.0,0.0,0.0,0.208,-0.231,0.127
423,0.0,-0.002,0.0,0.0,0.0,0.0,0.211,-0.222,0.127
424,0.0,-0.001,0.0,0.0,0.0,0.0,0.219,-0.217,0.133
425,0.0,-0.002,0.0,0.0,0.0,0.0,0.214,-0.232,0.132
426,0.0,-0.002,0.0,0.0,0.0,0.0,0.214,-0.22,0.142
427,0.0,-0.002,0.0,0.0,0.0,0.0,0.214,-0.22,0.142
428,0.0,-0.002,0.0,0.0,0.0,0.0,0.216,-0.225,0.133
429,0.0,-0.002,0.0,0.0,0.0,0.0,0.219,-0.219,0.132
430,0.0,-0.001,0.0,0.0,0.0,0.0,0.214,-0.219,0.126
431,0.0,-0.001,-0.001,0.0,0.0,0.0,0.219,-0.217,0.129
432,0.0,-0.002,-0.001,0.0,0.0,0.0,0.219,-0.229,0.136
433,0.0,-0.002,-0.001,0.0,0.0,0.0,0.207,-0.225,0.129
434,0.0,-0.002,0.0,0.0,0.0,0.0,0.213,-0.229,0.127
435,0.0,-0.001,0.0,0.0,0.0,0.0,0.21,-0.229,0.132
436,0.0,-0.001,-0.001,0.0,0.0,0.0,0.216,-0.223,0.13
437,0.0,-0.001,0.0,0.0,0.0,0.0,0.214,-0.229,0.123
438,0.0,-0.002,0.0,0.0,0.0,0.0,0.216,-0.229,0.132
439,0.0,-0.002,-0.001,0.0,0.0,0.0,0.211,-0.222,0.132
440,0.0,-0.002,0.0,0.0,0.0,0.0,0.214,-0.205,0.13
441,0.0,-0.002,0.0,0.0,0.0,0.0,0.216,-0.225,0.127
442,0.0,-0.002,0.0,0.0,0.0,0.0,0.219,-0.226,0.117
443,0.0,-0.001,0.0,0.0,0.0,0.0,0.205,-0.217,0.133
444,0.0,-0.001,0.0,0.0,0.0,0.0,0.219,-0.226,0.13
445,0.0,-0.002,0.0,0.0,0.0,0.0,0.211,-0.225,0.13
446,0.0,-0.002,0.0,0.0,0.0,0.0,0.21,-0.226,0.129
447,0.0,-0.001,0.0,0.0,0.0,0.0,0.217,-0.222,0.129
448,0.0,-0.002,0.0,0.0,0.0,0.0,0.213,-0.219,0.118
449,0.0,-0.002,-0.001,0.0,0.0,0.0,0.223,-0.217,0.126
450,0.0,-0.002,0.0,0.0,0.0,0.0,0.216,-0.22,0.132
451,0.0,-0.002,0.0,0.0,0.0,0.0,0.214,-0.222,0.129
452,0.0,-0.002,0.0,0.0,0.0,0.0,0.217,-0.229,0.126
453,0.0,-0.001,-0.001,0.0,0.0,0.0,0.217,-0.22,0.117
454,0.0,-0.002,-0.001,0.0,0.0,0.0,0.222,-0.225,0.129
455,0.0,-0.002,-0.001,0.0,0.0,0.0,0.211,-0.22,0.126
456,0.0,-0.002,0.0,0.0,0.0,0.0,0.213,-0.219,0.136
457,0.0,-0.002,0.0,0.0,0.0,0.0,0.214,-0.21,0.118
458,0.0,-0.002,0.0,0.0,0.0,0.0,0.21,-0.22,0.133
459,0.0,-0.001,0.0,0.0,0.0,0.0,0.22,-0.22,0.135
460,0.0,-0.002,0.0,0.0,0.0,0.0,0.217,-0.225,0.127
461,0.0,-0.002,0.0,0.0,0.0,0.0,0.214,-0.214,0.13
462,0.0,-0.001,-0.001,0.0,0.0,0.0,0.213,-0.228,0.129
463,0.0,-0.002,0.0,0.0,0.0,0.0,0.211,-0.222,0.13
464,0.0,-0.002,0.0,0.0,0.0,0.0,0.211,-0.217,0.127
465,0.0,-0.002,0.0,0.0,0.0,0.0,0.217,-0.232,0.136
466,0.0,-0.002,0.0,0.0,0.0,0.0,0.21,-0.214,0.129
467,0.0,-0.002,-0.001,0.0,0.0,0.0,0.211,-0.223,0.129
468,0.0,-0.002,-0.001,0.0,0.0,0.0,0.21,-0.226,0.136
469,0.0,-0.002,0.0,0.0,0.0,0.0,0.214,-0.219,0.126
470,0.0,-0.002,0.0,0.0,0.0,0.0,0.211,-0.219,0.129
471,0.0,-0.002,0.0,0.0,0.0,0.0,0.216,-0.216,0.117
472,0.0,-0.002,0.0,0.0,0.0,0.0,0.222,-0.222,0.126
473,0.0,-0.002,0.0,0.0,0.0,0.0,0.214,-0.231,0.129
474,0.0,-0.001,0.0,0.0,0.0,0.0,0.216,-0.214,0.129
475,0.0,-0.002,0.0,0.0,0.0,0.0,0.22,-0.226,0.126
476,0.0,-0.002,-0.001,0.0,0.0,0.0,0.216,-0.223,0.129
477,0.0,-0.002,0.0,0.0,0.0,0.0,0.213,-0.22,0.129
478,0.0,-0.002,0.0,0.0,0.0,0.0,0.217,-0.223,0.127
479,0.0,-0.002,0.0,0.0,0.0,0.0,0.21,-0.229,0.121
480,0.0,0.0,0.0,0.0,0.0,0.0,0.214,-0.213,0.133
481,0.0,-0.001,0.0,0.0,0.0,0.0,0.222,-0.217,0.127
482,0.0,-0.001,0.0,0.0,0.0,0.0,0.216,-0.229,0.129
483,0.0,-0.002,0.0,0.0,0.0,0.0,0.214,-0.223,0.123
484,0.0,-0.002,0.0,0.0,0.0,0.0,0.211,-0.22,0.126
485,0.0,-0.002,0.0,0.0,0.0,0.0,0.21,-0.217,0.127
486,0.0,-0.001,0.0,0.0,0.0,0.0,0.213,-0.22,0.129
487,0.0,-0.001,0.0,0.0,0.0,0.0,0.216,-0.228,0.115
488,0.0,-0.001,0.0,0.0,0.0,0.0,0.207,-0.228,0.126
489,0.0,-0.002,0.0,0.0,0.0,0.0,0.214,-0.22,0.129
490,0.0,-0.002,0.0,0.0,0.0,0.0,0.214,-0.223,0.126
491,0.0,-0.002,0.0,0.0,0.0,0.0,0.205,-0.213,0.124
492,0.0,-0.002,0.0,0.0,0.0,0.0,0.214,-0.217,0.13
493,0.0,-0.002,-0.001,0.0,0.0,0.0,0.219,-0.222,0.136
494,0.0,-0.002,-0.001,0.0,0.0,0.0,0.213,-0.22,0.135
495,0.0,-0.002,-0.001,0.0,0.0,0.0,0.214,-0.22,0.126
496,0.0,-0.002,0.0,0.0,0.0,0.0,0.214,-0.219,0.124
497,0.0,-0.001,0.0,0.0,0.0,0.0,0.214,-0.213,0.129
498,0.0,-0.002,0.0,0.0,0.0,0.0,0.207,-0.223,0.127
499,0.0,-0.002,0.0,0.0,0.0,0.0,0.211,-0.222,0.12
500,0.0,-0.001,0.0,0.0,0.0,0.0,0.211,-0.222,0.12
501,0.0,-0.001,0.0,0.0,0.0,0.0,0.217,-0.223,0.126
502,0.0,-0.002,0.0,0.0,0.0,0.0,0.217,-0.228,0.132
503,0.0,-0.002,0.0,0.0,0.0,0.0,0.211,-0.223,0.126
504,0.0,-0.002,0.0,0.0,0.0,0.0,0.211,-0.214,0.132
505,0.0,-0.002,0.0,0.0,0.0,0.0,0.214,-0.213,0.126
506,0.0,-0.002,0.0,0.0,0.0,0.0,0.213,-0.214,0.132
507,0.0,-0.002,-0.001,0.0,0.0,0.0,0.211,-0.229,0.132
508,0.0,-0.002,0.0,0.0,0.0,0.0,0.211,-0.213,0.129
509,0.0,-0.001,-0.001,0.0,0.0,0.0,0.21,-0.216,0.132
510,0.0,-0.002,0.0,0.0,0.0,0.0,0.216,-0.225,0.124
511,0.0,-0.001,-0.001,0.0,0.0,0.0,0.217,-0.229,0.12
512,0.0,-0.002,-0.001,0.0,0.0,0.0,0.211,-0.228,0.126
513,0.0,-0.002,0.0,0.0,0.0,0.0,0.213,-0.231,0.124
514,0.0,-0.002,0.0,0.0,0.0,0.0,0.207,-0.22,0.13
515,0.0,-0.002,0.0,0.0,0.0,0.0,0.217,-0.225,0.126
516,0.0,-0.001,0.0,0.0,0.0,0.0,0.217,-0.217,0.124
517,0.0,-0.002,0.0,0.0,0.0,0.0,0.217,-0.213,0.135
518,0.0,-0.002,0.0,0.0,0.0,0.0,0.213,-0.214,0.121
519,0.0,-0.002,0.0,0.0,0.0,0.0,0.208,-0.214,0.124
520,0.0,-0.002,0.0,0.0,0.0,0.0,0.219,-0.222,0.13
521,0.0,-0.002,0.0,0.0,0.0,0.0,0.207,-0.22,0.13
522,0.0,-0.002,-0.001,0.0,0.0,0.0,0.219,-0.219,0.13
523,0.0,-0.001,0.0,0.0,0.0,0.0,0.211,-0.222,0.126
524,0.0,-0.002,0.0,0.0,0.0,0.0,0.213,-0.222,0.12
525,0.0,-0.001,0.0,0.0,0.0,0.0,0.207,-0.226,0.129
526,0.0,-0.002,-0.001,0.0,0.0,0.0,0.216,-0.22,0.123
527,0.0,-0.001,-0.001,0.0,0.0,0.0,0.214,-0.219,0.135
528,0.0,-0.001,-0.001,0.0,0.0,0.0,0.217,-0.228,0.133
529,0.0,-0.002,0.0,0.0,0.0,0.0,0.22,-0.225,0.127
530,0.0,-0.002,0.0,0.0,0.0,0.0,0.22,-0.219,0.13
531,0.0,-0.002,0.0,0.0,0.0,0.0,0.217,-0.228,0.126
532,0.0,-0.002,0.0,0.0,0.0,0.0,0.21,-0.217,0.129
533,0.0,-0.002,0.0,0.0,0.0,0.0,0.211,-0.22,0.132
534,0.0,-0.001,0.0,0.0,0.0,0.0,0.216,-0.22,0.133
535,0.0,-0.001,0.0,0.0,0.0,0.0,0.214,-0.226,0.124
536,0.0,-0.001,0.0,0.0,0.0,0.0,0.225,-0.223,0.126
537,0.0,-0.001,0.0,0.0,0.0,0.0,0.204,-0.216,0.13
538,0.0,-0.002,0.0,0.0,0.0,0.0,0.208,-0.226,0.123
539,0.0,-0.001,-0.001,0.0,0.0,0.0,0.205,-0.217,0.124
540,0.0,-0.001,0.0,0.0,0.0,0.0,0.22,-0.22,0.132
541,0.0,-0.002,-0.001,0.0,0.0,0.0,0.207,-0.225,0.127
542,0.0,-0.002,-0.001,0.0,0.0,0.0,0.21,-0.22,0.123
543,0.0,-0.002,0.0,0.0,0.0,0.0,0.213,-0.214,0.133
544,0.0,-0.001,0.0,0.0,0.0,0.0,0.217,-0.229,0.123
545,0.0,-0.001,0.0,0.0,0.0,0.0,0.213,-0.222,0.12
546,0.0,-0.002,0.0,0.0,0.0,0.0,0.213,-0.222,0.127
547,0.0,-0.002,-0.001,0.0,0.0,0.0,0.213,-0.222,0.123
548,0.0,-0.002,0.0,0.0,0.0,0.0,0.208,-0.213,0.136
549,0.0,-0.002,0.0,0.0,0.0,0.0,0.22,-0.217,0.127
550,0.0,-0.001,0.0,0.0,0.0,0.0,0.214,-0.226,0.127
551,0.0,-0.002,0.0,0.0,0.0,0.0,0.213,-0.219,0.135
552,0.0,-0.002,0.0,0.0,0.0,0.0,0.211,-0.223,0.133
553,0.0,-0.002,-0.001,0.0,0.0,0.0,0.214,-0.214,0.132
554,0.0,-0.001,0.0,0.0,0.0,0.0,0.223,-0.231,0.127
555,0.0,-0.001,0.0,0.0,0.0,0.0,0.216,-0.225,0.124
556,0.0,-0.002,0.0,0.0,0.0,0.0,0.213,-0.226,0.132
557,0.0,-0.002,0.0,0.0,0.0,0.0,0.21,-0.214,0.124
558,0.0,-0.001,0.0,0.0,0.0,0.0,0.22,-0.214,0.129
559,0.0,-0.002,0.0,0.0,0.0,0.0,0.216,-0.222,0.13
560,0.0,-0.001,-0.001,0.0,0.0,0.0,0.214,-0.228,0.129
561,0.0,-0.002,0.0,0.0,0.0,0.0,0.213,-0.226,0.132
562,0.0,-0.002,0.0,0.0,0.0,0.0,0.216,-0.211,0.124
563,0.0,-0.001,0.0,0.0,0.0,0.0,0.207,-0.225,0.129
564,0.0,-0.002,-0.001,0.0,0.0,0.0,0.222,-0.22,0.132
565,0.0,-0.001,0.0,0.0,0.0,0.0,0.217,-0.22,0.13
566,0.0,-0.002,-0.001,0.0,0.0,0.0,0.207,-0.214,0.133
567,0.0,-0.002,-0.001,0.0,0.0,0.0,0.22,-0.222,0.121
568,0.0,-0.002,-0.001,0.0,0.0,0.0,0.204,-0.226,0.121
569,0.0,-0.002,0.0,0.0,0.0,0.0,0.21,-0.217,0.127
570,0.0,-0.001,-0.001,0.0,0.0,0.0,0.222,-0.225,0.129
571,0.0,-0.001,-0.001,0.0,0.0,0.0,0.22,-0.229,0.133
572,0.0,-0.001,0.0,0.0,0.0,0.0,0.213,-0.222,0.127
573,0.0,0.0,0.0,0.0,0.0,0.0,0.216,-0.228,0.136
574,0.0,-0.001,0.0,0.0,0.0,0.0,0.213,-0.223,0.127
575,0.0,-0.002,0.0,0.0,0.0,0.0,0.22,-0.222,0.135
576,0.0,-0.001,-0.001,0.0,0.0,0.0,0.211,-0.223,0.13
577,0.0,-0.001,-0.001,0.0,0.0,0.0,0.217,-0.222,0.136
578,0.0,-0.002,0.0,0.0,0.0,0.0,0.21,-0.213,0.129
579,0.0,-0.002,0.0,0.0,0.0,0.0,0.216,-0.229,0.135
580,0.0,-0.002,-0.001,0.0,0.0,0.0,0.222,-0.216,0.124
581,0.0,-0.001,0.0,0.0,0.0,0.0,0.219,-0.22,0.121
582,0.0,-0.002,0.0,0.0,0.0,0.0,0.219,-0.223,0.133
583,0.0,-0.002,0.0,0.0,0.0,0.0,0.219,-0.22,0.13
584,0.0,-0.002,0.0,0.0,0.0,0.0,0.214,-0.223,0.129
585,0.0,-0.002,0.0,0.0,0.0,0.0,0.214,-0.223,0.129
586,0.0,-0.002,0.0,0.0,0.0,0.0,0.213,-0.22,0.124
587,0.0,-0.001,0.0,0.0,0.0,0.0,0.214,-0.223,0.129
588,0.0,-0.002,0.0,0.0,0.0,0.0,0.222,-0.219,0.127
589,0.0,-0.002,0.0,0.0,0.0,0.0,0.222,-0.229,0.13
590,0.0,-0.002,0.0,0.0,0.0,0.0,0.214,-0.22,0.127
591,0.0,-0.002,-0.001,0.0,0.0,0.0,0.219,-0.222,0.127
592,0.0,-0.002,0.0,0.0,0.0,0.0,0.222,-0.226,0.129
593,0.0,-0.002,0.0,0.0,0.0,0.0,0.217,-0.217,0.121
594,0.0,-0.002,0.0,0.0,0.0,0.0,0.216,-0.225,0.13
595,0.0,-0.002,-0.001,0.0,0.0,0.0,0.219,-0.217,0.127
596,0.0,-0.002,0.0,0.0,0.0,0.0,0.219,-0.231,0.132
597,0.0,-0.002,-0.001,0.0,0.0,0.0,0.228,-0.214,0.121
598,0.0,-0.002,-0.001,0.0,0.0,0.0,0.21,-0.223,0.138
599,0.0,-0.002,-0.001,0.0,0.0,0.0,0.219,-0.222,0.133
600,0.0,-0.002,-0.001,0.0,0.0,0.0,0.216,-0.225,0.126
601,0.0,-0.001,-0.001,0.0,0.0,0.0,0.217,-0.216,0.124
602,0.0,-0.002,0.0,0.0,0.0,0.0,0.214,-0.225,0.127
603,0.0,-0.002,0.0,0.0,0.0,0.0,0.219,-0.228,0.118
604,0.0,-0.002,0.0,0.0,0.0,0.0,0.21,-0.226,0.126
605,0.0,-0.002,0.0,0.0,0.0,0.0,0.222,-0.226,0.133
606,0.0,-0.001,-0.001,0.0,0.0,0.0,0.219,-0.226,0.132
607,0.0,-0.001,0.0,0.0,0.0,0.0,0.217,-0.225,0.133
608,0.0,-0.002,0.0,0.0,0.0,0.0,0.208,-0.22,0.138
609,0.0,-0.002,-0.001,0.0,0.0,0.0,0.208,-0.219,0.13
610,0.0,-0.002,0.0,0.0,0.0,0.0,0.213,-0.225,0.124
611,0.0,-0.002,-0.001,0.0,0.0,0.0,0.217,-0.22,0.123
612,0.0,-0.001,0.0,0.0,0.0,0.0,0.213,-0.219,0.129
613,0.0,-0.002,0.0,0.0,0.0,0.0,0.216,-0.225,0.135
614,0.0,-0.002,-0.001,0.0,0.0,0.0,0.222,-0.226,0.123
615,0.0,-0.001,0.0,0.0,0.0,0.0,0.219,-0.22,0.127
616,0.0,-0.001,-0.001,0.0,0.0,0.0,0.214,-0.229,0.133
617,0.0,-0.002,0.0,0.0,0.0,0.0,0.22,-0.219,0.126
618,0.0,-0.002,-0.001,0.0,0.0,0.0,0.207,-0.219,0.126
619,0.0,-0.002,-0.001,0.0,0.0,0.0,0.213,-0.217,0.141
620,0.0,-0.001,0.0,0.0,0.0,0.0,0.216,-0.228,0.136
621,0.0,-0.002,0.0,0.0,0.0,0.0,0.228,-0.22,0.132
622,0.0,-0.001,0.0,0.0,0.0,0.0,0.22,-0.223,0.124
623,0.0,-0.001,0.0,0.0,0.0,0.0,0.217,-0.226,0.13
624,0.0,-0.002,0.0,0.0,0.0,0.0,0.213,-0.223,0.129
625,0.0,-0.002,0.0,0.0,0.0,0.0,0.208,-0.22,0.13
626,0.0,-0.002,0.0,0.0,0.0,0.0,0.217,-0.222,0.129
627,0.0,-0.002,0.0,0.0,0.0,0.0,0.219,-0.219,0.133
628,0.0,-0.001,0.0,0.0,0.0,0.0,0.216,-0.22,0.124
629,0.0,-0.002,0.0,0.0,0.0,0.0,0.213,-0.223,0.13
630,0.0,-0.002,0.0,0.0,0.0,0.0,0.214,-0.229,0.126
631,0.0,-0.002,0.0,0.0,0.0,0.0,0.219,-0.223,0.126
632,0.0,-0.001,0.0,0.0,0.0,0.0,0.213,-0.219,0.129
633,0.0,-0.002,0.0,0.0,0.0,0.0,0.211,-0.22,0.132
634,0.0,-0.001,0.0,0.0,0.0,0.0,0.222,-0.226,0.126
635,0.0,-0.001,0.0,0.0,0.0,0.0,0.219,-0.216,0.123
636,0.0,-0.002,0.0,0.0,0.0,0.0,0.22,-0.223,0.132
637,0.0,-0.002,-0.001,0.0,0.0,0.0,0.22,-0.228,0.126
638,0.0,-0.002,-0.001,0.0,0.0,0.0,0.213,-0.223,0.132
639,0.0,-0.002,-0.001,0.0,0.0,0.0,0.217,-0.222,0.133
640,0.0,-0.002,0.0,0.0,0.0,0.0,0.214,-0.222,0.127
641,0.0,-0.002,0.0,0.0,0.0,0.0,0.21,-0.222,0.133
642,0.0,-0.001,-0.001,0.0,0.0,0.0,0.213,-0.223,0.136
643,0.0,-0.001,0.0,0.0,0.0,0.0,0.211,-0.225,0.129
644,0.0,-0.002,0.0,0.0,0.0,0.0,0.216,-0.226,0.127
645,0.0,-0.001,-0.001,0.0,0.0,0.0,0.21,-0.219,0.126
646,0.0,-0.002,0.0,0.0,0.0,0.0,0.225,-0.222,0.133
647,0.0,-0.001,0.0,0.0,0.0,0.0,0.214,-0.226,0.129
648,0.0,-0.001,0.0,0.0,0.0,0.0,0.216,-0.228,0.129
649,0.0,-0.002,0.0,0.0,0.0,0.0,0.213,-0.219,0.13
650,0.0,-0.002,0.0,0.0,0.0,0.0,0.22,-0.229,0.136
651,0.0,-0.002,0.0,0.0,0.0,0.0,0.217,-0.217,0.13
652,0.0,-0.001,0.0,0.0,0.0,0.0,0.213,-0.226,0.129
653,0.0,-0.001,0.0,0.0,0.0,0.0,0.217,-0.225,0.133
654,0.0,-0.001,0.0,0.0,0.0,0.0,0.222,-0.219,0.129
655,0.0,-0.002,-0.001,0.0,0.0,0.0,0.217,-0.216,0.133
656,0.0,-0.002,0.0,0.0,0.0,0.0,0.216,-0.226,0.118
657,0.0,-0.002,0.0,0.0,0.0,0.0,0.214,-0.223,0.121
658,0.0,-0.002,-0.001,0.0,0.0,0.0,0.217,-0.22,0.13
659,0.0,-0.001,-0.001,0.0,0.0,0.0,0.222,-0.217,0.139
660,0.0,-0.002,0.0,0.0,0.0,0.0,0.22,-0.222,0.129
661,0.0,-0.002,-0.001,0.0,0.0,0.0,0.217,-0.22,0.133
662,0.0,-0.001,-0.001,0.0,0.0,0.0,0.213,-0.228,0.124
663,0.0,-0.002,0.0,0.0,0.0,0.0,0.225,-0.219,0.13
664,0.0,-0.002,0.0,0.0,0.0,0.0,0.216,-0.214,0.123
665,0.0,-0.001,-0.001,0.0,0.0,0.0,0.223,-0.231,0.135
666,0.0,-0.001,-0.001,0.0,0.0,0.0,0.216,-0.222,0.127
667,0.0,-0.001,0.0,0.0,0.0,0.0,0.216,-0.232,0.126
668,0.0,-0.001,0.0,0.0,0.0,0.0,0.217,-0.222,0.121
669,0.0,-0.002,-0.001,0.0,0.0,0.0,0.217,-0.222,0.121
670,0.0,-0.002,0.0,0.0,0.0,0.0,0.214,-0.226,0.121
671,0.0,-0.001,0.0,0.0,0.0,0.0,0.214,-0.22,0.129
672,0.0,-0.002,-0.001,0.0,0.0,0.0,0.214,-0.219,0.12
673,0.0,-0.002,0.0,0.0,0.0,0.0,0.214,-0.232,0.135
674,0.0,-0.002,-0.001,0.0,0.0,0.0,0.216,-0.214,0.13
675,0.0,-0.002,0.0,0.0,0.0,0.0,0.204,-0.219,0.135
676,0.0,-0.002,0.0,0.0,0.0,0.0,0.21,-0.223,0.133
677,0.0,-0.001,0.0,0.0,0.0,0.0,0.226,-0.219,0.124
678,0.0,-0.001,-0.001,0.0,0.0,0.0,0.216,-0.226,0.127
679,0.0,-0.002,0.0,0.0,0.0,0.0,0.219,-0.237,0.132
680,0.0,-0.001,0.0,0.0,0.0,0.0,0.216,-0.229,0.136
681,0.0,-0.002,-0.001,0.0,0.0,0.0,0.21,-0.229,0.138
682,0.0,-0.001,0.0,0.0,0.0,0.0,0.211,-0.219,0.13
683,0.0,-0.002,0.0,0.0,0.0,0.0,0.208,-0.22,0.132
684,0.0,-0.001,0.0,0.0,0.0,0.0,0.216,-0.22,0.138
685,0.0,-0.002,0.0,0.0,0.0,0.0,0.213,-0.213,0.136
686,0.0,-0.002,0.0,0.0,0.0,0.0,0.217,-0.228,0.145
687,0.0,-0.002,0.0,0.0,0.0,0.0,0.205,-0.216,0.123
688,0.0,-0.002,0.0,0.0,0.0,0.0,0.222,-0.216,0.133
689,0.0,-0.002,-0.001,0.0,0.0,0.0,0.22,-0.225,0.127
690,0.0,-0.002,-0.001,0.0,0.0,0.0,0.217,-0.226,0.129
691,0.0,-0.002,0.0,0.0,0.0,0.0,0.214,-0.222,0.132
692,0.0,-0.002,0.0,0.0,0.0,0.0,0.214,-0.219,0.133
693,0.0,-0.002,-0.001,0.0,0.0,0.0,0.217,-0.22,0.123
694,0.0,-0.002,0.0,0.0,0.0,0.0,0.217,-0.223,0.13
695,0.0,-0.002,0.0,0.0,0.0,0.0,0.213,-0.228,0.132
696,0.0,-0.002,0.0,0.0,0.0,0.0,0.216,-0.226,0.135
697,0.0,-0.002,0.0,0.0,0.0,0.0,0.214,-0.226,0.13
698,0.0,-0.002,0.0,0.0,0.0,0.0,0.223,-0.217,0.135
699,0.0,-0.002,0.0,0.0,0.0,0.0,0.208,-0.214,0.135
700,0.0,-0.002,-0.001,0.0,0.0,0.0,0.213,-0.213,0.127
701,0.0,-0.002,0.0,0.0,0.0,0.0,0.208,-0.214,0.12
702,0.0,-0.001,-0.001,0.0,0.0,0.0,0.22,-0.225,0.124
703,0.0,-0.002,0.0,0.0,0.0,0.0,0.21,-0.217,0.133
704,0.0,-0.002,0.0,0.0,0.0,0.0,0.214,-0.223,0.124
705,0.0,-0.001,-0.001,0.0,0.0,0.0,0.216,-0.225,0.139
706,0.0,-0.001,-0.001,0.0,0.0,0.0,0.222,-0.228,0.148
707,0.0,-0.002,0.0,0.0,0.0,0.0,0.216,-0.226,0.126
708,0.0,-0.002,-0.001,0.0,0.0,0.0,0.216,-0.219,0.127
709,0.0,-0.002,0.0,0.0,0.0,0.0,0.211,-0.216,0.127
710,0.0,-0.002,-0.001,0.0,0.0,0.0,0.216,-0.226,0.138
711,0.0,-0.002,-0.001,0.0,0.0,0.0,0.21,-0.213,0.132
712,0.0,-0.002,0.0,0.0,0.0,0.0,0.213,-0.223,0.13
713,0.0,-0.002,0.0,0.0,0.0,0.0,0.219,-0.22,0.13
714,0.0,-0.002,0.0,0.0,0.0,0.0,0.211,-0.231,0.121
715,0.0,-0.002,-0.001,0.0,0.0,0.0,0.217,-0.214,0.123
716,0.0,-0.001,-0.001,0.0,0.0,0.0,0.201,-0.225,0.127
717,0.0,-0.001,0.0,0.0,0.0,0.0,0.216,-0.219,0.127
718,0.0,-0.001,0.0,0.0,0.0,0.0,0.214,-0.222,0.126
719,0.0,-0.002,0.0,0.0,0.0,0.0,0.216,-0.219,0.129
720,0.0,-0.001,-0.001,0.0,0.0,0.0,0.208,-0.228,0.127
721,0.0,-0.001,0.0,0.0,0.0,0.0,0.213,-0.229,0.129
722,0.0,-0.002,0.0,0.0,0.0,0.0,0.207,-0.225,0.133
723,0.0,-0.002,0.0,0.0,0.0,0.0,0.214,-0.223,0.126
724,0.0,-0.002,-0.001,0.0,0.0,0.0,0.207,-0.22,0.135
725,0.0,-0.002,-0.001,0.0,0.0,0.0,0.223,-0.213,0.127
726,0.0,-0.002,-0.001,0.0,0.0,0.0,0.217,-0.217,0.13
727,0.0,-0.001,0.0,0.0,0.0,0.0,0.22,-0.217,0.127
728,0.0,-0.002,0.0,0.0,0.0,0.0,0.207,-0.228,0.127
729,0.0,-0.002,0.0,0.0,0.0,0.0,0.219,-0.225,0.135
730,0.0,-0.002,0.0,0.0,0.0,0.0,0.213,-0.216,0.127
731,0.0,-0.002,0.0,0.0,0.0,0.0,0.214,-0.226,0.124
732,0.0,-0.002,-0.001,0.0,0.0,0.0,0.21,-0.217,0.129
733,0.0,-0.001,0.0,0.0,0.0,0.0,0.222,-0.217,0.126
734,0.0,-0.002,0.0,0.0,0.0,0.0,0.214,-0.223,0.126
735,0.0,-0.002,0.0,0.0,0.0,0.0,0.22,-0.213,0.126
736,0.0,-0.001,0.0,0.0,0.0,0.0,0.217,-0.226,0.126
737,0.0,-0.001,0.0,0.0,0.0,0.0,0.214,-0.22,0.133
738,0.0,-0.001,0.0,0.0,0.0,0.0,0.219,-0.22,0.126
739,0.0,-0.002,-0.001,0.0,0.0,0.0,0.21,-0.213,0.135
740,0.0,-0.002,-0.001,0.0,0.0,0.0,0.213,-0.217,0.127
741,0.0,-0.002,0.0,0.0,0.0,0.0,0.21,-0.216,0.126
742,0.0,-0.002,-0.001,0.0,0.0,0.0,0.21,-0.214,0.13
743,0.0,-0.002,-0.001,0.0,0.0,0.0,0.217,-0.219,0.127
744,0.0,-0.001,0.0,0.0,0.0,0.0,0.222,-0.216,0.129
745,0.0,-0.002,0.0,0.0,0.0,0.0,0.214,-0.222,0.13
746,0.0,-0.001,0.0,0.0,0.0,0.0,0.211,-0.223,0.133
747,0.0,-0.002,0.0,0.0,0.0,0.0,0.213,-0.222,0.133
748,0.0,-0.002,-0.001,0.0,0.0,0.0,0.213,-0.217,0.136
749,0.0,-0.002,0.0,0.0,0.0,0.0,0.21,-0.228,0.132
750,0.0,-0.002,0.0,0.0,0.0,0.0,0.22,-0.217,0.126
751,0.0,-0.002,0.0,0.0,0.0,0.0,0.213,-0.225,0.121
752,0.0,-0.002,0.0,0.0,0.0,0.0,0.207,-0.22,0.132
753,0.0,-0.002,-0.001,0.0,0.0,0.0,0.214,-0.22,0.129
754,0.0,-0.002,0.0,0.0,0.0,0.0,0.214,-0.22,0.129
755,0.0,-0.002,0.0,0.0,0.0,0.0,0.21,-0.231,0.138
756,0.0,-0.002,0.0,0.0,0.0,0.0,0.214,-0.217,0.133
757,0.0,-0.002,-0.001,0.0,0.0,0.0,0.214,-0.225,0.12
758,0.0,-0.002,0.0,0.0,0.0,0.0,0.216,-0.226,0.132
759,0.0,-0.001,0.0,0.0,0.0,0.0,0.223,-0.22,0.135
760,0.0,-0.002,0.0,0.0,0.0,0.0,0.213,-0.217,0.132
761,0.0,-0.002,0.0,0.0,0.0,0.0,0.213,-0.223,0.121
762,0.0,-0.002,-0.001,0.0,0.0,0.0,0.216,-0.213,0.124
763,0.0,-0.002,0.0,0.0,0.0,0.0,0.213,-0.223,0.121
764,0.0,-0.002,0.0,0.0,0.0,0.0,0.217,-0.226,0.13
765,0.0,-0.002,0.0,0.0,0.0,0.0,0.217,-0.217,0.114
766,0.0,-0.002,0.0,0.0,0.0,0.0,0.21,-0.226,0.123
767,0.0,-0.002,0.0,0.0,0.0,0.0,0.222,-0.219,0.13
768,0.0,-0.002,0.0,0.0,0.0,0.0,0.21,-0.22,0.129
769,0.0,-0.002,-0.001,0.0,0.0,0.0,0.211,-0.229,0.135
770,0.0,-0.001,0.0,0.0,0.0,0.0,0.214,-0.226,0.129
771,0.0,-0.002,0.0,0.0,0.0,0.0,0.21,-0.225,0.132
772,0.0,-0.002,0.0,0.0,0.0,0.0,0.217,-0.223,0.124
773,0.0,-0.002,0.0,0.0,0.0,0.0,0.214,-0.223,0.133
774,0.0,-0.001,0.0,0.0,0.0,0.0,0.21,-0.22,0.118
775,0.0,-0.001,0.0,0.0,0.0,0.0,0.219,-0.222,0.127
776,0.0,-0.002,-0.001,0.0,0.0,0.0,0.211,-0.228,0.133
777,0.0,-0.001,-0.001,0.0,0.0,0.0,0.21,-0.223,0.133
778,0.0,-0.001,0.0,0.0,0.0,0.0,0.211,-0.214,0.13
779,0.0,-0.002,0.0,0.0,0.0,0.0,0.211,-0.225,0.129
780,0.0,-0.002,0.0,0.0,0.0,0.0,0.207,-0.22,0.124
781,0.0,-0.002,-0.001,0.0,0.0,0.0,0.214,-0.234,0.123
782,0.0,-0.002,-0.001,0.0,0.0,0.0,0.211,-0.223,0.127
783,0.0,-0.001,0.0,0.0,0.0,0.0,0.207,-0.223,0.132
784,0.0,-0.002,-0.001,0.0,0.0,0.0,0.214,-0.225,0.129
785,0.0,-0.002,0.0,0.0,0.0,0.0,0.213,-0.228,0.127
786,0.0,-0.002,0.0,0.0,0.0,0.0,0.211,-0.226,0.129
787,0.0,-0.002,0.0,0.0,0.0,0.0,0.208,-0.225,0.136
788,0.0,-0.002,0.0,0.0,0.0,0.0,0.213,-0.222,0.129
789,0.0,-0.001,0.0,0.0,0.0,0.0,0.216,-0.229,0.124
790,0.0,-0.001,-0.001,0.0,0.0,0.0,0.214,-0.226,0.127
791,0.0,-0.002,0.0,0.0,0.0,0.0,0.214,-0.22,0.118
792,0.0,-0.002,0.0,0.0,0.0,0.0,0.214,-0.22,0.129
793,0.0,-0.002,0.0,0.0,0.0,0.0,0.214,-0.216,0.126
794,0.0,-0.002,0.0,0.0,0.0,0.0,0.219,-0.217,0.127
795,0.0,-0.002,0.0,0.0,0.0,0.0,0.207,-0.223,0.127
796,0.0,-0.001,-0.001,0.0,0.0,0.0,0.21,-0.226,0.123
797,0.0,-0.002,-0.001,0.0,0.0,0.0,0.21,-0.222,0.127
798,0.0,-0.002,0.0,0.0,0.0,0.0,0.214,-0.228,0.123
799,0.0,-0.001,0.0,0.0,0.0,0.0,0.216,-0.222,0.129
800,0.0,-0.001,0.0,0.0,0.0,0.0,0.211,-0.234,0.124
801,0.0,-0.002,0.0,0.0,0.0,0.0,0.207,-0.222,0.136
802,0.0,-0.001,0.0,0.0,0.0,0.0,0.223,-0.217,0.123
803,0.0,-0.001,-0.001,0.0,0.0,0.0,0.22,-0.223,0.126
804,0.0,-0.001,0.0,0.0,0.0,0.0,0.21,-0.225,0.129
805,0.0,-0.002,0.0,0.0,0.0,0.0,0.214,-0.214,0.127
806,0.0,-0.002,0.0,0.0,0.0,0.0,0.222,-0.225,0.126
807,0.0,-0.002,0.0,0.0,0.0,0.0,0.214,-0.226,0.127
808,0.0,-0.002,0.0,0.0,0.0,0.0,0.204,-0.223,0.136
809,0.0,-0.002,-0.001,0.0,0.0,0.0,0.222,-0.223,0.123
810,0.0,-0.002,0.0,0.0,0.0,0.0,0.21,-0.216,0.132
811,0.0,-0.001,0.0,0.0,0.0,0.0,0.22,-0.228,0.13
812,0.0,-0.001,0.0,0.0,0.0,0.0,0.219,-0.225,0.126
813,0.0,-0.002,0.0,0.0,0.0,0.0,0.207,-0.21,0.13
814,0.0,-0.001,0.0,0.0,0.0,0.0,0.22,-0.226,0.132
815,0.0,-0.002,0.0,0.0,0.0,0.0,0.205,-0.225,0.136
816,0.0,-0.002,0.0,0.0,0.0,0.0,0.211,-0.22,0.133
817,0.0,-0.002,0.0,0.0,0.0,0.0,0.213,-0.225,0.13
818,0.0,-0.002,-0.001,0.0,0.0,0.0,0.211,-0.223,0.123
819,0.0,-0.002,0.0,0.0,0.0,0.0,0.208,-0.226,0.133
820,0.0,-0.002,0.0,0.0,0.0,0.0,0.217,-0.228,0.127
821,0.0,-0.002,0.0,0.0,0.0,0.0,0.207,-0.22,0.133
822,0.0,-0.002,0.0,0.0,0.0,0.0,0.207,-0.222,0.124
823,0.0,-0.002,0.0,0.0,0.0,0.0,0.229,-0.226,0.124
824,0.0,-0.002,0.0,0.0,0.0,0.0,0.208,-0.223,0.121
825,0.0,-0.002,0.0,0.0,0.0,0.0,0.213,-0.22,0.136
826,0.0,-0.002,0.0,0.0,0.0,0.0,0.214,-0.217,0.124
827,0.0,-0.002,-0.001,0.0,0.0,0.0,0.214,-0.214,0.13
828,0.0,-0.002,0.0,0.0,0.0,0.0,0.211,-0.231,0.129
829,0.0,-0.002,-0.001,0.0,0.0,0.0,0.216,-0.214,0.133
830,0.0,-0.002,-0.001,0.0,0.0,0.0,0.217,-0.228,0.126
831,0.0,-0.002,0.0,0.0,0.0,0.0,0.225,-0.219,0.136
832,0.0,-0.002,-0.001,0.0,0.0,0.0,0.216,-0.22,0.139
833,0.0,-0.002,-0.001,0.0,0.0,0.0,0.219,-0.217,0.115
834,0.0,-0.001,-0.001,0.0,0.0,0.0,0.22,-0.223,0.138
835,0.0,-0.002,-0.001,0.0,0.0,0.0,0.217,-0.226,0.132
836,0.0,-0.001,0.0,0.0,0.0,0.0,0.217,-0.214,0.132
837,0.0,-0.002,-0.001,0.0,0.0,0.0,0.219,-0.22,0.126
838,0.0,-0.001,0.0,0.0,0.0,0.0,0.219,-0.22,0.126
839,0.0,-0.002,-0.001,0.0,0.0,0.0,0.214,-0.217,0.123
840,0.0,-0.001,-0.001,0.0,0.0,0.0,0.219,-0.228,0.121
841,0.0,-0.002,0.0,0.0,0.0,0.0,0.204,-0.22,0.124
842,0.0,-0.001,0.0,0.0,0.0,0.0,0.219,-0.231,0.127
843,0.0,-0.001,0.0,0.0,0.0,0.0,0.211,-0.222,0.129
844,0.0,-0.002,0.0,0.0,0.0,0.0,0.21,-0.226,0.118
845,0.0,-0.002,0.0,0.0,0.0,0.0,0.214,-0.219,0.129
846,0.0,-0.002,0.0,0.0,0.0,0.0,0.216,-0.22,0.127
847,0.0,-0.002,0.0,0.0,0.0,0.0,0.21,-0.222,0.13
848,0.0,-0.002,0.0,0.0,0.0,0.0,0.214,-0.217,0.127
849,0.0,-0.002,0.0,0.0,0.0,0.0,0.204,-0.22,0.127
850,0.0,-0.002,0.0,0.0,0.0,0.0,0.21,-0.214,0.124
851,0.0,-0.002,0.0,0.0,0.0,0.0,0.216,-0.219,0.127
852,0.0,-0.001,0.0,0.0,0.0,0.0,0.214,-0.219,0.127
853,0.0,-0.001,-0.001,0.0,0.0,0.0,0.208,-0.22,0.127
854,0.0,-0.002,0.0,0.0,0.0,0.0,0.22,-0.225,0.127
855,0.0,-0.002,0.0,0.0,0.0,0.0,0.214,-0.22,0.13
856,0.0,-0.002,0.0,0.0,0.0,0.0,0.222,-0.222,0.127
857,0.0,-0.002,0.0,0.0,0.0,0.0,0.211,-0.223,0.127
858,0.0,-0.002,0.0,0.0,0.0,0.0,0.214,-0.216,0.126
859,0.0,-0.002,0.0,0.0,0.0,0.0,0.207,-0.22,0.126
860,0.0,-0.002,0.0,0.0,0.0,0.0,0.222,-0.217,0.132
861,0.0,-0.002,0.0,0.0,0.0,0.0,0.226,-0.22,0.127
862,0.0,-0.002,-0.001,0.0,0.0,0.0,0.211,-0.216,0.136
863,0.0,-0.002,0.0,0.0,0.0,0.0,0.211,-0.229,0.13
864,0.0,-0.002,0.0,0.0,0.0,0.0,0.219,-0.228,0.123
865,0.0,0.0,0.0,0.0,0.0,0.0,0.211,-0.225,0.129
866,0.0,-0.001,0.0,0.0,0.0,0.0,0.21,-0.225,0.132
867,0.0,-0.002,0.0,0.0,0.0,0.0,0.208,-0.217,0.124
868,0.0,-0.002,0.0,0.0,0.0,0.0,0.216,-0.217,0.123
869,0.0,-0.002,-0.001,0.0,0.0,0.0,0.225,-0.225,0.12
870,0.0,-0.001,0.0,0.0,0.0,0.0,0.216,-0.225,0.126
871,0.0,-0.002,0.0,0.0,0.0,0.0,0.216,-0.229,0.129
872,0.0,-0.002,-0.001,0.0,0.0,0.0,0.217,-0.223,0.13
873,0.0,-0.002,0.0,0.0,0.0,0.0,0.21,-0.223,0.136
874,0.0,-0.002,0.0,0.0,0.0,0.0,0.205,-0.217,0.127
875,0.0,-0.001,0.0,0.0,0.0,0.0,0.216,-0.219,0.129
876,0.0,-0.002,0.0,0.0,0.0,0.0,0.22,-0.222,0.126
877,0.0,-0.002,-0.001,0.0,0.0,0.0,0.222,-0.228,0.124
878,0.0,-0.002,0.0,0.0,0.0,0.0,0.208,-0.22,0.132
879,0.0,-0.002,0.0,0.0,0.0,0.0,0.208,-0.219,0.129
880,0.0,-0.002,0.0,0.0,0.0,0.0,0.21,-0.226,0.124
881,0.0,-0.002,0.0,0.0,0.0,0.0,0.21,-0.232,0.13
882,0.0,-0.001,0.0,0.0,0.0,0.0,0.214,-0.223,0.129
883,0.0,-0.001,0.0,0.0,0.0,0.0,0.213,-0.222,0.133
884,0.0,-0.002,0.0,0.0,0.0,0.0,0.207,-0.22,0.135
885,0.0,-0.002,0.0,0.0,0.0,0.0,0.216,-0.234,0.135
886,0.0,-0.002,0.0,0.0,0.0,0.0,0.207,-0.219,0.123
887,0.0,-0.002,-0.001,0.0,0.0,0.0,0.214,-0.219,0.135
888,0.0,-0.002,-0.001,0.0,0.0,0.0,0.214,-0.222,0.136
889,0.0,-0.001,0.0,0.0,0.0,0.0,0.211,-0.222,0.126
890,0.0,-0.001,0.0,0.0,0.0,0.0,0.207,-0.225,0.123
891,0.0,-0.002,0.0,0.0,0.0,0.0,0.217,-0.226,0.12
892,0.0,-0.001,0.0,0.0,0.0,0.0,0.211,-0.214,0.12
893,0.0,-0.001,0.0,0.0,0.0,0.0,0.21,-0.217,0.127
894,0.0,-0.001,0.0,0.0,0.0,0.0,0.213,-0.213,0.13
895,0.0,-0.001,-0.001,0.0,0.0,0.0,0.205,-0.216,0.129
896,0.0,-0.002,0.0,0.0,0.0,0.0,0.21,-0.225,0.129
897,0.0,-0.002,0.0,0.0,0.0,0.0,0.208,-0.22,0.138
898,0.0,-0.001,0.0,0.0,0.0,0.0,0.214,-0.208,0.123
899,0.0,-0.002,-0.001,0.0,0.0,0.0,0.217,-0.225,0.141
900,0.0,-0.002,-0.001,0.0,0.0,0.0,0.216,-0.217,0.136
901,0.0,-0.002,0.0,0.0,0.0,0.0,0.216,-0.22,0.127
902,0.0,-0.002,0.0,0.0,0.0,0.0,0.214,-0.217,0.129
903,0.0,-0.001,-0.001,0.0,0.0,0.0,0.213,-0.222,0.123
904,0.0,-0.001,-0.001,0.0,0.0,0.0,0.216,-0.222,0.129
905,0.0,-0.002,0.0,0.0,0.0,0.0,0.216,-0.219,0.135
906,0.0,-0.002,0.0,0.0,0.0,0.0,0.219,-0.226,0.127
907,0.0,-0.001,0.0,0.0,0.0,0.0,0.21,-0.228,0.132
908,0.0,-0.002,0.0,0.0,0.0,0.0,0.214,-0.225,0.124
909,0.0,-0.002,0.0,0.0,0.0,0.0,0.211,-0.22,0.126
910,0.0,-0.001,0.0,0.0,0.0,0.0,0.214,-0.234,0.13
911,0.0,-0.001,0.0,0.0,0.0,0.0,0.211,-0.219,0.129
912,0.0,-0.001,0.0,0.0,0.0,0.0,0.214,-0.234,0.124
913,0.0,-0.002,0.0,0.0,0.0,0.0,0.213,-0.211,0.132
914,0.0,-0.002,0.0,0.0,0.0,0.0,0.208,-0.22,0.123
915,0.0,-0.002,0.0,0.0,0.0,0.0,0.214,-0.225,0.123
916,0.0,-0.001,0.0,0.0,0.0,0.0,0.217,-0.219,0.127
917,0.0,-0.001,0.0,0.0,0.0,0.0,0.219,-0.223,0.129
918,0.0,-0.002,0.0,0.0,0.0,0.0,0.213,-0.226,0.144
919,0.0,-0.002,-0.001,0.0,0.0,0.0,0.205,-0.229,0.127
920,0.0,-0.002,0.0,0.0,0.0,0.0,0.211,-0.235,0.13
921,0.0,-0.002,-0.001,0.0,0.0,0.0,0.217,-0.22,0.133
922,0.0,-0.002,0.0,0.0,0.0,0.0,0.211,-0.222,0.127
923,0.0,-0.002,-0.001,0.0,0.0,0.0,0.211,-0.222,0.127
924,0.0,-0.002,-0.001,0.0,0.0,0.0,0.22,-0.222,0.126
925,0.0,-0.001,0.0,0.0,0.0,0.0,0.213,-0.232,0.124
926,0.0,-0.001,0.0,0.0,0.0,0.0,0.213,-0.222,0.132
927,0.0,-0.002,0.0,0.0,0.0,0.0,0.208,-0.217,0.129
928,0.0,-0.002,0.0,0.0,0.0,0.0,0.213,-0.226,0.136
929,0.0,-0.002,0.0,0.0,0.0,0.0,0.213,-0.234,0.126
930,0.0,-0.001,-0.001,0.0,0.0,0.0,0.213,-0.219,0.129
931,0.0,-0.001,0.0,0.0,0.0,0.0,0.208,-0.223,0.135
932,0.0,-0.001,0.0,0.0,0.0,0.0,0.219,-0.223,0.123
933,0.0,-0.002,-0.001,0.0,0.0,0.0,0.211,-0.225,0.126
934,0.0,-0.002,-0.001,0.0,0.0,0.0,0.219,-0.213,0.129
935,0.0,-0.002,0.0,0.0,0.0,0.0,0.216,-0.21,0.124
936,0.0,-0.002,0.0,0.0,0.0,0.0,0.219,-0.217,0.13
937,0.0,-0.002,-0.001,0.0,0.0,0.0,0.217,-0.226,0.132
938,0.0,-0.001,-0.001,0.0,0.0,0.0,0.211,-0.226,0.132
939,0.0,-0.001,0.0,0.0,0.0,0.0,0.217,-0.22,0.129
940,0.0,-0.001,-0.001,0.0,0.0,0.0,0.21,-0.219,0.127
941,0.0,-0.002,0.0,0.0,0.0,0.0,0.213,-0.22,0.124
942,0.0,-0.002,0.0,0.0,0.0,0.0,0.211,-0.225,0.127
943,0.0,-0.001,-0.001,0.0,0.0,0.0,0.211,-0.22,0.136
944,0.0,-0.002,-0.001,0.0,0.0,0.0,0.22,-0.219,0.124
945,0.0,-0.002,-0.001,0.0,0.0,0.0,0.201,-0.219,0.133
946,0.0,-0.002,0.0,0.0,0.0,0.0,0.216,-0.228,0.124
947,0.0,-0.001,0.0,0.0,0.0,0.0,0.204,-0.211,0.132
948,0.0,-0.002,0.0,0.0,0.0,0.0,0.208,-0.229,0.133
949,0.0,-0.002,0.0,0.0,0.0,0.0,0.205,-0.22,0.126
950,0.0,-0.002,0.0,0.0,0.0,0.0,0.214,-0.223,0.121
951,0.0,-0.002,-0.001,0.0,0.0,0.0,0.216,-0.228,0.124
952,0.0,-0.002,-0.001,0.0,0.0,0.0,0.208,-0.219,0.126
953,0.0,-0.002,0.0,0.0,0.0,0.0,0.214,-0.229,0.135
954,0.0,-0.002,-0.001,0.0,0.0,0.0,0.216,-0.231,0.133
955,0.0,-0.002,0.0,0.0,0.0,0.0,0.207,-0.216,0.124
956,0.0,-0.002,-0.001,0.0,0.0,0.0,0.213,-0.226,0.129
957,0.0,-0.002,0.0,0.0,0.0,0.0,0.22,-0.223,0.132
958,0.0,-0.002,0.0,0.0,0.0,0.0,0.213,-0.223,0.132
959,0.0,-0.002,0.0,0.0,0.0,0.0,0.211,-0.222,0.13
960,0.0,-0.002,0.0,0.0,0.0,0.0,0.205,-0.229,0.132
961,0.0,-0.002,0.0,0.0,0.0,0.0,0.211,-0.217,0.139
962,0.0,-0.002,-0.001,0.0,0.0,0.0,0.204,-0.226,0.144
963,0.0,-0.002,0.0,0.0,0.0,0.0,0.208,-0.223,0.13
964,0.0,-0.002,0.0,0.0,0.0,0.0,0.216,-0.222,0.138
965,0.0,-0.002,0.0,0.0,0.0,0.0,0.202,-0.226,0.138
966,0.0,-0.002,0.0,0.0,0.0,0.0,0.213,-0.229,0.12
967,0.0,-0.002,-0.001,0.0,0.0,0.0,0.21,-0.217,0.136
968,0.0,-0.002,0.0,0.0,0.0,0.0,0.22,-0.213,0.132
969,0.0,-0.002,0.0,0.0,0.0,0.0,0.216,-0.229,0.126
970,0.0,-0.002,0.0,0.0,0.0,0.0,0.214,-0.223,0.127
971,0.0,-0.002,0.0,0.0,0.0,0.0,0.217,-0.225,0.133
972,0.0,-0.002,-0.001,0.0,0.0,0.0,0.217,-0.234,0.126
973,0.0,-0.002,-0.001,0.0,0.0,0.0,0.208,-0.226,0.123
974,0.0,-0.002,-0.001,0.0,0.0,0.0,0.21,-0.225,0.13
975,0.0,-0.002,-0.001,0.0,0.0,0.0,0.21,-0.214,0.13
976,0.0,-0.001,-0.001,0.0,0.0,0.0,0.213,-0.231,0.136
977,0.0,-0.001,0.0,0.0,0.0,0.0,0.216,-0.228,0.132
978,0.0,-0.001,-0.001,0.0,0.0,0.0,0.216,-0.22,0.124
979,0.0,-0.002,0.0,0.0,0.0,0.0,0.204,-0.219,0.127
980,0.0,-0.002,0.0,0.0,0.0,0.0,0.219,-0.225,0.121
981,0.0,-0.002,-0.001,0.0,0.0,0.0,0.211,-0.223,0.124
982,0.0,-0.001,-0.001,0.0,0.0,0.0,0.211,-0.223,0.13
983,0.0,-0.001,0.0,0.0,0.0,0.0,0.207,-0.219,0.127
984,0.0,-0.001,0.0,0.0,0.0,0.0,0.205,-0.225,0.135
985,0.0,-0.001,0.0,0.0,0.0,0.0,0.214,-0.22,0.141
986,0.0,-0.001,-0.001,0.0,0.0,0.0,0.216,-0.22,0.132
987,0.0,-0.001,-0.001,0.0,0.0,0.0,0.21,-0.225,0.138
988,0.0,-0.001,-0.001,0.0,0.0,0.0,0.216,-0.225,0.13
989,0.0,-0.002,0.0,0.0,0.0,0.0,0.207,-0.223,0.123
990,0.0,-0.001,0.0,0.0,0.0,0.0,0.222,-0.217,0.135
991,0.0,-0.002,0.0,0.0,0.0,0.0,0.202,-0.222,0.127
992,0.0,-0.002,-0.001,0.0,0.0,0.0,0.214,-0.223,0.126
993,0.0,-0.002,-0.001,0.0,0.0,0.0,0.213,-0.228,0.126
994,0.0,-0.002,0.0,0.0,0.0,0.0,0.205,-0.22,0.126
995,0.0,-0.002,-0.001,0.0,0.0,0.0,0.219,-0.225,0.139
996,0.0,-0.002,0.0,0.0,0.0,0.0,0.217,-0.222,0.126
997,0.0,-0.002,-0.001,0.0,0.0,0.0,0.223,-0.226,0.13
998,0.0,-0.002,0.0,0.0,0.0,0.0,0.214,-0.225,0.141
999,0.0,-0.002,-0.001,0.0,0.0,0.0,0.21,-0.228,0.126
1000,0.0,-0.002,-0.001,0.0,0.0,0.0,0.217,-0.222,0.129
1001,0.0,-0.002,0.0,0.0,0.0,0.0,0.214,-0.223,0.142
1002,0.0,-0.001,-0.001,0.0,0.0,0.0,0.21,-0.222,0.13
1003,0.0,-0.002,0.0,0.0,0.0,0.0,0.217,-0.22,0.127
1004,0.0,-0.002,0.0,0.0,0.0,0.0,0.219,-0.222,0.132
1005,0.0,-0.002,0.0,0.0,0.0,0.0,0.217,-0.211,0.127
1006,0.0,-0.001,0.0,0.0,0.0,0.0,0.205,-0.229,0.132
1007,0.0,-0.002,-0.001,0.0,0.0,0.0,0.205,-0.229,0.132
1008,0.0,-0.001,-0.001,0.0,0.0,0.0,0.217,-0.223,0.138
1009,0.0,-0.001,0.0,0.0,0.0,0.0,0.201,-0.211,0.132
1010,0.0,-0.002,0.0,0.0,0.0,0.0,0.222,-0.226,0.132
1011,0.0,-0.002,0.0,0.0,0.0,0.0,0.207,-0.225,0.126
1012,0.0,-0.002,0.0,0.0,0.0,0.0,0.211,-0.226,0.126
1013,0.0,-0.001,0.0,0.0,0.0,0.0,0.208,-0.216,0.132
1014,0.0,-0.002,0.0,0.0,0.0,0.0,0.207,-0.228,0.132
1015,0.0,-0.002,0.0,0.0,0.0,0.0,0.214,-0.219,0.133
1016,0.0,-0.001,0.0,0.0,0.0,0.0,0.214,-0.222,0.13
1017,0.0,-0.002,-0.001,0.0,0.0,0.0,0.214,-0.22,0.129
1018,0.0,-0.002,-0.001,0.0,0.0,0.0,0.21,-0.226,0.133
1019,0.0,-0.002,-0.001,0.0,0.0,0.0,0.217,-0.223,0.124
1020,0.0,-0.002,-0.001,0.0,0.0,0.0,0.205,-0.222,0.127
1021,0.0,-0.002,-0.001,0.0,0.0,0.0,0.211,-0.219,0.135
1022,0.0,-0.001,0.0,0.0,0.0,0.0,0.216,-0.222,0.138
1023,0.0,-0.002,-0.001,0.0,0.0,0.0,0.219,-0.225,0.138
1024,0.0,-0.001,-0.001,0.0,0.0,0.0,0.207,-0.219,0.141
1025,0.0,-0.002,-0.001,0.0,0.0,0.0,0.211,-0.22,0.133
1026,0.0,-0.002,0.0,0.0,0.0,0.0,0.211,-0.22,0.133
1027,0.0,-0.001,0.0,0.0,0.0,0.0,0.207,-0.214,0.132
1028,0.0,-0.001,0.0,0.0,0.0,0.0,0.219,-0.219,0.132
1029,0.0,-0.002,-0.001,0.0,0.0,0.0,0.207,-0.216,0.145
1030,0.0,-0.002,-0.001,0.0,0.0,0.0,0.207,-0.216,0.145
1031,0.0,-0.002,-0.001,0.0,0.0,0.0,0.214,-0.222,0.127
1032,0.0,-0.001,0.0,0.0,0.0,0.0,0.199,-0.223,0.135
1033,0.0,-0.001,0.0,0.0,0.0,0.0,0.207,-0.217,0.133
1034,0.0,-0.002,-0.001,0.0,0.0,0.0,0.211,-0.219,0.136
1035,0.0,-0.001,-0.001,0.0,0.0,0.0,0.216,-0.228,0.123
1036,0.0,-0.001,0.0,0.0,0.0,0.0,0.208,-0.216,0.135
1037,0.0,-0.002,0.0,0.0,0.0,0.0,0.205,-0.22,0.135
1038,0.0,-0.001,0.0,0.0,0.0,0.0,0.21,-0.226,0.129
1039,0.0,-0.002,-0.001,0.0,0.0,0.0,0.211,-0.225,0.138
1040,0.0,-0.001,0.0,0.0,0.0,0.0,0.213,-0.223,0.132
1041,0.0,-0.002,0.0,0.0,0.0,0.0,0.214,-0.222,0.129
1042,0.0,-0.001,0.0,0.0,0.0,0.0,0.22,-0.216,0.132
1043,0.0,-0.001,0.0,0.0,0.0,0.0,0.21,-0.222,0.139
1044,0.0,-0.001,0.0,0.0,0.0,0.0,0.21,-0.22,0.129
1045,0.0,-0.001,0.0,0.0,0.0,0.0,0.21,-0.222,0.124
1046,0.0,-0.002,0.0,0.0,0.0,0.0,0.211,-0.222,0.135
1047,0.0,-0.001,0.0,0.0,0.0,0.0,0.213,-0.22,0.121
1048,0.0,-0.002,0.0,0.0,0.0,0.0,0.205,-0.223,0.135
1049,0.0,-0.002,-0.001,0.0,0.0,0.0,0.208,-0.231,0.133
1050,0.0,-0.002,0.0,0.0,0.0,0.0,0.208,-0.228,0.127
1051,0.0,-0.001,-0.001,0.0,0.0,0.0,0.211,-0.22,0.13
1052,0.0,-0.002,-0.001,0.0,0.0,0.0,0.213,-0.225,0.133
1053,0.0,-0.001,-0.001,0.0,0.0,0.0,0.21,-0.232,0.132
1054,0.0,-0.001,0.0,0.0,0.0,0.0,0.21,-0.222,0.136
1055,0.0,-0.001,0.0,0.0,0.0,0.0,0.214,-0.214,0.136
1056,0.0,-0.002,0.0,0.0,0.0,0.0,0.22,-0.226,0.123
1057,0.0,-0.002,0.0,0.0,0.0,0.0,0.216,-0.223,0.133
1058,0.0,-0.002,0.0,0.0,0.0,0.0,0.214,-0.213,0.129
1059,0.0,-0.001,0.0,0.0,0.0,0.0,0.217,-0.229,0.13
1060,0.0,-0.001,-0.001,0.0,0.0,0.0,0.211,-0.22,0.124
1061,0.0,-0.002,0.0,0.0,0.0,0.0,0.208,-0.216,0.127
1062,0.0,-0.001,0.0,0.0,0.0,0.0,0.219,-0.217,0.133
1063,0.0,-0.001,0.0,0.0,0.0,0.0,0.211,-0.231,0.133
1064,0.0,-0.001,0.0,0.0,0.0,0.0,0.213,-0.22,0.138
1065,0.0,0.0,0.0,0.0,0.0,0.0,0.214,-0.231,0.136
1066,0.0,-0.001,0.0,0.0,0.0,0.0,0.214,-0.228,0.129
1067,0.0,-0.001,0.0,0.0,0.0,0.0,0.21,-0.225,0.124
1068,0.0,-0.002,-0.001,0.0,0.0,0.0,0.21,-0.223,0.127
1069,0.0,-0.002,0.0,0.0,0.0,0.0,0.217,-0.235,0.129
1070,0.0,-0.001,0.0,0.0,0.0,0.0,0.21,-0.219,0.126
1071,0.0,-0.002,-0.001,0.0,0.0,0.0,0.21,-0.223,0.13
1072,0.0,-0.001,0.0,0.0,0.0,0.0,0.214,-0.226,0.13
1073,0.0,-0.001,0.0,0.0,0.0,0.0,0.204,-0.223,0.135
1074,0.0,-0.001,-0.001,0.0,0.0,0.0,0.204,-0.231,0.139
1075,0.0,-0.002,0.0,0.0,0.0,0.0,0.21,-0.223,0.126
1076,0.0,-0.002,-0.001,0.0,0.0,0.0,0.208,-0.222,0.139
1077,0.0,-0.002,0.0,0.0,0.0,0.0,0.211,-0.226,0.129
1078,0.0,-0.001,0.0,0.0,0.0,0.0,0.208,-0.217,0.126
1079,0.0,-0.002,0.0,0.0,0.0,0.0,0.216,-0.226,0.13
1080,0.0,-0.002,0.0,0.0,0.0,0.0,0.207,-0.225,0.13
1081,0.0,-0.002,0.0,0.0,0.0,0.0,0.22,-0.231,0.135
1082,0.0,-0.002,-0.001,0.0,0.0,0.0,0.21,-0.219,0.127
1083,0.0,-0.001,0.0,0.0,0.0,0.0,0.213,-0.22,0.13
1084,0.0,-0.002,0.0,0.0,0.0,0.0,0.21,-0.226,0.127
1085,0.0,-0.002,-0.001,0.0,0.0,0.0,0.211,-0.226,0.138
1086,0.0,-0.002,-0.001,0.0,0.0,0.0,0.216,-0.217,0.13
1087,0.0,-0.002,0.0,0.0,0.0,0.0,0.208,-0.223,0.144
1088,0.0,-0.002,-0.001,0.0,0.0,0.0,0.21,-0.214,0.133
1089,0.0,-0.002,0.0,0.0,0.0,0.0,0.213,-0.216,0.138
1090,0.0,-0.001,0.0,0.0,0.0,0.0,0.214,-0.225,0.124
1091,0.0,-0.002,0.0,0.0,0.0,0.0,0.214,-0.225,0.124
1092,0.0,-0.002,0.0,0.0,0.0,0.0,0.205,-0.226,0.124
1093,0.0,-0.002,0.0,0.0,0.0,0.0,0.211,-0.226,0.13
1094,0.0,-0.002,0.0,0.0,0.0,0.0,0.222,-0.223,0.129
1095,0.0,-0.002,0.0,0.0,0.0,0.0,0.219,-0.217,0.126
1096,0.0,-0.002,0.0,0.0,0.0,0.0,0.208,-0.223,0.132
1097,0.0,-0.002,0.0,0.0,0.0,0.0,0.208,-0.223,0.132
1098,0.0,-0.002,0.0,0.0,0.0,0.0,0.21,-0.223,0.132
1099,0.0,-0.001,0.0,0.0,0.0,0.0,0.214,-0.223,0.13
1100,0.0,-0.002,-0.001,0.0,0.0,0.0,0.214,-0.223,0.13
1101,0.0,-0.001,-0.001,0.0,0.0,0.0,0.216,-0.216,0.133
1102,0.0,-0.001,0.0,0.0,0.0,0.0,0.219,-0.22,0.135
1103,0.0,-0.002,0.0,0.0,0.0,0.0,0.213,-0.22,0.12
1104,0.0,-0.002,-0.001,0.0,0.0,0.0,0.213,-0.214,0.13
1105,0.0,-0.001,0.0,0.0,0.0,0.0,0.222,-0.226,0.13
1106,0.0,-0.002,-0.001,0.0,0.0,0.0,0.219,-0.22,0.124
1107,0.0,-0.002,0.0,0.0,0.0,0.0,0.216,-0.222,0.135
1108,0.0,-0.002,-0.001,0.0,0.0,0.0,0.216,-0.222,0.135
1109,0.0,-0.002,0.0,0.0,0.0,0.0,0.216,-0.217,0.132
1110,0.0,-0.002,0.0,0.0,0.0,0.0,0.21,-0.216,0.132
1111,0.0,-0.001,0.0,0.0,0.0,0.0,0.21,-0.216,0.132
1112,0.0,-0.001,0.0,0.0,0.0,0.0,0.219,-0.214,0.123
1113,0.0,-0.002,0.0,0.0,0.0,0.0,0.219,-0.22,0.126
1114,0.0,-0.002,0.0,0.0,0.0,0.0,0.214,-0.223,0.133
1115,0.0,-0.002,0.0,0.0,0.0,0.0,0.211,-0.22,0.124
1116,0.0,-0.002,0.0,0.0,0.0,0.0,0.208,-0.226,0.126
1117,0.0,-0.002,0.0,0.0,0.0,0.0,0.213,-0.226,0.129
1118,0.0,-0.002,0.0,0.0,0.0,0.0,0.213,-0.222,0.126
1119,0.0,-0.002,0.0,0.0,0.0,0.0,0.211,-0.226,0.135
1120,0.0,-0.002,0.0,0.0,0.0,0.0,0.211,-0.226,0.135
1121,0.0,-0.001,0.0,0.0,0.0,0.0,0.213,-0.223,0.138
1122,0.0,-0.002,0.0,0.0,0.0,0.0,0.211,-0.229,0.141
1123,0.0,-0.002,0.0,0.0,0.0,0.0,0.211,-0.229,0.141
1124,0.0,-0.002,-0.001,0.0,0.0,0.0,0.217,-0.229,0.132
1125,0.0,-0.002,0.0,0.0,0.0,0.0,0.204,-0.22,0.133
1126,0.0,-0.001,0.0,0.0,0.0,0.0,0.213,-0.223,0.121
1127,0.0,-0.002,-0.001,0.0,0.0,0.0,0.21,-0.219,0.129
1128,0.0,-0.002,-0.001,0.0,0.0,0.0,0.213,-0.216,0.123
1129,0.0,-0.002,0.0,0.0,0.0,0.0,0.211,-0.213,0.123
1130,0.0,-0.001,0.0,0.0,0.0,0.0,0.211,-0.228,0.135
1131,0.0,-0.002,0.0,0.0,0.0,0.0,0.217,-0.22,0.126
1132,0.0,-0.002,-0.001,0.0,0.0,0.0,0.213,-0.228,0.121
1133,0.0,-0.001,0.0,0.0,0.0,0.0,0.217,-0.216,0.141
1134,0.0,-0.001,0.0,0.0,0.0,0.0,0.211,-0.219,0.127
1135,0.0,-0.002,-0.001,0.0,0.0,0.0,0.21,-0.228,0.126
1136,0.0,-0.002,-0.001,0.0,0.0,0.0,0.211,-0.211,0.129
1137,0.0,-0.002,-0.001,0.0,0.0,0.0,0.21,-0.222,0.13
1138,0.0,-0.001,-0.001,0.0,0.0,0.0,0.217,-0.222,0.124
1139,0.0,-0.002,0.0,0.0,0.0,0.0,0.21,-0.22,0.126
1140,0.0,-0.002,0.0,0.0,0.0,0.0,0.22,-0.22,0.135
1141,0.0,-0.001,0.0,0.0,0.0,0.0,0.205,-0.219,0.133
1142,0.0,-0.001,-0.001,0.0,0.0,0.0,0.208,-0.226,0.132
1143,0.0,-0.001,0.0,0.0,0.0,0.0,0.208,-0.225,0.133
1144,0.0,-0.001,0.0,0.0,0.0,0.0,0.207,-0.226,0.127
1145,0.0,-0.001,-0.001,0.0,0.0,0.0,0.21,-0.22,0.135
1146,0.0,-0.002,0.0,0.0,0.0,0.0,0.214,-0.226,0.123
1147,0.0,-0.002,0.0,0.0,0.0,0.0,0.213,-0.22,0.133
1148,0.0,-0.002,0.0,0.0,0.0,0.0,0.21,-0.219,0.129
1149,0.0,-0.001,0.0,0.0,0.0,0.0,0.21,-0.22,0.129
1150,0.0,-0.002,-0.001,0.0,0.0,0.0,0.217,-0.223,0.133
1151,0.0,-0.002,0.0,0.0,0.0,0.0,0.204,-0.214,0.124
1152,0.0,-0.002,0.0,0.0,0.0,0.0,0.213,-0.219,0.129
1153,0.0,-0.001,-0.001,0.0,0.0,0.0,0.213,-0.219,0.129
1154,0.0,-0.002,0.0,0.0,0.0,0.0,0.214,-0.216,0.129
1155,0.0,-0.001,0.0,0.0,0.0,0.0,0.213,-0.222,0.129
1156,0.0,-0.002,0.0,0.0,0.0,0.0,0.22,-0.225,0.123
1157,0.0,-0.002,-0.001,0.0,0.0,0.0,0.217,-0.226,0.123
1158,0.0,-0.001,0.0,0.0,0.0,0.0,0.205,-0.219,0.132
1159,0.0,-0.001,0.0,0.0,0.0,0.0,0.21,-0.228,0.13
1160,0.0,-0.001,-0.001,0.0,0.0,0.0,0.211,-0.211,0.12
1161,0.0,-0.001,0.0,0.0,0.0,0.0,0.22,-0.228,0.127
1162,0.0,-0.002,0.0,0.0,0.0,0.0,0.219,-0.22,0.124
1163,0.0,-0.002,0.0,0.0,0.0,0.0,0.208,-0.222,0.13
1164,0.0,-0.002,-0.001,0.0,0.0,0.0,0.208,-0.223,0.132
1165,0.0,-0.002,0.0,0.0,0.0,0.0,0.207,-0.213,0.13
1166,0.0,-0.002,0.0,0.0,0.0,0.0,0.214,-0.216,0.132
1167,0.0,-0.001,-0.001,0.0,0.0,0.0,0.211,-0.222,0.138
1168,0.0,-0.001,-0.001,0.0,0.0,0.0,0.219,-0.216,0.123
1169,0.0,-0.002,-0.001,0.0,0.0,0.0,0.21,-0.217,0.127
1170,0.0,-0.002,-0.001,0.0,0.0,0.0,0.208,-0.216,0.123
1171,0.0,-0.002,0.0,0.0,0.0,0.0,0.22,-0.213,0.127
1172,0.0,-0.001,0.0,0.0,0.0,0.0,0.217,-0.214,0.127
1173,0.0,-0.002,-0.001,0.0,0.0,0.0,0.208,-0.22,0.126
1174,0.0,-0.001,-0.001,0.0,0.0,0.0,0.214,-0.217,0.123
1175,0.0,-0.002,0.0,0.0,0.0,0.0,0.207,-0.219,0.129
1176,0.0,-0.002,0.0,0.0,0.0,0.0,0.207,-0.219,0.129
1177,0.0,-0.002,0.0,0.0,0.0,0.0,0.22,-0.216,0.132
1178,0.0,-0.001,0.0,0.0,0.0,0.0,0.204,-0.22,0.123
1179,0.0,-0.002,0.0,0.0,0.0,0.0,0.204,-0.22,0.123
1180,0.0,-0.002,0.0,0.0,0.0,0.0,0.216,-0.219,0.13
1181,0.0,-0.001,0.0,0.0,0.0,0.0,0.219,-0.228,0.124
1182,0.0,-0.002,0.0,0.0,0.0,0.0,0.211,-0.219,0.127
1183,0.0,-0.002,-0.001,0.0,0.0,0.0,0.216,-0.219,0.123
1184,0.0,-0.002,-0.001,0.0,0.0,0.0,0.207,-0.217,0.129
1185,0.0,-0.002,-0.001,0.0,0.0,0.0,0.21,-0.229,0.129
1186,0.0,-0.002,-0.001,0.0,0.0,0.0,0.211,-0.223,0.13
1187,0.0,-0.002,0.0,0.0,0.0,0.0,0.213,-0.22,0.124
1188,0.0,-0.002,-0.001,0.0,0.0,0.0,0.21,-0.216,0.13
1189,0.0,-0.001,0.0,0.0,0.0,0.0,0.204,-0.222,0.127
1190,0.0,-0.001,-0.001,0.0,0.0,0.0,0.204,-0.222,0.127
1191,0.0,-0.001,-0.001,0.0,0.0,0.0,0.216,-0.219,0.135
1192,0.0,-0.002,0.0,0.0,0.0,0.0,0.216,-0.223,0.133
1193,0.0,-0.002,0.0,0.0,0.0,0.0,0.214,-0.226,0.133
1194,0.0,-0.002,0.0,0.0,0.0,0.0,0.214,-0.223,0.133
1195,0.0,-0.002,-0.001,0.0,0.0,0.0,0.213,-0.229,0.126
1196,0.0,-0.002,0.0,0.0,0.0,0.0,0.21,-0.22,0.132
1197,0.0,-0.001,0.0,0.0,0.0,0.0,0.213,-0.213,0.139
1198,0.0,-0.002,0.0,0.0,0.0,0.0,0.211,-0.228,0.136
1199,0.0,-0.002,0.0,0.0,0.0,0.0,0.211,-0.223,0.13
1200,0.0,-0.001,0.0,0.0,0.0,0.0,0.21,-0.217,0.133
1201,0.0,-0.002,0.0,0.0,0.0,0.0,0.21,-0.217,0.133
1202,0.0,-0.001,0.0,0.0,0.0,0.0,0.214,-0.22,0.132
1203,0.0,-0.002,0.0,0.0,0.0,0.0,0.205,-0.216,0.126
1204,0.0,-0.002,-0.001,0.0,0.0,0.0,0.213,-0.213,0.135
1205,0.0,-0.001,-0.001,0.0,0.0,0.0,0.219,-0.214,0.124
1206,0.0,-0.001,-0.001,0.0,0.0,0.0,0.219,-0.222,0.127
1207,0.0,-0.002,0.0,0.0,0.0,0.0,0.217,-0.231,0.132
1208,0.0,-0.001,0.0,0.0,0.0,0.0,0.216,-0.226,0.124
1209,0.0,-0.002,0.0,0.0,0.0,0.0,0.21,-0.22,0.139
1210,0.0,-0.002,0.0,0.0,0.0,0.0,0.213,-0.223,0.126
1211,0.0,-0.001,0.0,0.0,0.0,0.0,0.211,-0.223,0.132
1212,0.0,-0.002,-0.001,0.0,0.0,0.0,0.21,-0.22,0.132
1213,0.0,-0.001,0.0,0.0,0.0,0.0,0.222,-0.213,0.124
1214,0.0,-0.002,-0.001,0.0,0.0,0.0,0.216,-0.228,0.13
1215,0.0,-0.001,0.0,0.0,0.0,0.0,0.205,-0.222,0.132
1216,0.0,-0.002,0.0,0.0,0.0,0.0,0.205,-0.216,0.123
1217,0.0,-0.002,-0.001,0.0,0.0,0.0,0.207,-0.211,0.127
1218,0.0,-0.002,0.0,0.0,0.0,0.0,0.22,-0.22,0.126
1219,0.0,-0.002,-0.001,0.0,0.0,0.0,0.226,-0.219,0.133
1220,0.0,-0.002,0.0,0.0,0.0,0.0,0.214,-0.225,0.129
1221,0.0,-0.001,-0.001,0.0,0.0,0.0,0.208,-0.223,0.13
1222,0.0,-0.002,0.0,0.0,0.0,0.0,0.21,-0.213,0.133
1223,0.0,-0.002,0.0,0.0,0.0,0.0,0.205,-0.228,0.124
1224,0.0,-0.002,0.0,0.0,0.0,0.0,0.21,-0.222,0.135
1225,0.0,-0.002,-0.001,0.0,0.0,0.0,0.211,-0.214,0.127
1226,0.0,-0.002,0.0,0.0,0.0,0.0,0.216,-0.229,0.124
1227,0.0,-0.002,0.0,0.0,0.0,0.0,0.21,-0.219,0.133
1228,0.0,-0.002,-0.001,0.0,0.0,0.0,0.219,-0.228,0.13
1229,0.0,-0.002,-0.001,0.0,0.0,0.0,0.217,-0.22,0.133
1230,0.0,-0.002,-0.001,0.0,0.0,0.0,0.217,-0.225,0.118
1231,0.0,-0.002,0.0,0.0,0.0,0.0,0.205,-0.217,0.135
1232,0.0,-0.002,-0.001,0.0,0.0,0.0,0.214,-0.232,0.126
1233,0.0,-0.002,-0.001,0.0,0.0,0.0,0.211,-0.226,0.133
1234,0.0,-0.001,-0.001,0.0,0.0,0.0,0.213,-0.213,0.132
1235,0.0,-0.001,-0.001,0.0,0.0,0.0,0.214,-0.222,0.126
1236,0.0,-0.002,-0.001,0.0,0.0,0.0,0.207,-0.219,0.129
1237,0.0,-0.002,0.0,0.0,0.0,0.0,0.208,-0.214,0.129
1238,0.0,-0.002,0.0,0.0,0.0,0.0,0.211,-0.216,0.127
1239,0.0,-0.002,0.0,0.0,0.0,0.0,0.222,-0.222,0.12
1240,0.0,-0.002,-0.001,0.0,0.0,0.0,0.208,-0.222,0.127
1241,0.0,-0.001,-0.001,0.0,0.0,0.0,0.214,-0.229,0.126
1242,0.0,-0.002,-0.001,0.0,0.0,0.0,0.207,-0.222,0.126
1243,0.0,-0.002,-0.001,0.0,0.0,0.0,0.213,-0.232,0.121
1244,0.0,-0.002,0.0,0.0,0.0,0.0,0.214,-0.214,0.127
1245,0.0,-0.001,0.0,0.0,0.0,0.0,0.216,-0.226,0.133
1246,0.0,-0.002,-0.001,0.0,0.0,0.0,0.214,-0.217,0.126
1247,0.0,-0.001,-0.001,0.0,0.0,0.0,0.213,-0.228,0.124
1248,0.0,-0.002,-0.001,0.0,0.0,0.0,0.213,-0.22,0.13
1249,0.0,-0.001,-0.001,0.0,0.0,0.0,0.216,-0.22,0.132
1250,0.0,-0.001,0.0,0.0,0.0,0.0,0.219,-0.223,0.132
1251,0.0,-0.001,0.0,0.0,0.0,0.0,0.216,-0.219,0.126
1252,0.0,-0.001,-0.001,0.0,0.0,0.0,0.207,-0.228,0.129
1253,0.0,-0.001,0.0,0.0,0.0,0.0,0.205,-0.225,0.123
1254,0.0,-0.001,0.0,0.0,0.0,0.0,0.214,-0.22,0.124
1255,0.0,-0.002,0.0,0.0,0.0,0.0,0.217,-0.225,0.123
1256,0.0,-0.002,-0.001,0.0,0.0,0.0,0.216,-0.222,0.126
1257,0.0,-0.002,0.0,0.0,0.0,0.0,0.208,-0.223,0.132
1258,0.0,-0.001,0.0,0.0,0.0,0.0,0.208,-0.217,0.127
1259,0.0,-0.002,0.0,0.0,0.0,0.0,0.223,-0.211,0.123
1260,0.0,-0.002,0.0,0.0,0.0,0.0,0.223,-0.211,0.123
1261,0.0,-0.002,0.0,0.0,0.0,0.0,0.213,-0.223,0.129
1262,0.0,-0.001,0.0,0.0,0.0,0.0,0.217,-0.223,0.126
1263,0.0,-0.001,-0.001,0.0,0.0,0.0,0.211,-0.225,0.132
1264,0.0,-0.002,0.0,0.0,0.0,0.0,0.22,-0.222,0.126
1265,0.0,-0.002,0.0,0.0,0.0,0.0,0.208,-0.223,0.127
1266,0.0,-0.002,0.0,0.0,0.0,0.0,0.217,-0.217,0.133
1267,0.0,-0.002,0.0,0.0,0.0,0.0,0.217,-0.216,0.13
1268,0.0,-0.002,0.0,0.0,0.0,0.0,0.21,-0.214,0.139
1269,0.0,-0.002,-0.001,0.0,0.0,0.0,0.21,-0.217,0.139
1270,0.0,-0.001,-0.001,0.0,0.0,0.0,0.21,-0.229,0.13
1271,0.0,-0.002,0.0,0.0,0.0,0.0,0.213,-0.219,0.132
1272,0.0,-0.002,0.0,0.0,0.0,0.0,0.214,-0.22,0.13
1273,0.0,-0.002,0.0,0.0,0.0,0.0,0.211,-0.219,0.123
1274,0.0,-0.002,0.0,0.0,0.0,0.0,0.216,-0.216,0.127
1275,0.0,-0.001,0.0,0.0,0.0,0.0,0.22,-0.222,0.129
1276,0.0,-0.001,-0.001,0.0,0.0,0.0,0.213,-0.216,0.13
1277,0.0,-0.002,0.0,0.0,0.0,0.0,0.222,-0.226,0.124
1278,0.0,-0.002,0.0,0.0,0.0,0.0,0.213,-0.213,0.127
1279,0.0,-0.002,0.0,0.0,0.0,0.0,0.213,-0.213,0.127
1280,0.0,-0.002,0.0,0.0,0.0,0.0,0.207,-0.225,0.129
1281,0.0,-0.001,0.0,0.0,0.0,0.0,0.214,-0.223,0.126
1282,0.0,-0.001,0.0,0.0,0.0,0.0,0.205,-0.225,0.115
1283,0.0,-0.001,0.0,0.0,0.0,0.0,0.21,-0.225,0.126
1284,0.0,-0.002,0.0,0.0,0.0,0.0,0.228,-0.222,0.132
1285,0.0,-0.001,0.0,0.0,0.0,0.0,0.22,-0.228,0.124
1286,0.0,-0.002,0.0,0.0,0.0,0.0,0.208,-0.231,0.127
1287,0.0,-0.001,0.0,0.0,0.0,0.0,0.213,-0.225,0.135
1288,0.0,-0.001,0.0,0.0,0.0,0.0,0.216,-0.226,0.12
1289,0.0,-0.001,0.0,0.0,0.0,0.0,0.213,-0.225,0.127
1290,0.0,-0.001,0.0,0.0,0.0,0.0,0.213,-0.214,0.123
1291,0.0,-0.002,0.0,0.0,0.0,0.0,0.214,-0.219,0.115
1292,0.0,-0.001,0.0,0.0,0.0,0.0,0.21,-0.222,0.13
1293,0.0,-0.001,0.0,0.0,0.0,0.0,0.208,-0.222,0.127
1294,0.0,-0.002,0.0,0.0,0.0,0.0,0.213,-0.216,0.133
1295,0.0,-0.002,0.0,0.0,0.0,0.0,0.216,-0.219,0.127
1296,0.0,-0.002,0.0,0.0,0.0,0.0,0.208,-0.228,0.115
1297,0.0,-0.002,-0.001,0.0,0.0,0.0,0.216,-0.211,0.129
1298,0.0,-0.002,0.0,0.0,0.0,0.0,0.207,-0.219,0.129
1299,0.0,-0.002,0.0,0.0,0.0,0.0,0.214,-0.22,0.127
1300,0.0,-0.002,-0.001,0.0,0.0,0.0,0.214,-0.223,0.123
1301,0.0,-0.002,0.0,0.0,0.0,0.0,0.211,-0.22,0.126
1302,0.0,-0.001,0.0,0.0,0.0,0.0,0.216,-0.214,0.129
1303,0.0,-0.002,0.0,0.0,0.0,0.0,0.213,-0.225,0.127
1304,0.0,-0.002,0.0,0.0,0.0,0.0,0.21,-0.225,0.124
1305,0.0,-0.002,-0.001,0.0,0.0,0.0,0.213,-0.222,0.129
1306,0.0,-0.002,0.0,0.0,0.0,0.0,0.208,-0.226,0.123
1307,0.0,-0.002,0.0,0.0,0.0,0.0,0.204,-0.217,0.127
1308,0.0,-0.001,-0.001,0.0,0.0,0.0,0.213,-0.228,0.127
1309,0.0,-0.002,0.0,0.0,0.0,0.0,0.22,-0.223,0.127
1310,0.0,-0.002,0.0,0.0,0.0,0.0,0.205,-0.223,0.132
1311,0.0,-0.001,0.0,0.0,0.0,0.0,0.213,-0.216,0.13
1312,0.0,-0.002,0.0,0.0,0.0,0.0,0.21,-0.225,0.124
1313,0.0,-0.002,0.0,0.0,0.0,0.0,0.214,-0.22,0.12
1314,0.0,-0.001,0.0,0.0,0.0,0.0,0.207,-0.222,0.124
1315,0.0,-0.001,0.0,0.0,0.0,0.0,0.214,-0.217,0.124
1316,0.0,-0.002,0.0,0.0,0.0,0.0,0.219,-0.229,0.132
1317,0.0,-0.002,0.0,0.0,0.0,0.0,0.216,-0.225,0.135
1318,0.0,-0.002,-0.001,0.0,0.0,0.0,0.214,-0.219,0.129
1319,0.0,-0.002,0.0,0.0,0.0,0.0,0.214,-0.222,0.127
1320,0.0,-0.002,0.0,0.0,0.0,0.0,0.214,-0.211,0.117
1321,0.0,-0.002,0.0,0.0,0.0,0.0,0.21,-0.213,0.124
1322,0.0,-0.002,-0.001,0.0,0.0,0.0,0.213,-0.217,0.13
1323,0.0,-0.002,0.0,0.0,0.0,0.0,0.202,-0.22,0.117
1324,0.0,-0.002,-0.001,0.0,0.0,0.0,0.21,-0.219,0.124
1325,0.0,-0.002,-0.001,0.0,0.0,0.0,0.216,-0.216,0.126
1326,0.0,-0.002,0.0,0.0,0.0,0.0,0.211,-0.225,0.13
1327,0.0,-0.001,0.0,0.0,0.0,0.0,0.216,-0.217,0.129
1328,0.0,-0.002,-0.001,0.0,0.0,0.0,0.208,-0.216,0.127
1329,0.0,-0.002,0.0,0.0,0.0,0.0,0.216,-0.22,0.123
1330,0.0,-0.002,0.0,0.0,0.0,0.0,0.216,-0.211,0.121
1331,0.0,-0.001,-0.001,0.0,0.0,0.0,0.216,-0.222,0.121
1332,0.0,-0.001,0.0,0.0,0.0,0.0,0.216,-0.229,0.124
1333,0.0,-0.001,0.0,0.0,0.0,0.0,0.214,-0.225,0.127
1334,0.0,-0.002,-0.001,0.0,0.0,0.0,0.22,-0.222,0.121
1335,0.0,-0.001,-0.001,0.0,0.0,0.0,0.213,-0.228,0.126
1336,0.0,-0.001,-0.001,0.0,0.0,0.0,0.216,-0.234,0.121
1337,0.0,-0.002,0.0,0.0,0.0,0.0,0.223,-0.223,0.124
1338,0.0,-0.002,0.0,0.0,0.0,0.0,0.216,-0.225,0.123
1339,0.0,-0.002,0.0,0.0,0.0,0.0,0.214,-0.228,0.129
1340,0.0,-0.002,0.0,0.0,0.0,0.0,0.207,-0.213,0.129
1341,0.0,-0.002,-0.001,0.0,0.0,0.0,0.208,-0.234,0.129
1342,0.0,-0.002,0.0,0.0,0.0,0.0,0.214,-0.225,0.127
1343,0.0,-0.002,0.0,0.0,0.0,0.0,0.216,-0.219,0.132
1344,0.0,-0.002,0.0,0.0,0.0,0.0,0.211,-0.226,0.117
1345,0.0,-0.002,0.0,0.0,0.0,0.0,0.211,-0.226,0.117
1346,0.0,-0.001,0.0,0.0,0.0,0.0,0.213,-0.222,0.132
1347,0.0,-0.002,0.0,0.0,0.0,0.0,0.219,-0.222,0.132
1348,0.0,-0.002,-0.001,0.0,0.0,0.0,0.21,-0.217,0.124
1349,0.0,-0.002,-0.001,0.0,0.0,0.0,0.219,-0.222,0.114
1350,0.0,-0.002,0.0,0.0,0.0,0.0,0.207,-0.22,0.139
1351,0.0,-0.002,0.0,0.0,0.0,0.0,0.216,-0.223,0.127
1352,0.0,-0.002,0.0,0.0,0.0,0.0,0.217,-0.219,0.129
1353,0.0,-0.002,0.0,0.0,0.0,0.0,0.214,-0.226,0.136
1354,0.0,-0.002,-0.001,0.0,0.0,0.0,0.217,-0.216,0.126
1355,0.0,-0.002,-0.001,0.0,0.0,0.0,0.223,-0.21,0.132
1356,0.0,-0.002,-0.001,0.0,0.0,0.0,0.213,-0.225,0.127
1357,0.0,-0.002,0.0,0.0,0.0,0.0,0.205,-0.225,0.13
1358,0.0,-0.002,0.0,0.0,0.0,0.0,0.216,-0.223,0.133
1359,0.0,-0.002,0.0,0.0,0.0,0.0,0.217,-0.216,0.127
1360,0.0,-0.001,0.0,0.0,0.0,0.0,0.205,-0.211,0.127
1361,0.0,-0.002,0.0,0.0,0.0,0.0,0.216,-0.228,0.133
1362,0.0,-0.002,-0.001,0.0,0.0,0.0,0.219,-0.22,0.135
1363,0.0,-0.002,0.0,0.0,0.0,0.0,0.214,-0.22,0.126
1364,0.0,-0.002,-0.001,0.0,0.0,0.0,0.204,-0.22,0.12
1365,0.0,-0.001,-0.001,0.0,0.0,0.0,0.211,-0.226,0.124
1366,0.0,-0.002,-0.001,0.0,0.0,0.0,0.223,-0.228,0.124
1367,0.0,-0.002,-0.001,0.0,0.0,0.0,0.216,-0.231,0.13
1368,0.0,-0.002,0.0,0.0,0.0,0.0,0.213,-0.228,0.118
1369,0.0,-0.002,0.0,0.0,0.0,0.0,0.208,-0.217,0.138
1370,0.0,-0.001,-0.001,0.0,0.0,0.0,0.214,-0.222,0.13
1371,0.0,-0.001,-0.001,0.0,0.0,0.0,0.208,-0.216,0.121
1372,0.0,-0.002,0.0,0.0,0.0,0.0,0.21,-0.213,0.132
1373,0.0,-0.002,-0.001,0.0,0.0,0.0,0.219,-0.219,0.127
1374,0.0,-0.002,-0.001,0.0,0.0,0.0,0.219,-0.228,0.126
1375,0.0,-0.002,0.0,0.0,0.0,0.0,0.211,-0.219,0.127
1376,0.0,-0.002,0.0,0.0,0.0,0.0,0.208,-0.228,0.126
1377,0.0,-0.002,0.0,0.0,0.0,0.0,0.208,-0.222,0.123
1378,0.0,-0.002,-0.001,0.0,0.0,0.0,0.211,-0.226,0.121
1379,0.0,0.0,0.0,0.0,0.0,0.0,0.214,-0.217,0.129
1380,0.0,-0.001,0.0,0.0,0.0,0.0,0.213,-0.226,0.127
1381,0.0,-0.001,0.0,0.0,0.0,0.0,0.217,-0.22,0.129
1382,0.0,-0.002,0.0,0.0,0.0,0.0,0.22,-0.229,0.13
1383,0.0,-0.002,-0.001,0.0,0.0,0.0,0.214,-0.223,0.123
1384,0.0,-0.002,0.0,0.0,0.0,0.0,0.208,-0.217,0.124
1385,0.0,-0.001,0.0,0.0,0.0,0.0,0.21,-0.225,0.133
1386,0.0,-0.001,0.0,0.0,0.0,0.0,0.216,-0.22,0.132
1387,0.0,-0.001,0.0,0.0,0.0,0.0,0.211,-0.225,0.121
1388,0.0,-0.002,0.0,0.0,0.0,0.0,0.205,-0.22,0.126
1389,0.0,-0.002,0.0,0.0,0.0,0.0,0.21,-0.22,0.132
1390,0.0,-0.002,-0.001,0.0,0.0,0.0,0.208,-0.228,0.13
1391,0.0,-0.002,0.0,0.0,0.0,0.0,0.211,-0.22,0.129
1392,0.0,-0.002,0.0,0.0,0.0,0.0,0.21,-0.214,0.127
1393,0.0,-0.002,0.0,0.0,0.0,0.0,0.208,-0.214,0.124
1394,0.0,-0.002,-0.001,0.0,0.0,0.0,0.208,-0.22,0.127
1395,0.0,-0.001,0.0,0.0,0.0,0.0,0.217,-0.225,0.13
1396,0.0,-0.002,0.0,0.0,0.0,0.0,0.214,-0.216,0.123
1397,0.0,-0.002,0.0,0.0,0.0,0.0,0.21,-0.222,0.126
1398,0.0,-0.001,0.0,0.0,0.0,0.0,0.219,-0.225,0.123
1399,0.0,-0.001,-0.001,0.0,0.0,0.0,0.216,-0.223,0.121
1400,0.0,-0.002,0.0,0.0,0.0,0.0,0.21,-0.219,0.13
1401,0.0,-0.001,0.0,0.0,0.0,0.0,0.219,-0.217,0.127
1402,0.0,-0.002,-0.001,0.0,0.0,0.0,0.211,-0.229,0.135
1403,0.0,-0.001,-0.001,0.0,0.0,0.0,0.208,-0.222,0.129
1404,0.0,-0.002,0.0,0.0,0.0,0.0,0.211,-0.217,0.124
1405,0.0,-0.002,0.0,0.0,0.0,0.0,0.208,-0.229,0.129
1406,0.0,-0.001,-0.001,0.0,0.0,0.0,0.219,-0.223,0.136
1407,0.0,-0.001,0.0,0.0,0.0,0.0,0.211,-0.228,0.127
1408,0.0,-0.001,0.0,0.0,0.0,0.0,0.205,-0.226,0.127
1409,0.0,-0.002,-0.001,0.0,0.0,0.0,0.214,-0.226,0.127
1410,0.0,-0.001,0.0,0.0,0.0,0.0,0.211,-0.222,0.124
1411,0.0,-0.001,0.0,0.0,0.0,0.0,0.222,-0.223,0.13
1412,0.0,-0.002,0.0,0.0,0.0,0.0,0.21,-0.216,0.129
1413,0.0,-0.002,-0.001,0.0,0.0,0.0,0.205,-0.223,0.13
1414,0.0,-0.002,0.0,0.0,0.0,0.0,0.219,-0.22,0.13
1415,0.0,-0.002,0.0,0.0,0.0,0.0,0.217,-0.22,0.126
1416,0.0,-0.001,-0.001,0.0,0.0,0.0,0.21,-0.222,0.133
1417,0.0,-0.001,0.0,0.0,0.0,0.0,0.216,-0.222,0.132
1418,0.0,-0.001,-0.001,0.0,0.0,0.0,0.216,-0.208,0.12
1419,0.0,-0.002,0.0,0.0,0.0,0.0,0.205,-0.226,0.129
1420,0.0,-0.002,0.0,0.0,0.0,0.0,0.211,-0.222,0.13
1421,0.0,-0.002,0.0,0.0,0.0,0.0,0.217,-0.225,0.127
1422,0.0,-0.001,0.0,0.0,0.0,0.0,0.21,-0.21,0.127
1423,0.0,-0.001,0.0,0.0,0.0,0.0,0.21,-0.225,0.124
1424,0.0,-0.002,0.0,0.0,0.0,0.0,0.214,-0.214,0.132
1425,0.0,-0.002,0.0,0.0,0.0,0.0,0.213,-0.219,0.13
1426,0.0,-0.002,0.0,0.0,0.0,0.0,0.225,-0.216,0.127
1427,0.0,-0.002,-0.001,0.0,0.0,0.0,0.216,-0.222,0.13
1428,0.0,-0.002,-0.001,0.0,0.0,0.0,0.211,-0.216,0.127
1429,0.0,-0.002,0.0,0.0,0.0,0.0,0.211,-0.216,0.127
1430,0.0,-0.002,-0.001,0.0,0.0,0.0,0.213,-0.225,0.127
1431,0.0,-0.002,0.0,0.0,0.0,0.0,0.211,-0.204,0.121
1432,0.0,-0.002,0.0,0.0,0.0,0.0,0.22,-0.216,0.124
1433,0.0,-0.002,0.0,0.0,0.0,0.0,0.216,-0.219,0.121
1434,0.0,-0.002,0.0,0.0,0.0,0.0,0.219,-0.223,0.129
1435,0.0,-0.002,-0.001,0.0,0.0,0.0,0.216,-0.222,0.127
1436,0.0,-0.002,0.0,0.0,0.0,0.0,0.213,-0.225,0.135
1437,0.0,-0.001,-0.001,0.0,0.0,0.0,0.205,-0.22,0.123
1438,0.0,-0.002,0.0,0.0,0.0,0.0,0.21,-0.225,0.13
1439,0.0,-0.002,0.0,0.0,0.0,0.0,0.216,-0.223,0.121
1440,0.0,-0.002,0.0,0.0,0.0,0.0,0.213,-0.223,0.118
1441,0.0,-0.001,0.0,0.0,0.0,0.0,0.208,-0.216,0.135
1442,0.0,-0.002,0.0,0.0,0.0,0.0,0.216,-0.216,0.129
1443,0.0,-0.002,-0.001,0.0,0.0,0.0,0.21,-0.219,0.124
1444,0.0,-0.002,0.0,0.0,0.0,0.0,0.208,-0.231,0.127
1445,0.0,-0.001,0.0,0.0,0.0,0.0,0.214,-0.217,0.129
1446,0.0,-0.002,0.0,0.0,0.0,0.0,0.205,-0.219,0.129
1447,0.0,-0.002,0.0,0.0,0.0,0.0,0.211,-0.229,0.127
1448,0.0,-0.002,0.0,0.0,0.0,0.0,0.208,-0.223,0.13
1449,0.0,-0.002,0.0,0.0,0.0,0.0,0.207,-0.222,0.126
1450,0.0,-0.002,0.0,0.0,0.0,0.0,0.222,-0.228,0.132
1451,0.0,-0.001,0.0,0.0,0.0,0.0,0.214,-0.226,0.12
1452,0.0,-0.002,0.0,0.0,0.0,0.0,0.216,-0.223,0.124
1453,0.0,-0.002,0.0,0.0,0.0,0.0,0.213,-0.223,0.126
1454,0.0,-0.002,-0.001,0.0,0.0,0.0,0.213,-0.223,0.129
1455,0.0,-0.002,0.0,0.0,0.0,0.0,0.21,-0.222,0.126
1456,0.0,-0.002,0.0,0.0,0.0,0.0,0.207,-0.22,0.13
1457,0.0,-0.002,-0.001,0.0,0.0,0.0,0.216,-0.225,0.12
1458,0.0,-0.002,-0.001,0.0,0.0,0.0,0.216,-0.234,0.132
1459,0.0,-0.002,0.0,0.0,0.0,0.0,0.211,-0.217,0.127
1460,0.0,-0.001,0.0,0.0,0.0,0.0,0.217,-0.213,0.133
1461,0.0,-0.001,0.0,0.0,0.0,0.0,0.213,-0.219,0.138
1462,0.0,-0.001,0.0,0.0,0.0,0.0,0.216,-0.222,0.127
1463,0.0,-0.001,0.0,0.0,0.0,0.0,0.211,-0.219,0.121
1464,0.0,-0.001,0.0,0.0,0.0,0.0,0.211,-0.222,0.13
1465,0.0,-0.002,0.0,0.0,0.0,0.0,0.22,-0.222,0.133
1466,0.0,-0.002,-0.001,0.0,0.0,0.0,0.217,-0.228,0.123
1467,0.0,-0.001,-0.001,0.0,0.0,0.0,0.208,-0.222,0.133
1468,0.0,-0.002,-0.001,0.0,0.0,0.0,0.211,-0.222,0.136
1469,0.0,-0.002,-0.001,0.0,0.0,0.0,0.214,-0.225,0.132
1470,0.0,-0.002,-0.001,0.0,0.0,0.0,0.216,-0.219,0.124
1471,0.0,-0.002,0.0,0.0,0.0,0.0,0.211,-0.223,0.132
1472,0.0,-0.002,0.0,0.0,0.0,0.0,0.202,-0.223,0.136
1473,0.0,-0.002,0.0,0.0,0.0,0.0,0.207,-0.223,0.124
1474,0.0,-0.002,-0.001,0.0,0.0,0.0,0.21,-0.21,0.124
1475,0.0,-0.002,-0.001,0.0,0.0,0.0,0.211,-0.225,0.121
1476,0.0,-0.001,-0.001,0.0,0.0,0.0,0.208,-0.219,0.121
1477,0.0,-0.001,0.0,0.0,0.0,0.0,0.213,-0.223,0.13
1478,0.0,-0.001,0.0,0.0,0.0,0.0,0.213,-0.223,0.127
1479,0.0,-0.002,-0.001,0.0,0.0,0.0,0.21,-0.225,0.121
1480,0.0,-0.002,0.0,0.0,0.0,0.0,0.205,-0.228,0.126
1481,0.0,-0.001,-0.001,0.0,0.0,0.0,0.21,-0.225,0.124
1482,0.0,-0.002,0.0,0.0,0.0,0.0,0.214,-0.219,0.129
1483,0.0,-0.001,-0.001,0.0,0.0,0.0,0.214,-0.22,0.124
1484,0.0,-0.001,-0.001,0.0,0.0,0.0,0.207,-0.22,0.124
1485,0.0,-0.002,0.0,0.0,0.0,0.0,0.208,-0.223,0.124
1486,0.0,-0.002,-0.001,0.0,0.0,0.0,0.219,-0.223,0.123
1487,0.0,-0.002,0.0,0.0,0.0,0.0,0.22,-0.211,0.135
1488,0.0,-0.002,0.0,0.0,0.0,0.0,0.21,-0.216,0.132
1489,0.0,-0.002,-0.001,0.0,0.0,0.0,0.219,-0.229,0.129
1490,0.0,-0.001,-0.001,0.0,0.0,0.0,0.216,-0.216,0.127
1491,0.0,-0.001,0.0,0.0,0.0,0.0,0.217,-0.216,0.127
1492,0.0,-0.002,0.0,0.0,0.0,0.0,0.219,-0.223,0.118
1493,0.0,-0.002,0.0,0.0,0.0,0.0,0.211,-0.222,0.123
1494,0.0,-0.001,0.0,0.0,0.0,0.0,0.214,-0.21,0.127
1495,0.0,-0.001,0.0,0.0,0.0,0.0,0.216,-0.219,0.12
1496,0.0,-0.002,-0.001,0.0,0.0,0.0,0.21,-0.216,0.124
1497,0.0,-0.001,0.0,0.0,0.0,0.0,0.217,-0.22,0.132
1498,0.0,-0.001,0.0,0.0,0.0,0.0,0.214,-0.222,0.124
1499,0.0,-0.002,0.0,0.0,0.0,0.0,0.21,-0.222,0.132
1500,0.0,-0.002,0.0,0.0,0.0,0.0,0.22,-0.217,0.13
1501,0.0,-0.002,-0.001,0.0,0.0,0.0,0.205,-0.222,0.123
1502,0.0,-0.002,0.0,0.0,0.0,0.0,0.216,-0.229,0.13
1503,0.0,-0.002,-0.001,0.0,0.0,0.0,0.208,-0.216,0.129
1504,0.0,-0.002,0.0,0.0,0.0,0.0,0.213,-0.22,0.133
1505,0.0,-0.002,0.0,0.0,0.0,0.0,0.213,-0.216,0.13
1506,0.0,-0.002,0.0,0.0,0.0,0.0,0.222,-0.225,0.126
1507,0.0,-0.001,0.0,0.0,0.0,0.0,0.214,-0.22,0.121
1508,0.0,-0.002,0.0,0.0,0.0,0.0,0.211,-0.225,0.126
1509,0.0,-0.002,0.0,0.0,0.0,0.0,0.216,-0.223,0.114
1510,0.0,-0.002,0.0,0.0,0.0,0.0,0.214,-0.222,0.129
1511,0.0,-0.001,0.0,0.0,0.0,0.0,0.216,-0.219,0.126
1512,0.0,-0.001,0.0,0.0,0.0,0.0,0.216,-0.216,0.124
1513,0.0,-0.002,0.0,0.0,0.0,0.0,0.219,-0.219,0.12
1514,0.0,-0.001,0.0,0.0,0.0,0.0,0.219,-0.219,0.12
1515,0.0,-0.001,0.0,0.0,0.0,0.0,0.216,-0.219,0.127
1516,0.0,-0.002,-0.001,0.0,0.0,0.0,0.217,-0.225,0.139
1517,0.0,-0.002,-0.001,0.0,0.0,0.0,0.213,-0.225,0.126
1518,0.0,-0.002,0.0,0.0,0.0,0.0,0.21,-0.214,0.133
1519,0.0,-0.002,-0.001,0.0,0.0,0.0,0.213,-0.223,0.127
1520,0.0,-0.002,0.0,0.0,0.0,0.0,0.216,-0.222,0.112
1521,0.0,-0.002,0.0,0.0,0.0,0.0,0.214,-0.223,0.129
1522,0.0,-0.002,0.0,0.0,0.0,0.0,0.217,-0.213,0.135
1523,0.0,-0.002,-0.001,0.0,0.0,0.0,0.204,-0.22,0.133
1524,0.0,-0.002,0.0,0.0,0.0,0.0,0.202,-0.225,0.136
1525,0.0,-0.001,-0.001,0.0,0.0,0.0,0.211,-0.21,0.123
1526,0.0,-0.002,0.0,0.0,0.0,0.0,0.205,-0.219,0.129
1527,0.0,-0.002,0.0,0.0,0.0,0.0,0.217,-0.223,0.129
1528,0.0,-0.002,0.0,0.0,0.0,0.0,0.211,-0.222,0.127
1529,0.0,-0.002,-0.001,0.0,0.0,0.0,0.211,-0.228,0.127
1530,0.0,-0.002,0.0,0.0,0.0,0.0,0.217,-0.228,0.127
1531,0.0,-0.002,-0.001,0.0,0.0,0.0,0.214,-0.226,0.13
1532,0.0,-0.002,-0.001,0.0,0.0,0.0,0.213,-0.22,0.133
1533,0.0,-0.002,-0.001,0.0,0.0,0.0,0.205,-0.225,0.127
1534,0.0,-0.002,0.0,0.0,0.0,0.0,0.207,-0.225,0.129
1535,0.0,-0.002,0.0,0.0,0.0,0.0,0.216,-0.217,0.129
1536,0.0,-0.001,0.0,0.0,0.0,0.0,0.211,-0.22,0.13
1537,0.0,-0.002,0.0,0.0,0.0,0.0,0.21,-0.213,0.136
1538,0.0,-0.001,0.0,0.0,0.0,0.0,0.208,-0.219,0.123
1539,0.0,-0.001,-0.001,0.0,0.0,0.0,0.217,-0.225,0.129
1540,0.0,-0.002,0.0,0.0,0.0,0.0,0.208,-0.219,0.133
1541,0.0,-0.001,0.0,0.0,0.0,0.0,0.219,-0.225,0.123
1542,0.0,-0.001,-0.001,0.0,0.0,0.0,0.207,-0.213,0.127
1543,0.0,-0.001,0.0,0.0,0.0,0.0,0.205,-0.228,0.124
1544,0.0,-0.002,0.0,0.0,0.0,0.0,0.214,-0.222,0.129
1545,0.0,-0.002,0.0,0.0,0.0,0.0,0.211,-0.211,0.13
1546,0.0,-0.002,0.0,0.0,0.0,0.0,0.21,-0.229,0.135
1547,0.0,-0.002,0.0,0.0,0.0,0.0,0.213,-0.225,0.132
1548,0.0,-0.002,0.0,0.0,0.0,0.0,0.207,-0.228,0.127
1549,0.0,-0.001,0.0,0.0,0.0,0.0,0.214,-0.219,0.126
1550,0.0,-0.001,0.0,0.0,0.0,0.0,0.21,-0.219,0.13
1551,0.0,-0.002,0.0,0.0,0.0,0.0,0.208,-0.219,0.13
1552,0.0,-0.002,0.0,0.0,0.0,0.0,0.216,-0.225,0.129
1553,0.0,-0.002,0.0,0.0,0.0,0.0,0.225,-0.226,0.126
1554,0.0,-0.002,-0.001,0.0,0.0,0.0,0.217,-0.216,0.126
1555,0.0,-0.002,-0.001,0.0,0.0,0.0,0.211,-0.219,0.133
1556,0.0,-0.001,-0.001,0.0,0.0,0.0,0.211,-0.223,0.132
1557,0.0,-0.002,0.0,0.0,0.0,0.0,0.216,-0.222,0.123
1558,0.0,-0.002,0.0,0.0,0.0,0.0,0.216,-0.214,0.129
1559,0.0,-0.002,0.0,0.0,0.0,0.0,0.213,-0.216,0.124
1560,0.0,-0.001,0.0,0.0,0.0,0.0,0.22,-0.22,0.127
1561,0.0,-0.002,0.0,0.0,0.0,0.0,0.216,-0.225,0.132
1562,0.0,-0.002,-0.001,0.0,0.0,0.0,0.22,-0.22,0.118
1563,0.0,-0.002,-0.001,0.0,0.0,0.0,0.216,-0.216,0.117
1564,0.0,-0.002,0.0,0.0,0.0,0.0,0.21,-0.22,0.124
1565,0.0,-0.002,0.0,0.0,0.0,0.0,0.216,-0.211,0.124
1566,0.0,-0.002,0.0,0.0,0.0,0.0,0.211,-0.217,0.138
1567,0.0,-0.002,0.0,0.0,0.0,0.0,0.216,-0.228,0.123
1568,0.0,-0.001,0.0,0.0,0.0,0.0,0.208,-0.231,0.127
1569,0.0,-0.002,-0.001,0.0,0.0,0.0,0.208,-0.219,0.121
1570,0.0,-0.001,0.0,0.0,0.0,0.0,0.211,-0.223,0.13
1571,0.0,-0.001,0.0,0.0,0.0,0.0,0.21,-0.225,0.126
1572,0.0,-0.002,0.0,0.0,0.0,0.0,0.213,-0.219,0.132
1573,0.0,-0.002,-0.001,0.0,0.0,0.0,0.219,-0.213,0.124
1574,0.0,-0.002,0.0,0.0,0.0,0.0,0.222,-0.22,0.124
1575,0.0,-0.002,0.0,0.0,0.0,0.0,0.216,-0.219,0.126
1576,0.0,-0.002,-0.001,0.0,0.0,0.0,0.207,-0.219,0.126
1577,0.0,-0.002,0.0,0.0,0.0,0.0,0.216,-0.226,0.126
1578,0.0,-0.001,-0.001,0.0,0.0,0.0,0.208,-0.219,0.127
1579,0.0,-0.002,-0.001,0.0,0.0,0.0,0.217,-0.223,0.127
1580,0.0,-0.001,-0.001,0.0,0.0,0.0,0.216,-0.226,0.132
1581,0.0,-0.002,-0.001,0.0,0.0,0.0,0.21,-0.216,0.127
1582,0.0,-0.002,-0.001,0.0,0.0,0.0,0.205,-0.22,0.13
1583,0.0,-0.002,0.0,0.0,0.0,0.0,0.222,-0.225,0.129
1584,0.0,-0.002,0.0,0.0,0.0,0.0,0.208,-0.22,0.127
1585,0.0,-0.001,0.0,0.0,0.0,0.0,0.214,-0.223,0.129
1586,0.0,-0.002,-0.001,0.0,0.0,0.0,0.213,-0.231,0.129
1587,0.0,-0.002,0.0,0.0,0.0,0.0,0.214,-0.225,0.138
1588,0.0,-0.001,0.0,0.0,0.0,0.0,0.21,-0.216,0.135
1589,0.0,-0.002,0.0,0.0,0.0,0.0,0.213,-0.222,0.126
1590,0.0,-0.002,0.0,0.0,0.0,0.0,0.207,-0.22,0.123
1591,0.0,-0.001,0.0,0.0,0.0,0.0,0.22,-0.219,0.126
1592,0.0,-0.002,0.0,0.0,0.0,0.0,0.217,-0.217,0.13
1593,0.0,-0.002,0.0,0.0,0.0,0.0,0.211,-0.216,0.124
1594,0.0,-0.001,0.0,0.0,0.0,0.0,0.204,-0.222,0.126
1595,0.0,-0.001,0.0,0.0,0.0,0.0,0.21,-0.213,0.135
1596,0.0,-0.002,0.0,0.0,0.0,0.0,0.22,-0.22,0.127
1597,0.0,-0.002,0.0,0.0,0.0,0.0,0.211,-0.222,0.121
1598,0.0,-0.002,-0.001,0.0,0.0,0.0,0.211,-0.222,0.121
1599,0.0,-0.002,0.0,0.0,0.0,0.0,0.216,-0.228,0.126
1600,0.0,-0.001,0.0,0.0,0.0,0.0,0.213,-0.216,0.132
1601,0.0,-0.002,0.0,0.0,0.0,0.0,0.217,-0.223,0.127
1602,0.0,-0.002,0.0,0.0,0.0,0.0,0.211,-0.222,0.127
1603,0.0,-0.002,0.0,0.0,0.0,0.0,0.22,-0.216,0.132
1604,0.0,-0.001,0.0,0.0,0.0,0.0,0.205,-0.222,0.121
1605,0.0,-0.001,0.0,0.0,0.0,0.0,0.219,-0.22,0.135
1606,0.0,-0.002,-0.001,0.0,0.0,0.0,0.208,-0.222,0.136
1607,0.0,-0.002,0.0,0.0,0.0,0.0,0.213,-0.219,0.126
1608,0.0,-0.002,0.0,0.0,0.0,0.0,0.217,-0.216,0.129
1609,0.0,-0.001,0.0,0.0,0.0,0.0,0.217,-0.222,0.13
1610,0.0,-0.002,0.0,0.0,0.0,0.0,0.207,-0.229,0.13
1611,0.0,-0.002,0.0,0.0,0.0,0.0,0.217,-0.222,0.138
1612,0.0,-0.002,0.0,0.0,0.0,0.0,0.217,-0.216,0.136
1613,0.0,-0.002,-0.001,0.0,0.0,0.0,0.217,-0.223,0.132
1614,0.0,-0.002,-0.001,0.0,0.0,0.0,0.217,-0.223,0.13
1615,0.0,-0.002,0.0,0.0,0.0,0.0,0.21,-0.217,0.129
1616,0.0,-0.002,0.0,0.0,0.0,0.0,0.21,-0.225,0.126
1617,0.0,-0.001,0.0,0.0,0.0,0.0,0.21,-0.217,0.127
1618,0.0,-0.002,0.0,0.0,0.0,0.0,0.225,-0.222,0.136
1619,0.0,-0.002,0.0,0.0,0.0,0.0,0.21,-0.217,0.132
1620,0.0,-0.002,-0.001,0.0,0.0,0.0,0.211,-0.222,0.126
1621,0.0,-0.002,0.0,0.0,0.0,0.0,0.208,-0.22,0.126
1622,0.0,-0.002,0.0,0.0,0.0,0.0,0.219,-0.222,0.136
1623,0.0,-0.002,0.0,0.0,0.0,0.0,0.216,-0.222,0.138
1624,0.0,-0.001,0.0,0.0,0.0,0.0,0.216,-0.222,0.129
1625,0.0,-0.002,0.0,0.0,0.0,0.0,0.208,-0.217,0.132
1626,0.0,-0.001,0.0,0.0,0.0,0.0,0.207,-0.214,0.13
1627,0.0,-0.002,0.0,0.0,0.0,0.0,0.204,-0.216,0.132
1628,0.0,-0.001,0.0,0.0,0.0,0.0,0.205,-0.22,0.13
1629,0.0,-0.001,0.0,0.0,0.0,0.0,0.217,-0.219,0.126
1630,0.0,-0.002,0.0,0.0,0.0,0.0,0.211,-0.211,0.124
1631,0.0,-0.002,0.0,0.0,0.0,0.0,0.22,-0.216,0.132
1632,0.0,-0.002,0.0,0.0,0.0,0.0,0.216,-0.222,0.127
1633,0.0,-0.002,0.0,0.0,0.0,0.0,0.21,-0.222,0.136
1634,0.0,-0.002,0.0,0.0,0.0,0.0,0.217,-0.217,0.133
1635,0.0,-0.002,0.0,0.0,0.0,0.0,0.211,-0.219,0.123
1636,0.0,-0.002,-0.001,0.0,0.0,0.0,0.217,-0.223,0.124
1637,0.0,-0.002,-0.001,0.0,0.0,0.0,0.213,-0.225,0.129
1638,0.0,-0.002,-0.001,0.0,0.0,0.0,0.208,-0.217,0.123
1639,0.0,-0.002,0.0,0.0,0.0,0.0,0.217,-0.216,0.121
1640,0.0,-0.002,0.0,0.0,0.0,0.0,0.219,-0.214,0.12
1641,0.0,-0.002,-0.001,0.0,0.0,0.0,0.202,-0.217,0.126
1642,0.0,-0.002,-0.001,0.0,0.0,0.0,0.219,-0.225,0.132
1643,0.0,-0.002,0.0,0.0,0.0,0.0,0.21,-0.223,0.13
1644,0.0,-0.002,0.0,0.0,0.0,0.0,0.207,-0.22,0.126
1645,0.0,-0.002,0.0,0.0,0.0,0.0,0.214,-0.216,0.129
1646,0.0,-0.002,0.0,0.0,0.0,0.0,0.202,-0.223,0.127
1647,0.0,-0.002,-0.001,0.0,0.0,0.0,0.22,-0.223,0.126
1648,0.0,-0.002,0.0,0.0,0.0,0.0,0.216,-0.214,0.132
1649,0.0,-0.002,0.0,0.0,0.0,0.0,0.21,-0.21,0.133
1650,0.0,-0.002,0.0,0.0,0.0,0.0,0.208,-0.214,0.12
1651,0.0,-0.002,0.0,0.0,0.0,0.0,0.205,-0.223,0.127
1652,0.0,-0.002,0.0,0.0,0.0,0.0,0.213,-0.219,0.127
1653,0.0,-0.002,0.0,0.0,0.0,0.0,0.214,-0.217,0.13
1654,0.0,-0.002,0.0,0.0,0.0,0.0,0.214,-0.223,0.127
1655,0.0,-0.002,0.0,0.0,0.0,0.0,0.217,-0.217,0.127
1656,0.0,-0.001,0.0,0.0,0.0,0.0,0.199,-0.222,0.133
1657,0.0,-0.001,0.0,0.0,0.0,0.0,0.21,-0.21,0.121
1658,0.0,-0.002,0.0,0.0,0.0,0.0,0.21,-0.214,0.127
1659,0.0,-0.002,-0.001,0.0,0.0,0.0,0.205,-0.222,0.135
1660,0.0,-0.002,-0.001,0.0,0.0,0.0,0.205,-0.219,0.132
1661,0.0,-0.002,0.0,0.0,0.0,0.0,0.205,-0.219,0.126
1662,0.0,-0.002,0.0,0.0,0.0,0.0,0.223,-0.222,0.133
1663,0.0,-0.002,-0.001,0.0,0.0,0.0,0.211,-0.217,0.133
1664,0.0,-0.002,-0.001,0.0,0.0,0.0,0.213,-0.217,0.127
1665,0.0,-0.002,0.0,0.0,0.0,0.0,0.21,-0.229,0.124
1666,0.0,-0.002,0.0,0.0,0.0,0.0,0.207,-0.214,0.138
1667,0.0,-0.002,0.0,0.0,0.0,0.0,0.196,-0.223,0.13
1668,0.0,-0.002,0.0,0.0,0.0,0.0,0.207,-0.211,0.129
1669,0.0,-0.002,0.0,0.0,0.0,0.0,0.214,-0.216,0.133
1670,0.0,-0.002,-0.001,0.0,0.0,0.0,0.21,-0.228,0.129
1671,0.0,-0.002,0.0,0.0,0.0,0.0,0.208,-0.223,0.13
1672,0.0,-0.002,-0.001,0.0,0.0,0.0,0.207,-0.225,0.123
1673,0.0,-0.002,0.0,0.0,0.0,0.0,0.213,-0.222,0.135
1674,0.0,-0.002,0.0,0.0,0.0,0.0,0.207,-0.222,0.129
1675,0.0,-0.002,0.0,0.0,0.0,0.0,0.213,-0.228,0.13
1676,0.0,-0.002,0.0,0.0,0.0,0.0,0.204,-0.213,0.132
1677,0.0,-0.002,0.0,0.0,0.0,0.0,0.213,-0.225,0.127
1678,0.0,-0.002,0.0,0.0,0.0,0.0,0.214,-0.219,0.144
1679,0.0,-0.002,-0.001,0.0,0.0,0.0,0.214,-0.223,0.139
1680,0.0,-0.002,0.0,0.0,0.0,0.0,0.205,-0.225,0.13
1681,0.0,-0.002,0.0,0.0,0.0,0.0,0.213,-0.22,0.13
1682,0.0,-0.002,0.0,0.0,0.0,0.0,0.208,-0.222,0.126
1683,0.0,-0.002,0.0,0.0,0.0,0.0,0.208,-0.222,0.126
1684,0.0,-0.002,0.0,0.0,0.0,0.0,0.211,-0.21,0.126
1685,0.0,-0.002,0.0,0.0,0.0,0.0,0.207,-0.219,0.124
1686,0.0,-0.001,0.0,0.0,0.0,0.0,0.204,-0.229,0.135
1687,0.0,-0.002,0.0,0.0,0.0,0.0,0.204,-0.222,0.13
1688,0.0,-0.002,0.0,0.0,0.0,0.0,0.205,-0.211,0.139
1689,0.0,-0.001,0.0,0.0,0.0,0.0,0.213,-0.216,0.12
1690,0.0,-0.002,0.0,0.0,0.0,0.0,0.213,-0.223,0.133
1691,0.0,-0.002,0.0,0.0,0.0,0.0,0.205,-0.222,0.133
1692,0.0,-0.002,0.0,0.0,0.0,0.0,0.214,-0.213,0.127
1693,0.0,0.0,0.0,0.0,0.0,0.0,0.21,-0.217,0.135
1694,0.0,-0.002,0.0,0.0,0.0,0.0,0.214,-0.223,0.13
1695,0.0,-0.002,0.0,0.0,0.0,0.0,0.205,-0.228,0.129
1696,0.0,-0.002,-0.001,0.0,0.0,0.0,0.213,-0.225,0.138
1697,0.0,-0.002,0.0,0.0,0.0,0.0,0.202,-0.217,0.126
1698,0.0,-0.001,0.0,0.0,0.0,0.0,0.211,-0.223,0.124
1699,0.0,-0.001,-0.001,0.0,0.0,0.0,0.211,-0.225,0.135
1700,0.0,-0.002,0.0,0.0,0.0,0.0,0.208,-0.217,0.123
1701,0.0,-0.002,-0.001,0.0,0.0,0.0,0.216,-0.219,0.135
1702,0.0,-0.001,0.0,0.0,0.0,0.0,0.21,-0.225,0.132
1703,0.0,-0.002,0.0,0.0,0.0,0.0,0.217,-0.213,0.132
1704,0.0,-0.001,-0.001,0.0,0.0,0.0,0.214,-0.225,0.136
1705,0.0,-0.001,-0.001,0.0,0.0,0.0,0.208,-0.211,0.121
1706,0.0,-0.001,-0.001,0.0,0.0,0.0,0.201,-0.216,0.13
1707,0.0,-0.002,0.0,0.0,0.0,0.0,0.211,-0.216,0.13
1708,0.0,-0.002,0.0,0.0,0.0,0.0,0.207,-0.22,0.132
1709,0.0,-0.002,0.0,0.0,0.0,0.0,0.211,-0.232,0.132
1710,0.0,-0.002,0.0,0.0,0.0,0.0,0.205,-0.223,0.129
1711,0.0,-0.002,-0.001,0.0,0.0,0.0,0.211,-0.214,0.13
1712,0.0,-0.001,-0.001,0.0,0.0,0.0,0.204,-0.222,0.13
1713,0.0,-0.001,-0.001,0.0,0.0,0.0,0.214,-0.21,0.126
1714,0.0,-0.001,-0.001,0.0,0.0,0.0,0.21,-0.229,0.123
1715,0.0,-0.002,0.0,0.0,0.0,0.0,0.214,-0.214,0.133
1716,0.0,-0.002,0.0,0.0,0.0,0.0,0.21,-0.223,0.13
1717,0.0,-0.002,-0.001,0.0,0.0,0.0,0.219,-0.223,0.141
1718,0.0,-0.002,0.0,0.0,0.0,0.0,0.211,-0.222,0.13
1719,0.0,-0.001,0.0,0.0,0.0,0.0,0.216,-0.214,0.127
1720,0.0,-0.002,0.0,0.0,0.0,0.0,0.208,-0.217,0.135
1721,0.0,-0.002,-0.001,0.0,0.0,0.0,0.22,-0.223,0.127
1722,0.0,-0.002,0.0,0.0,0.0,0.0,0.211,-0.226,0.129
1723,0.0,-0.002,0.0,0.0,0.0,0.0,0.211,-0.214,0.127
1724,0.0,-0.002,-0.001,0.0,0.0,0.0,0.201,-0.226,0.126
1725,0.0,-0.002,-0.001,0.0,0.0,0.0,0.21,-0.217,0.13
1726,0.0,-0.002,0.0,0.0,0.0,0.0,0.214,-0.222,0.138
1727,0.0,-0.002,-0.001,0.0,0.0,0.0,0.213,-0.223,0.13
1728,0.0,-0.001,-0.001,0.0,0.0,0.0,0.22,-0.213,0.129
1729,0.0,-0.002,0.0,0.0,0.0,0.0,0.211,-0.22,0.127
1730,0.0,-0.002,0.0,0.0,0.0,0.0,0.211,-0.217,0.127
1731,0.0,-0.001,0.0,0.0,0.0,0.0,0.223,-0.219,0.133
1732,0.0,-0.002,-0.001,0.0,0.0,0.0,0.208,-0.219,0.13
1733,0.0,-0.002,-0.001,0.0,0.0,0.0,0.217,-0.219,0.126
1734,0.0,-0.002,0.0,0.0,0.0,0.0,0.214,-0.222,0.127
1735,0.0,-0.002,0.0,0.0,0.0,0.0,0.21,-0.219,0.13
1736,0.0,-0.002,0.0,0.0,0.0,0.0,0.219,-0.222,0.135
1737,0.0,-0.002,0.0,0.0,0.0,0.0,0.202,-0.226,0.13
1738,0.0,-0.002,-0.001,0.0,0.0,0.0,0.216,-0.219,0.127
1739,0.0,-0.002,-0.001,0.0,0.0,0.0,0.21,-0.22,0.132
1740,0.0,-0.002,0.0,0.0,0.0,0.0,0.214,-0.225,0.133
1741,0.0,-0.002,0.0,0.0,0.0,0.0,0.222,-0.225,0.135
1742,0.0,-0.002,-0.001,0.0,0.0,0.0,0.202,-0.226,0.13
1743,0.0,-0.002,-0.001,0.0,0.0,0.0,0.22,-0.217,0.136
1744,0.0,-0.001,0.0,0.0,0.0,0.0,0.217,-0.225,0.127
1745,0.0,-0.001,-0.001,0.0,0.0,0.0,0.213,-0.228,0.136
1746,0.0,-0.001,-0.001,0.0,0.0,0.0,0.214,-0.217,0.138
1747,0.0,-0.001,0.0,0.0,0.0,0.0,0.207,-0.22,0.118
1748,0.0,-0.002,0.0,0.0,0.0,0.0,0.21,-0.22,0.13
1749,0.0,-0.002,0.0,0.0,0.0,0.0,0.217,-0.228,0.127
1750,0.0,-0.002,-0.001,0.0,0.0,0.0,0.21,-0.214,0.135
1751,0.0,-0.002,0.0,0.0,0.0,0.0,0.204,-0.222,0.132
1752,0.0,-0.002,0.0,0.0,0.0,0.0,0.226,-0.217,0.129
1753,0.0,-0.001,-0.001,0.0,0.0,0.0,0.213,-0.229,0.133
1754,0.0,-0.001,0.0,0.0,0.0,0.0,0.22,-0.225,0.13
1755,0.0,-0.001,0.0,0.0,0.0,0.0,0.213,-0.225,0.124
1756,0.0,-0.002,0.0,0.0,0.0,0.0,0.217,-0.226,0.126
1757,0.0,-0.001,0.0,0.0,0.0,0.0,0.213,-0.226,0.118
1758,0.0,-0.002,0.0,0.0,0.0,0.0,0.213,-0.225,0.129
1759,0.0,-0.002,0.0,0.0,0.0,0.0,0.205,-0.228,0.138
1760,0.0,-0.001,0.0,0.0,0.0,0.0,0.217,-0.217,0.126
1761,0.0,-0.001,-0.001,0.0,0.0,0.0,0.207,-0.22,0.136
1762,0.0,-0.002,-0.001,0.0,0.0,0.0,0.214,-0.226,0.132
1763,0.0,-0.002,-0.001,0.0,0.0,0.0,0.213,-0.217,0.126
1764,0.0,-0.002,0.0,0.0,0.0,0.0,0.21,-0.22,0.129
1765,0.0,-0.002,-0.001,0.0,0.0,0.0,0.213,-0.217,0.129
1766,0.0,-0.002,-0.001,0.0,0.0,0.0,0.219,-0.22,0.139
1767,0.0,-0.002,-0.001,0.0,0.0,0.0,0.219,-0.22,0.139
1768,0.0,-0.001,-0.001,0.0,0.0,0.0,0.216,-0.213,0.124
1769,0.0,-0.002,-0.001,0.0,0.0,0.0,0.216,-0.213,0.124
1770,0.0,-0.002,0.0,0.0,0.0,0.0,0.205,-0.222,0.139
1771,0.0,-0.002,0.0,0.0,0.0,0.0,0.205,-0.222,0.139
1772,0.0,-0.002,0.0,0.0,0.0,0.0,0.217,-0.222,0.123
1773,0.0,-0.002,0.0,0.0,0.0,0.0,0.217,-0.222,0.123
1774,0.0,-0.001,0.0,0.0,0.0,0.0,0.22,-0.21,0.13
1775,0.0,-0.002,0.0,0.0,0.0,0.0,0.217,-0.229,0.123
1776,0.0,-0.002,-0.001,0.0,0.0,0.0,0.21,-0.223,0.132
1777,0.0,-0.002,0.0,0.0,0.0,0.0,0.211,-0.214,0.129
1778,0.0,-0.001,0.0,0.0,0.0,0.0,0.211,-0.21,0.139
1779,0.0,-0.002,0.0,0.0,0.0,0.0,0.211,-0.21,0.139
1780,0.0,-0.002,0.0,0.0,0.0,0.0,0.21,-0.225,0.124
1781,0.0,-0.002,-0.001,0.0,0.0,0.0,0.207,-0.217,0.136
1782,0.0,-0.001,0.0,0.0,0.0,0.0,0.207,-0.217,0.136
1783,0.0,-0.001,0.0,0.0,0.0,0.0,0.205,-0.225,0.132
1784,0.0,-0.002,0.0,0.0,0.0,0.0,0.211,-0.216,0.129
1785,0.0,-0.002,0.0,0.0,0.0,0.0,0.213,-0.226,0.13
1786,0.0,-0.002,-0.001,0.0,0.0,0.0,0.208,-0.234,0.124
1787,0.0,-0.001,-0.001,0.0,0.0,0.0,0.214,-0.226,0.124
1788,0.0,-0.002,0.0,0.0,0.0,0.0,0.211,-0.216,0.132
1789,0.0,-0.001,-0.001,0.0,0.0,0.0,0.216,-0.223,0.126
1790,0.0,-0.002,0.0,0.0,0.0,0.0,0.213,-0.22,0.126
1791,0.0,-0.002,0.0,0.0,0.0,0.0,0.213,-0.22,0.126
1792,0.0,-0.002,0.0,0.0,0.0,0.0,0.217,-0.213,0.127
1793,0.0,0.0,0.0,0.0,0.0,0.0,0.21,-0.213,0.132
1794,0.0,-0.002,-0.001,0.0,0.0,0.0,0.21,-0.213,0.132
1795,0.0,-0.002,-0.001,0.0,0.0,0.0,0.213,-0.225,0.124
1796,0.0,-0.002,0.0,0.0,0.0,0.0,0.21,-0.217,0.132
1797,0.0,-0.001,0.0,0.0,0.0,0.0,0.208,-0.222,0.129
1798,0.0,-0.001,0.0,0.0,0.0,0.0,0.208,-0.22,0.127
1799,0.0,-0.002,0.0,0.0,0.0,0.0,0.21,-0.219,0.129
1800,0.0,-0.002,0.0,0.0,0.0,0.0,0.205,-0.225,0.129
1801,0.0,-0.002,-0.001,0.0,0.0,0.0,0.207,-0.22,0.136
1802,0.0,-0.002,-0.001,0.0,0.0,0.0,0.211,-0.229,0.132
1803,0.0,-0.002,0.0,0.0,0.0,0.0,0.204,-0.22,0.127
1804,0.0,-0.001,-0.001,0.0,0.0,0.0,0.216,-0.216,0.129
1805,0.0,-0.001,0.0,0.0,0.0,0.0,0.217,-0.22,0.133
1806,0.0,-0.002,0.0,0.0,0.0,0.0,0.204,-0.22,0.127
1807,0.0,-0.002,0.0,0.0,0.0,0.0,0.208,-0.217,0.12
1808,0.0,-0.002,0.0,0.0,0.0,0.0,0.204,-0.217,0.129
1809,0.0,-0.001,0.0,0.0,0.0,0.0,0.216,-0.225,0.13
1810,0.0,-0.002,-0.001,0.0,0.0,0.0,0.217,-0.219,0.135
1811,0.0,-0.002,0.0,0.0,0.0,0.0,0.213,-0.217,0.129
1812,0.0,-0.002,0.0,0.0,0.0,0.0,0.207,-0.219,0.136
1813,0.0,-0.002,0.0,0.0,0.0,0.0,0.202,-0.219,0.132
1814,0.0,-0.002,0.0,0.0,0.0,0.0,0.21,-0.232,0.129
1815,0.0,-0.002,-0.001,0.0,0.0,0.0,0.21,-0.225,0.13
1816,0.0,-0.002,-0.001,0.0,0.0,0.0,0.205,-0.219,0.129
1817,0.0,-0.002,-0.001,0.0,0.0,0.0,0.213,-0.226,0.123
1818,0.0,-0.002,0.0,0.0,0.0,0.0,0.208,-0.223,0.123
1819,0.0,-0.002,0.0,0.0,0.0,0.0,0.21,-0.225,0.127
1820,0.0,-0.002,-0.001,0.0,0.0,0.0,0.216,-0.223,0.123
1821,0.0,-0.001,-0.001,0.0,0.0,0.0,0.207,-0.223,0.136
1822,0.0,-0.001,0.0,0.0,0.0,0.0,0.216,-0.229,0.127
1823,0.0,-0.001,-0.001,0.0,0.0,0.0,0.21,-0.214,0.136
1824,0.0,-0.001,0.0,0.0,0.0,0.0,0.213,-0.22,0.132
1825,0.0,-0.002,0.0,0.0,0.0,0.0,0.208,-0.213,0.13
1826,0.0,-0.002,0.0,0.0,0.0,0.0,0.21,-0.216,0.126
1827,0.0,-0.002,-0.001,0.0,0.0,0.0,0.214,-0.226,0.129
1828,0.0,-0.002,0.0,0.0,0.0,0.0,0.205,-0.222,0.126
1829,0.0,-0.002,0.0,0.0,0.0,0.0,0.208,-0.222,0.127
1830,0.0,-0.002,0.0,0.0,0.0,0.0,0.202,-0.216,0.144
1831,0.0,-0.001,-0.001,0.0,0.0,0.0,0.213,-0.223,0.136
1832,0.0,-0.002,-0.001,0.0,0.0,0.0,0.21,-0.216,0.135
1833,0.0,-0.002,-0.001,0.0,0.0,0.0,0.217,-0.219,0.132
1834,0.0,-0.002,-0.001,0.0,0.0,0.0,0.214,-0.226,0.127
1835,0.0,-0.001,0.0,0.0,0.0,0.0,0.213,-0.22,0.13
1836,0.0,-0.001,-0.001,0.0,0.0,0.0,0.214,-0.214,0.133
1837,0.0,-0.001,0.0,0.0,0.0,0.0,0.208,-0.213,0.129
1838,0.0,-0.001,0.0,0.0,0.0,0.0,0.216,-0.22,0.132
1839,0.0,-0.001,0.0,0.0,0.0,0.0,0.21,-0.216,0.126
1840,0.0,-0.001,0.0,0.0,0.0,0.0,0.216,-0.219,0.127
1841,0.0,-0.002,0.0,0.0,0.0,0.0,0.211,-0.22,0.127
1842,0.0,-0.002,-0.001,0.0,0.0,0.0,0.222,-0.22,0.121
1843,0.0,-0.002,0.0,0.0,0.0,0.0,0.211,-0.228,0.129
1844,0.0,-0.002,0.0,0.0,0.0,0.0,0.208,-0.225,0.133
1845,0.0,-0.002,0.0,0.0,0.0,0.0,0.204,-0.22,0.142
1846,0.0,-0.001,-0.001,0.0,0.0,0.0,0.217,-0.216,0.129
1847,0.0,-0.002,0.0,0.0,0.0,0.0,0.211,-0.219,0.135
1848,0.0,-0.002,-0.001,0.0,0.0,0.0,0.211,-0.229,0.12
1849,0.0,-0.002,-0.001,0.0,0.0,0.0,0.214,-0.214,0.132
1850,0.0,-0.002,-0.001,0.0,0.0,0.0,0.208,-0.222,0.132
1851,0.0,-0.001,-0.001,0.0,0.0,0.0,0.207,-0.22,0.118
1852,0.0,-0.002,0.0,0.0,0.0,0.0,0.207,-0.22,0.118
1853,0.0,-0.001,0.0,0.0,0.0,0.0,0.205,-0.219,0.133
1854,0.0,-0.001,0.0,0.0,0.0,0.0,0.21,-0.223,0.129
1855,0.0,-0.002,0.0,0.0,0.0,0.0,0.213,-0.216,0.127
1856,0.0,-0.002,0.0,0.0,0.0,0.0,0.207,-0.22,0.126
1857,0.0,-0.002,0.0,0.0,0.0,0.0,0.207,-0.22,0.126
1858,0.0,-0.001,0.0,0.0,0.0,0.0,0.21,-0.22,0.136
1859,0.0,-0.001,0.0,0.0,0.0,0.0,0.205,-0.226,0.136
1860,0.0,-0.002,-0.001,0.0,0.0,0.0,0.205,-0.226,0.136
1861,0.0,-0.001,-0.001,0.0,0.0,0.0,0.216,-0.226,0.126
1862,0.0,-0.002,0.0,0.0,0.0,0.0,0.207,-0.226,0.132
1863,0.0,-0.002,0.0,0.0,0.0,0.0,0.21,-0.22,0.126
1864,0.0,-0.002,0.0,0.0,0.0,0.0,0.211,-0.222,0.135
1865,0.0,-0.002,0.0,0.0,0.0,0.0,0.205,-0.219,0.129
1866,0.0,-0.002,-0.001,0.0,0.0,0.0,0.217,-0.22,0.139
1867,0.0,-0.001,0.0,0.0,0.0,0.0,0.208,-0.217,0.136
1868,0.0,-0.002,-0.001,0.0,0.0,0.0,0.208,-0.217,0.136
1869,0.0,-0.002,0.0,0.0,0.0,0.0,0.207,-0.222,0.124
1870,0.0,-0.001,0.0,0.0,0.0,0.0,0.204,-0.217,0.135
1871,0.0,-0.002,0.0,0.0,0.0,0.0,0.204,-0.217,0.135
1872,0.0,-0.002,0.0,0.0,0.0,0.0,0.208,-0.226,0.127
1873,0.0,-0.002,-0.001,0.0,0.0,0.0,0.208,-0.226,0.127
1874,0.0,-0.002,0.0,0.0,0.0,0.0,0.207,-0.216,0.13
1875,0.0,-0.002,0.0,0.0,0.0,0.0,0.202,-0.216,0.126
1876,0.0,-0.002,0.0,0.0,0.0,0.0,0.207,-0.22,0.126
1877,0.0,-0.002,0.0,0.0,0.0,0.0,0.207,-0.222,0.13
1878,0.0,-0.002,0.0,0.0,0.0,0.0,0.214,-0.213,0.13
1879,0.0,-0.002,0.0,0.0,0.0,0.0,0.202,-0.226,0.136
1880,0.0,-0.002,0.0,0.0,0.0,0.0,0.202,-0.226,0.136
1881,0.0,-0.002,0.0,0.0,0.0,0.0,0.211,-0.219,0.127
1882,0.0,0.0,0.0,0.0,0.0,0.0,0.205,-0.22,0.139
1883,0.0,-0.001,0.0,0.0,0.0,0.0,0.205,-0.22,0.139
1884,0.0,-0.002,0.0,0.0,0.0,0.0,0.211,-0.226,0.123
1885,0.0,-0.001,0.0,0.0,0.0,0.0,0.223,-0.22,0.129
1886,0.0,-0.002,-0.001,0.0,0.0,0.0,0.216,-0.225,0.126
1887,0.0,-0.001,0.0,0.0,0.0,0.0,0.208,-0.222,0.135
1888,0.0,-0.001,0.0,0.0,0.0,0.0,0.208,-0.216,0.123
1889,0.0,-0.002,0.0,0.0,0.0,0.0,0.208,-0.222,0.124
1890,0.0,-0.002,-0.001,0.0,0.0,0.0,0.205,-0.229,0.132
1891,0.0,-0.002,0.0,0.0,0.0,0.0,0.213,-0.226,0.129
1892,0.0,-0.002,0.0,0.0,0.0,0.0,0.201,-0.219,0.132
1893,0.0,-0.002,0.0,0.0,0.0,0.0,0.213,-0.217,0.132
1894,0.0,-0.002,0.0,0.0,0.0,0.0,0.207,-0.222,0.126
1895,0.0,-0.002,-0.001,0.0,0.0,0.0,0.217,-0.222,0.129
1896,0.0,-0.002,-0.001,0.0,0.0,0.0,0.211,-0.223,0.123
1897,0.0,-0.002,0.0,0.0,0.0,0.0,0.208,-0.219,0.13
1898,0.0,-0.002,0.0,0.0,0.0,0.0,0.21,-0.229,0.124
1899,0.0,-0.002,0.0,0.0,0.0,0.0,0.211,-0.216,0.133
1900,0.0,-0.001,-0.001,0.0,0.0,0.0,0.217,-0.214,0.121
1901,0.0,-0.001,0.0,0.0,0.0,0.0,0.214,-0.222,0.132
1902,0.0,-0.002,0.0,0.0,0.0,0.0,0.213,-0.211,0.127
1903,0.0,-0.002,0.0,0.0,0.0,0.0,0.214,-0.219,0.127
1904,0.0,-0.002,0.0,0.0,0.0,0.0,0.21,-0.222,0.129
1905,0.0,-0.002,0.0,0.0,0.0,0.0,0.21,-0.213,0.121
1906,0.0,-0.002,-0.001,0.0,0.0,0.0,0.21,-0.229,0.127
1907,0.0,-0.002,0.0,0.0,0.0,0.0,0.208,-0.22,0.141
1908,0.0,-0.002,0.0,0.0,0.0,0.0,0.214,-0.213,0.126
1909,0.0,-0.001,0.0,0.0,0.0,0.0,0.214,-0.229,0.133
1910,0.0,-0.002,-0.001,0.0,0.0,0.0,0.211,-0.222,0.13
1911,0.0,-0.002,0.0,0.0,0.0,0.0,0.208,-0.223,0.124
1912,0.0,-0.002,-0.001,0.0,0.0,0.0,0.213,-0.216,0.132
1913,0.0,-0.002,0.0,0.0,0.0,0.0,0.207,-0.222,0.129
1914,0.0,-0.002,0.0,0.0,0.0,0.0,0.205,-0.22,0.13
1915,0.0,-0.002,0.0,0.0,0.0,0.0,0.213,-0.216,0.117
1916,0.0,-0.002,0.0,0.0,0.0,0.0,0.208,-0.223,0.138
1917,0.0,-0.002,0.0,0.0,0.0,0.0,0.213,-0.226,0.123
1918,0.0,-0.002,-0.001,0.0,0.0,0.0,0.204,-0.216,0.121
1919,0.0,-0.001,0.0,0.0,0.0,0.0,0.21,-0.235,0.126
1920,0.0,-0.001,0.0,0.0,0.0,0.0,0.216,-0.216,0.117
1921,0.0,-0.002,0.0,0.0,0.0,0.0,0.213,-0.222,0.126
1922,0.0,-0.001,0.0,0.0,0.0,0.0,0.211,-0.226,0.124
1923,0.0,-0.002,-0.001,0.0,0.0,0.0,0.213,-0.22,0.124
1924,0.0,-0.001,0.0,0.0,0.0,0.0,0.211,-0.219,0.139
1925,0.0,-0.001,0.0,0.0,0.0,0.0,0.211,-0.219,0.127
1926,0.0,-0.002,-0.001,0.0,0.0,0.0,0.21,-0.223,0.127
1927,0.0,-0.001,0.0,0.0,0.0,0.0,0.213,-0.228,0.141
1928,0.0,-0.001,0.0,0.0,0.0,0.0,0.213,-0.22,0.126
1929,0.0,-0.002,-0.001,0.0,0.0,0.0,0.219,-0.225,0.126
1930,0.0,-0.002,0.0,0.0,0.0,0.0,0.207,-0.22,0.132
1931,0.0,-0.002,0.0,0.0,0.0,0.0,0.204,-0.223,0.127
1932,0.0,-0.001,0.0,0.0,0.0,0.0,0.205,-0.222,0.126
1933,0.0,-0.002,-0.001,0.0,0.0,0.0,0.211,-0.228,0.129
1934,0.0,-0.001,0.0,0.0,0.0,0.0,0.202,-0.214,0.129
1935,0.0,-0.002,-0.001,0.0,0.0,0.0,0.207,-0.223,0.123
1936,0.0,-0.002,0.0,0.0,0.0,0.0,0.207,-0.223,0.123
1937,0.0,-0.002,0.0,0.0,0.0,0.0,0.22,-0.226,0.123
1938,0.0,-0.001,0.0,0.0,0.0,0.0,0.21,-0.214,0.132
1939,0.0,-0.001,0.0,0.0,0.0,0.0,0.21,-0.214,0.132
1940,0.0,-0.002,0.0,0.0,0.0,0.0,0.216,-0.222,0.129
1941,0.0,-0.002,-0.001,0.0,0.0,0.0,0.213,-0.213,0.124
1942,0.0,-0.002,0.0,0.0,0.0,0.0,0.22,-0.214,0.124
1943,0.0,-0.001,0.0,0.0,0.0,0.0,0.217,-0.223,0.127
1944,0.0,-0.002,0.0,0.0,0.0,0.0,0.205,-0.222,0.124
1945,0.0,-0.002,-0.001,0.0,0.0,0.0,0.214,-0.219,0.121
1946,0.0,-0.002,0.0,0.0,0.0,0.0,0.211,-0.219,0.127
1947,0.0,-0.002,0.0,0.0,0.0,0.0,0.211,-0.229,0.132
1948,0.0,-0.002,-0.001,0.0,0.0,0.0,0.216,-0.229,0.124
1949,0.0,-0.001,0.0,0.0,0.0,0.0,0.21,-0.229,0.132
1950,0.0,-0.001,0.0,0.0,0.0,0.0,0.21,-0.229,0.132
1951,0.0,-0.002,0.0,0.0,0.0,0.0,0.214,-0.222,0.13
1952,0.0,-0.002,0.0,0.0,0.0,0.0,0.219,-0.21,0.135
1953,0.0,-0.001,0.0,0.0,0.0,0.0,0.214,-0.222,0.139
1954,0.0,-0.002,0.0,0.0,0.0,0.0,0.216,-0.222,0.133
1955,0.0,-0.002,0.0,0.0,0.0,0.0,0.216,-0.222,0.133
1956,0.0,-0.002,0.0,0.0,0.0,0.0,0.213,-0.216,0.127
1957,0.0,-0.001,0.0,0.0,0.0,0.0,0.207,-0.223,0.129
1958,0.0,-0.002,0.0,0.0,0.0,0.0,0.216,-0.216,0.124
1959,0.0,-0.002,0.0,0.0,0.0,0.0,0.208,-0.22,0.118
1960,0.0,-0.002,0.0,0.0,0.0,0.0,0.22,-0.228,0.136
1961,0.0,-0.002,0.0,0.0,0.0,0.0,0.214,-0.219,0.126
1962,0.0,-0.002,0.0,0.0,0.0,0.0,0.214,-0.219,0.126
1963,0.0,-0.002,-0.001,0.0,0.0,0.0,0.211,-0.217,0.13
1964,0.0,-0.002,0.0,0.0,0.0,0.0,0.217,-0.22,0.126
1965,0.0,-0.002,0.0,0.0,0.0,0.0,0.219,-0.219,0.129
1966,0.0,-0.002,0.0,0.0,0.0,0.0,0.202,-0.216,0.118
1967,0.0,-0.001,-0.001,0.0,0.0,0.0,0.219,-0.222,0.124
1968,0.0,-0.001,0.0,0.0,0.0,0.0,0.222,-0.222,0.121
1969,0.0,-0.002,0.0,0.0,0.0,0.0,0.204,-0.211,0.127
1970,0.0,-0.002,0.0,0.0,0.0,0.0,0.211,-0.22,0.127
1971,0.0,-0.002,0.0,0.0,0.0,0.0,0.217,-0.222,0.126
1972,0.0,-0.002,0.0,0.0,0.0,0.0,0.21,-0.234,0.132
1973,0.0,-0.002,0.0,0.0,0.0,0.0,0.21,-0.234,0.132
1974,0.0,-0.002,-0.001,0.0,0.0,0.0,0.214,-0.223,0.133
1975,0.0,-0.001,0.0,0.0,0.0,0.0,0.208,-0.216,0.127
1976,0.0,-0.001,0.0,0.0,0.0,0.0,0.216,-0.225,0.133
1977,0.0,-0.001,0.0,0.0,0.0,0.0,0.216,-0.22,0.132
1978,0.0,-0.001,0.0,0.0,0.0,0.0,0.219,-0.229,0.129
1979,0.0,-0.001,0.0,0.0,0.0,0.0,0.208,-0.222,0.124
1980,0.0,-0.002,0.0,0.0,0.0,0.0,0.216,-0.229,0.132
1981,0.0,-0.002,0.0,0.0,0.0,0.0,0.213,-0.216,0.132
1982,0.0,-0.002,-0.001,0.0,0.0,0.0,0.211,-0.22,0.133
1983,0.0,-0.002,-0.001,0.0,0.0,0.0,0.208,-0.216,0.129
1984,0.0,-0.002,0.0,0.0,0.0,0.0,0.213,-0.223,0.123
1985,0.0,-0.002,0.0,0.0,0.0,0.0,0.205,-0.223,0.12
1986,0.0,-0.002,0.0,0.0,0.0,0.0,0.207,-0.219,0.124
1987,0.0,-0.002,0.0,0.0,0.0,0.0,0.208,-0.222,0.13
1988,0.0,-0.002,0.0,0.0,0.0,0.0,0.213,-0.214,0.127
1989,0.0,-0.002,0.0,0.0,0.0,0.0,0.207,-0.214,0.121
1990,0.0,-0.002,0.0,0.0,0.0,0.0,0.214,-0.22,0.12
1991,0.0,-0.002,-0.001,0.0,0.0,0.0,0.201,-0.22,0.129
1992,0.0,-0.002,0.0,0.0,0.0,0.0,0.213,-0.22,0.141
1993,0.0,-0.002,0.0,0.0,0.0,0.0,0.208,-0.216,0.124
1994,0.0,-0.002,0.0,0.0,0.0,0.0,0.208,-0.22,0.135
1995,0.0,-0.002,0.0,0.0,0.0,0.0,0.202,-0.211,0.135
1996,0.0,-0.002,0.0,0.0,0.0,0.0,0.211,-0.22,0.132
1997,0.0,-0.001,0.0,0.0,0.0,0.0,0.205,-0.216,0.132
1998,0.0,-0.001,0.0,0.0,0.0,0.0,0.21,-0.222,0.123
1999,0.0,-0.002,0.0,0.0,0.0,0.0,0.205,-0.226,0.124
2000,0.0,-0.002,0.0,0.0,0.0,0.0,0.213,-0.217,0.124
2001,0.0,-0.002,-0.001,0.0,0.0,0.0,0.202,-0.22,0.127
2002,0.0,-0.001,-0.001,0.0,0.0,0.0,0.21,-0.217,0.12
2003,0.0,-0.001,0.0,0.0,0.0,0.0,0.205,-0.228,0.124
2004,0.0,-0.002,0.0,0.0,0.0,0.0,0.213,-0.226,0.12
2005,0.0,-0.002,0.0,0.0,0.0,0.0,0.201,-0.22,0.133
2006,0.0,-0.002,0.0,0.0,0.0,0.0,0.207,-0.217,0.133
2007,0.0,-0.002,0.0,0.0,0.0,0.0,0.211,-0.219,0.127
2008,0.0,-0.002,-0.001,0.0,0.0,0.0,0.208,-0.217,0.127
2009,0.0,-0.002,0.0,0.0,0.0,0.0,0.208,-0.228,0.133
2010,0.0,-0.002,0.0,0.0,0.0,0.0,0.222,-0.231,0.117
2011,0.0,-0.001,-0.001,0.0,0.0,0.0,0.213,-0.214,0.136
2012,0.0,-0.002,-0.001,0.0,0.0,0.0,0.213,-0.217,0.12
2013,0.0,-0.002,0.0,0.0,0.0,0.0,0.21,-0.226,0.126
2014,0.0,-0.002,-0.001,0.0,0.0,0.0,0.217,-0.217,0.139
2015,0.0,-0.002,0.0,0.0,0.0,0.0,0.214,-0.229,0.129
2016,0.0,-0.002,0.0,0.0,0.0,0.0,0.211,-0.225,0.133
2017,0.0,-0.001,-0.001,0.0,0.0,0.0,0.214,-0.214,0.13
2018,0.0,-0.002,0.0,0.0,0.0,0.0,0.214,-0.214,0.13
2019,0.0,-0.002,0.0,0.0,0.0,0.0,0.214,-0.219,0.132
2020,0.0,-0.002,0.0,0.0,0.0,0.0,0.214,-0.228,0.132
2021,0.0,-0.001,0.0,0.0,0.0,0.0,0.216,-0.226,0.138
2022,0.0,-0.002,-0.001,0.0,0.0,0.0,0.217,-0.225,0.124
2023,0.0,-0.002,0.0,0.0,0.0,0.0,0.204,-0.225,0.121
2024,0.0,-0.002,0.0,0.0,0.0,0.0,0.211,-0.22,0.132
2025,0.0,-0.001,0.0,0.0,0.0,0.0,0.213,-0.226,0.136
2026,0.0,-0.001,0.0,0.0,0.0,0.0,0.204,-0.222,0.133
2027,0.0,-0.002,0.0,0.0,0.0,0.0,0.214,-0.222,0.13
2028,0.0,-0.001,0.0,0.0,0.0,0.0,0.217,-0.229,0.129
2029,0.0,-0.002,0.0,0.0,0.0,0.0,0.202,-0.22,0.133
2030,0.0,-0.002,0.0,0.0,0.0,0.0,0.201,-0.222,0.123
2031,0.0,-0.002,-0.001,0.0,0.0,0.0,0.205,-0.228,0.115
2032,0.0,-0.002,-0.001,0.0,0.0,0.0,0.21,-0.234,0.132
2033,0.0,-0.001,-0.001,0.0,0.0,0.0,0.205,-0.219,0.127
2034,0.0,-0.001,-0.001,0.0,0.0,0.0,0.207,-0.213,0.132
2035,0.0,-0.002,0.0,0.0,0.0,0.0,0.205,-0.222,0.13
2036,0.0,-0.002,0.0,0.0,0.0,0.0,0.211,-0.226,0.129
2037,0.0,-0.002,0.0,0.0,0.0,0.0,0.219,-0.225,0.13
2038,0.0,-0.002,-0.001,0.0,0.0,0.0,0.216,-0.211,0.132
2039,0.0,-0.001,0.0,0.0,0.0,0.0,0.216,-0.22,0.124
2040,0.0,-0.002,0.0,0.0,0.0,0.0,0.219,-0.216,0.129
2041,0.0,-0.002,0.0,0.0,0.0,0.0,0.217,-0.222,0.129
2042,0.0,-0.002,-0.001,0.0,0.0,0.0,0.217,-0.22,0.126
2043,0.0,-0.002,-0.001,0.0,0.0,0.0,0.205,-0.222,0.124
2044,0.0,-0.002,-0.001,0.0,0.0,0.0,0.213,-0.217,0.129
2045,0.0,-0.002,-0.001,0.0,0.0,0.0,0.202,-0.222,0.13
2046,0.0,-0.002,0.0,0.0,0.0,0.0,0.214,-0.213,0.129
2047,0.0,-0.001,-0.001,0.0,0.0,0.0,0.222,-0.219,0.126
2048,0.0,-0.001,-0.001,0.0,0.0,0.0,0.22,-0.223,0.123
2049,0.0,-0.002,0.0,0.0,0.0,0.0,0.216,-0.217,0.124
2050,0.0,-0.002,0.0,0.0,0.0,0.0,0.214,-0.22,0.118
2051,0.0,-0.002,0.0,0.0,0.0,0.0,0.208,-0.223,0.127
2052,0.0,-0.002,-0.001,0.0,0.0,0.0,0.216,-0.225,0.129
2053,0.0,-0.002,-0.001,0.0,0.0,0.0,0.211,-0.22,0.127
2054,0.0,-0.001,0.0,0.0,0.0,0.0,0.211,-0.22,0.132
2055,0.0,-0.002,0.0,0.0,0.0,0.0,0.208,-0.225,0.129
2056,0.0,-0.002,0.0,0.0,0.0,0.0,0.226,-0.223,0.124
2057,0.0,-0.002,0.0,0.0,0.0,0.0,0.223,-0.217,0.124
2058,0.0,-0.001,0.0,0.0,0.0,0.0,0.211,-0.217,0.129
2059,0.0,-0.001,0.0,0.0,0.0,0.0,0.207,-0.217,0.126
2060,0.0,-0.002,0.0,0.0,0.0,0.0,0.205,-0.22,0.135
2061,0.0,-0.001,-0.001,0.0,0.0,0.0,0.22,-0.222,0.126
2062,0.0,-0.002,-0.001,0.0,0.0,0.0,0.207,-0.217,0.127
2063,0.0,-0.002,-0.001,0.0,0.0,0.0,0.213,-0.223,0.124
2064,0.0,-0.002,0.0,0.0,0.0,0.0,0.213,-0.22,0.13
2065,0.0,-0.001,0.0,0.0,0.0,0.0,0.21,-0.219,0.12
2066,0.0,-0.001,0.0,0.0,0.0,0.0,0.213,-0.231,0.121
2067,0.0,-0.002,0.0,0.0,0.0,0.0,0.211,-0.222,0.117
2068,0.0,-0.001,0.0,0.0,0.0,0.0,0.214,-0.22,0.126
2069,0.0,-0.002,0.0,0.0,0.0,0.0,0.213,-0.213,0.123
2070,0.0,-0.001,0.0,0.0,0.0,0.0,0.21,-0.223,0.129
2071,0.0,-0.002,-0.001,0.0,0.0,0.0,0.21,-0.216,0.132
2072,0.0,-0.002,0.0,0.0,0.0,0.0,0.208,-0.213,0.13
2073,0.0,0.0,0.0,0.0,0.0,0.0,0.214,-0.219,0.121
2074,0.0,-0.001,0.0,0.0,0.0,0.0,0.216,-0.22,0.129
2075,0.0,-0.002,0.0,0.0,0.0,0.0,0.213,-0.217,0.129
2076,0.0,-0.001,-0.001,0.0,0.0,0.0,0.219,-0.223,0.124
2077,0.0,-0.002,-0.001,0.0,0.0,0.0,0.21,-0.22,0.123
2078,0.0,-0.002,0.0,0.0,0.0,0.0,0.208,-0.222,0.124
2079,0.0,-0.001,0.0,0.0,0.0,0.0,0.217,-0.226,0.136
2080,0.0,-0.001,-0.001,0.0,0.0,0.0,0.211,-0.213,0.133
2081,0.0,-0.002,0.0,0.0,0.0,0.0,0.213,-0.222,0.133
2082,0.0,-0.002,0.0,0.0,0.0,0.0,0.208,-0.219,0.121
2083,0.0,-0.002,-0.001,0.0,0.0,0.0,0.211,-0.228,0.117
2084,0.0,-0.002,0.0,0.0,0.0,0.0,0.213,-0.223,0.124
2085,0.0,-0.001,0.0,0.0,0.0,0.0,0.219,-0.223,0.126
2086,0.0,-0.001,0.0,0.0,0.0,0.0,0.219,-0.217,0.132
2087,0.0,-0.002,-0.001,0.0,0.0,0.0,0.223,-0.22,0.124
2088,0.0,-0.002,-0.001,0.0,0.0,0.0,0.207,-0.228,0.124
2089,0.0,-0.002,-0.001,0.0,0.0,0.0,0.208,-0.223,0.118
2090,0.0,-0.002,-0.001,0.0,0.0,0.0,0.208,-0.228,0.124
2091,0.0,-0.002,-0.001,0.0,0.0,0.0,0.214,-0.213,0.121
2092,0.0,-0.001,-0.001,0.0,0.0,0.0,0.204,-0.219,0.129
2093,0.0,-0.002,0.0,0.0,0.0,0.0,0.211,-0.21,0.123
2094,0.0,-0.002,0.0,0.0,0.0,0.0,0.213,-0.22,0.127
2095,0.0,-0.001,-0.001,0.0,0.0,0.0,0.208,-0.208,0.135
2096,0.0,-0.001,-0.001,0.0,0.0,0.0,0.204,-0.229,0.121
2097,0.0,-0.002,0.0,0.0,0.0,0.0,0.205,-0.22,0.124
2098,0.0,-0.001,0.0,0.0,0.0,0.0,0.211,-0.225,0.13
2099,0.0,-0.001,-0.001,0.0,0.0,0.0,0.211,-0.211,0.127
2100,0.0,-0.002,0.0,0.0,0.0,0.0,0.22,-0.231,0.12
2101,0.0,-0.002,0.0,0.0,0.0,0.0,0.22,-0.231,0.12
2102,0.0,-0.002,0.0,0.0,0.0,0.0,0.211,-0.222,0.118
2103,0.0,-0.002,0.0,0.0,0.0,0.0,0.211,-0.22,0.123
2104,0.0,-0.002,0.0,0.0,0.0,0.0,0.214,-0.222,0.124
2105,0.0,-0.002,0.0,0.0,0.0,0.0,0.222,-0.225,0.123
2106,0.0,-0.002,0.0,0.0,0.0,0.0,0.208,-0.22,0.124
2107,0.0,-0.002,0.0,0.0,0.0,0.0,0.208,-0.219,0.126
2108,0.0,-0.002,0.0,0.0,0.0,0.0,0.213,-0.22,0.129
2109,0.0,-0.002,0.0,0.0,0.0,0.0,0.216,-0.22,0.129
2110,0.0,-0.002,0.0,0.0,0.0,0.0,0.214,-0.219,0.121
2111,0.0,-0.002,0.0,0.0,0.0,0.0,0.217,-0.225,0.121
2112,0.0,-0.001,0.0,0.0,0.0,0.0,0.211,-0.219,0.124
2113,0.0,-0.002,0.0,0.0,0.0,0.0,0.219,-0.213,0.118
2114,0.0,-0.002,0.0,0.0,0.0,0.0,0.211,-0.226,0.121
2115,0.0,-0.002,0.0,0.0,0.0,0.0,0.205,-0.21,0.114
2116,0.0,-0.002,0.0,0.0,0.0,0.0,0.207,-0.219,0.136
2117,0.0,-0.001,0.0,0.0,0.0,0.0,0.21,-0.219,0.129
2118,0.0,-0.001,0.0,0.0,0.0,0.0,0.216,-0.223,0.132
2119,0.0,-0.002,0.0,0.0,0.0,0.0,0.216,-0.22,0.123
2120,0.0,-0.002,0.0,0.0,0.0,0.0,0.216,-0.225,0.126
2121,0.0,-0.002,0.0,0.0,0.0,0.0,0.217,-0.22,0.123
2122,0.0,-0.002,0.0,0.0,0.0,0.0,0.205,-0.225,0.127
2123,0.0,-0.002,-0.001,0.0,0.0,0.0,0.208,-0.216,0.124
2124,0.0,-0.002,0.0,0.0,0.0,0.0,0.219,-0.223,0.135
2125,0.0,-0.002,0.0,0.0,0.0,0.0,0.211,-0.222,0.129
2126,0.0,-0.001,-0.001,0.0,0.0,0.0,0.21,-0.223,0.133
2127,0.0,-0.002,0.0,0.0,0.0,0.0,0.208,-0.213,0.118
2128,0.0,-0.001,0.0,0.0,0.0,0.0,0.21,-0.211,0.117
2129,0.0,-0.002,0.0,0.0,0.0,0.0,0.211,-0.217,0.126
2130,0.0,-0.002,0.0,0.0,0.0,0.0,0.214,-0.213,0.129
2131,0.0,-0.002,0.0,0.0,0.0,0.0,0.219,-0.217,0.123
2132,0.0,-0.001,0.0,0.0,0.0,0.0,0.214,-0.237,0.123
2133,0.0,-0.002,0.0,0.0,0.0,0.0,0.201,-0.208,0.124
2134,0.0,-0.002,0.0,0.0,0.0,0.0,0.217,-0.225,0.133
2135,0.0,-0.002,0.0,0.0,0.0,0.0,0.21,-0.214,0.127
2136,0.0,-0.002,0.0,0.0,0.0,0.0,0.211,-0.225,0.129
2137,0.0,-0.002,-0.001,0.0,0.0,0.0,0.213,-0.22,0.13
2138,0.0,-0.002,-0.001,0.0,0.0,0.0,0.211,-0.217,0.138
2139,0.0,-0.002,0.0,0.0,0.0,0.0,0.216,-0.229,0.123
2140,0.0,-0.001,-0.001,0.0,0.0,0.0,0.21,-0.234,0.129
2141,0.0,-0.002,0.0,0.0,0.0,0.0,0.202,-0.223,0.141
2142,0.0,-0.001,0.0,0.0,0.0,0.0,0.216,-0.225,0.132
2143,0.0,-0.002,0.0,0.0,0.0,0.0,0.216,-0.223,0.124
2144,0.0,-0.002,0.0,0.0,0.0,0.0,0.214,-0.22,0.132
2145,0.0,-0.001,0.0,0.0,0.0,0.0,0.21,-0.223,0.13
2146,0.0,-0.001,0.0,0.0,0.0,0.0,0.213,-0.226,0.124
2147,0.0,-0.001,-0.001,0.0,0.0,0.0,0.214,-0.223,0.133
2148,0.0,-0.002,0.0,0.0,0.0,0.0,0.223,-0.219,0.124
2149,0.0,-0.002,0.0,0.0,0.0,0.0,0.214,-0.228,0.127
2150,0.0,-0.002,-0.001,0.0,0.0,0.0,0.222,-0.217,0.124
2151,0.0,-0.001,-0.001,0.0,0.0,0.0,0.214,-0.222,0.132
2152,0.0,-0.001,0.0,0.0,0.0,0.0,0.207,-0.214,0.13
2153,0.0,-0.001,0.0,0.0,0.0,0.0,0.21,-0.225,0.132
2154,0.0,-0.002,0.0,0.0,0.0,0.0,0.21,-0.219,0.129
2155,0.0,-0.001,0.0,0.0,0.0,0.0,0.21,-0.225,0.133
2156,0.0,-0.002,0.0,0.0,0.0,0.0,0.211,-0.217,0.117
2157,0.0,-0.002,0.0,0.0,0.0,0.0,0.208,-0.225,0.132
2158,0.0,-0.002,0.0,0.0,0.0,0.0,0.202,-0.226,0.133
2159,0.0,-0.001,0.0,0.0,0.0,0.0,0.213,-0.22,0.135
2160,0.0,-0.001,-0.001,0.0,0.0,0.0,0.211,-0.226,0.121
2161,0.0,-0.002,0.0,0.0,0.0,0.0,0.208,-0.232,0.132
2162,0.0,-0.002,0.0,0.0,0.0,0.0,0.211,-0.226,0.123
2163,0.0,-0.002,0.0,0.0,0.0,0.0,0.219,-0.228,0.118
2164,0.0,-0.002,-0.001,0.0,0.0,0.0,0.201,-0.225,0.12
2165,0.0,-0.002,0.0,0.0,0.0,0.0,0.214,-0.225,0.136
2166,0.0,-0.002,0.0,0.0,0.0,0.0,0.21,-0.223,0.126
2167,0.0,-0.002,0.0,0.0,0.0,0.0,0.213,-0.216,0.126
2168,0.0,-0.002,0.0,0.0,0.0,0.0,0.211,-0.222,0.133
2169,0.0,-0.002,0.0,0.0,0.0,0.0,0.205,-0.219,0.127
2170,0.0,-0.002,0.0,0.0,0.0,0.0,0.211,-0.217,0.13
2171,0.0,-0.001,0.0,0.0,0.0,0.0,0.216,-0.226,0.121
2172,0.0,-0.002,0.0,0.0,0.0,0.0,0.207,-0.222,0.13
2173,0.0,-0.002,0.0,0.0,0.0,0.0,0.225,-0.219,0.13
2174,0.0,-0.002,-0.001,0.0,0.0,0.0,0.21,-0.219,0.135
2175,0.0,-0.001,0.0,0.0,0.0,0.0,0.21,-0.222,0.13
2176,0.0,-0.002,0.0,0.0,0.0,0.0,0.22,-0.225,0.127
2177,0.0,-0.001,-0.001,0.0,0.0,0.0,0.211,-0.229,0.124
2178,0.0,-0.002,-0.001,0.0,0.0,0.0,0.214,-0.22,0.115
2179,0.0,-0.002,0.0,0.0,0.0,0.0,0.21,-0.222,0.12
2180,0.0,-0.002,-0.001,0.0,0.0,0.0,0.213,-0.217,0.129
2181,0.0,-0.001,-0.001,0.0,0.0,0.0,0.211,-0.228,0.127
2182,0.0,-0.001,0.0,0.0,0.0,0.0,0.207,-0.226,0.129
2183,0.0,-0.002,0.0,0.0,0.0,0.0,0.214,-0.228,0.13
2184,0.0,-0.001,0.0,0.0,0.0,0.0,0.21,-0.22,0.133
2185,0.0,0.0,0.0,0.0,0.0,0.0,0.207,-0.223,0.129
2186,0.0,-0.001,0.0,0.0,0.0,0.0,0.207,-0.223,0.129
2187,0.0,-0.001,-0.001,0.0,0.0,0.0,0.207,-0.223,0.12
2188,0.0,-0.001,0.0,0.0,0.0,0.0,0.213,-0.216,0.129
2189,0.0,-0.002,0.0,0.0,0.0,0.0,0.204,-0.216,0.132
2190,0.0,-0.002,0.0,0.0,0.0,0.0,0.207,-0.22,0.129
2191,0.0,-0.001,0.0,0.0,0.0,0.0,0.208,-0.217,0.127
2192,0.0,-0.002,0.0,0.0,0.0,0.0,0.208,-0.231,0.129
2193,0.0,-0.001,0.0,0.0,0.0,0.0,0.214,-0.217,0.126
2194,0.0,-0.002,0.0,0.0,0.0,0.0,0.21,-0.219,0.127
2195,0.0,-0.002,0.0,0.0,0.0,0.0,0.208,-0.217,0.124
2196,0.0,-0.002,0.0,0.0,0.0,0.0,0.207,-0.216,0.13
2197,0.0,-0.002,-0.001,0.0,0.0,0.0,0.217,-0.216,0.124
2198,0.0,-0.002,0.0,0.0,0.0,0.0,0.21,-0.217,0.13
2199,0.0,-0.001,0.0,0.0,0.0,0.0,0.207,-0.213,0.136
2200,0.0,-0.001,0.0,0.0,0.0,0.0,0.219,-0.223,0.124
2201,0.0,-0.002,-0.001,0.0,0.0,0.0,0.205,-0.228,0.129
2202,0.0,-0.002,0.0,0.0,0.0,0.0,0.217,-0.214,0.126
2203,0.0,-0.002,0.0,0.0,0.0,0.0,0.201,-0.219,0.124
2204,0.0,-0.002,-0.001,0.0,0.0,0.0,0.217,-0.226,0.135
2205,0.0,-0.001,-0.001,0.0,0.0,0.0,0.211,-0.216,0.118
2206,0.0,-0.001,-0.001,0.0,0.0,0.0,0.214,-0.226,0.126
2207,0.0,-0.001,0.0,0.0,0.0,0.0,0.21,-0.217,0.123
2208,0.0,-0.001,0.0,0.0,0.0,0.0,0.204,-0.214,0.133
2209,0.0,-0.001,0.0,0.0,0.0,0.0,0.211,-0.229,0.13
2210,0.0,-0.001,0.0,0.0,0.0,0.0,0.207,-0.222,0.132
2211,0.0,-0.002,0.0,0.0,0.0,0.0,0.208,-0.229,0.133
2212,0.0,-0.002,0.0,0.0,0.0,0.0,0.204,-0.226,0.127
2213,0.0,-0.002,0.0,0.0,0.0,0.0,0.204,-0.217,0.121
2214,0.0,-0.001,0.0,0.0,0.0,0.0,0.216,-0.22,0.118
2215,0.0,-0.001,0.0,0.0,0.0,0.0,0.207,-0.222,0.123
2216,0.0,-0.001,0.0,0.0,0.0,0.0,0.207,-0.222,0.124
2217,0.0,-0.002,0.0,0.0,0.0,0.0,0.208,-0.222,0.123
2218,0.0,-0.002,0.0,0.0,0.0,0.0,0.21,-0.222,0.132
2219,0.0,-0.002,0.0,0.0,0.0,0.0,0.211,-0.214,0.12
2220,0.0,-0.002,0.0,0.0,0.0,0.0,0.208,-0.219,0.138
2221,0.0,-0.002,0.0,0.0,0.0,0.0,0.213,-0.22,0.13
2222,0.0,-0.002,-0.001,0.0,0.0,0.0,0.214,-0.222,0.132
2223,0.0,-0.001,0.0,0.0,0.0,0.0,0.21,-0.223,0.127
2224,0.0,-0.002,0.0,0.0,0.0,0.0,0.21,-0.228,0.132
2225,0.0,-0.001,0.0,0.0,0.0,0.0,0.217,-0.21,0.133
2226,0.0,-0.002,0.0,0.0,0.0,0.0,0.211,-0.22,0.123
2227,0.0,-0.001,0.0,0.0,0.0,0.0,0.208,-0.226,0.127
2228,0.0,-0.001,0.0,0.0,0.0,0.0,0.207,-0.222,0.139
2229,0.0,-0.001,0.0,0.0,0.0,0.0,0.213,-0.22,0.124
2230,0.0,-0.002,0.0,0.0,0.0,0.0,0.22,-0.223,0.117
2231,0.0,-0.002,-0.001,0.0,0.0,0.0,0.21,-0.213,0.132
2232,0.0,-0.002,-0.001,0.0,0.0,0.0,0.208,-0.22,0.132
2233,0.0,-0.002,0.0,0.0,0.0,0.0,0.216,-0.219,0.133
2234,0.0,-0.001,0.0,0.0,0.0,0.0,0.22,-0.222,0.126
2235,0.0,-0.002,-0.001,0.0,0.0,0.0,0.208,-0.225,0.133
2236,0.0,-0.002,0.0,0.0,0.0,0.0,0.217,-0.217,0.126
2237,0.0,-0.001,0.0,0.0,0.0,0.0,0.205,-0.223,0.127
2238,0.0,-0.001,0.0,0.0,0.0,0.0,0.21,-0.214,0.123
2239,0.0,-0.002,0.0,0.0,0.0,0.0,0.21,-0.219,0.132
2240,0.0,-0.001,0.0,0.0,0.0,0.0,0.208,-0.219,0.123
2241,0.0,-0.002,0.0,0.0,0.0,0.0,0.216,-0.211,0.132
2242,0.0,-0.001,0.0,0.0,0.0,0.0,0.211,-0.22,0.13
2243,0.0,-0.002,0.0,0.0,0.0,0.0,0.21,-0.226,0.121
2244,0.0,-0.002,-0.001,0.0,0.0,0.0,0.21,-0.214,0.127
2245,0.0,-0.002,-0.001,0.0,0.0,0.0,0.211,-0.217,0.13
2246,0.0,-0.001,0.0,0.0,0.0,0.0,0.214,-0.223,0.129
2247,0.0,-0.001,0.0,0.0,0.0,0.0,0.219,-0.214,0.12
2248,0.0,-0.002,0.0,0.0,0.0,0.0,0.21,-0.231,0.132
2249,0.0,-0.001,0.0,0.0,0.0,0.0,0.21,-0.22,0.127
2250,0.0,-0.001,-0.001,0.0,0.0,0.0,0.202,-0.229,0.132
2251,0.0,-0.001,0.0,0.0,0.0,0.0,0.216,-0.217,0.117
2252,0.0,-0.002,-0.001,0.0,0.0,0.0,0.202,-0.229,0.126
2253,0.0,-0.002,0.0,0.0,0.0,0.0,0.213,-0.223,0.127
2254,0.0,-0.002,-0.001,0.0,0.0,0.0,0.213,-0.214,0.13
2255,0.0,-0.002,-0.001,0.0,0.0,0.0,0.21,-0.226,0.13
2256,0.0,-0.002,-0.001,0.0,0.0,0.0,0.223,-0.22,0.124
2257,0.0,-0.002,-0.001,0.0,0.0,0.0,0.219,-0.219,0.13
2258,0.0,-0.002,0.0,0.0,0.0,0.0,0.214,-0.228,0.129
2259,0.0,-0.002,0.0,0.0,0.0,0.0,0.222,-0.219,0.124
2260,0.0,-0.002,0.0,0.0,0.0,0.0,0.213,-0.222,0.129
2261,0.0,-0.002,0.0,0.0,0.0,0.0,0.21,-0.214,0.124
2262,0.0,-0.002,0.0,0.0,0.0,0.0,0.21,-0.217,0.12
2263,0.0,-0.002,0.0,0.0,0.0,0.0,0.208,-0.216,0.123
2264,0.0,-0.001,0.0,0.0,0.0,0.0,0.216,-0.207,0.117
2265,0.0,-0.002,-0.001,0.0,0.0,0.0,0.207,-0.222,0.132
2266,0.0,-0.002,0.0,0.0,0.0,0.0,0.216,-0.222,0.126
2267,0.0,-0.002,0.0,0.0,0.0,0.0,0.216,-0.22,0.118
2268,0.0,-0.002,0.0,0.0,0.0,0.0,0.208,-0.222,0.126
2269,0.0,-0.002,0.0,0.0,0.0,0.0,0.216,-0.222,0.124
2270,0.0,-0.002,0.0,0.0,0.0,0.0,0.216,-0.222,0.124
2271,0.0,-0.001,-0.001,0.0,0.0,0.0,0.211,-0.214,0.126
2272,0.0,-0.002,0.0,0.0,0.0,0.0,0.211,-0.22,0.129
2273,0.0,-0.002,0.0,0.0,0.0,0.0,0.214,-0.225,0.127
2274,0.0,-0.002,-0.001,0.0,0.0,0.0,0.213,-0.219,0.126
2275,0.0,-0.002,0.0,0.0,0.0,0.0,0.205,-0.219,0.117
2276,0.0,-0.002,0.0,0.0,0.0,0.0,0.213,-0.226,0.124
2277,0.0,-0.002,-0.001,0.0,0.0,0.0,0.207,-0.228,0.117
2278,0.0,-0.002,-0.001,0.0,0.0,0.0,0.211,-0.213,0.121
2279,0.0,-0.002,0.0,0.0,0.0,0.0,0.21,-0.225,0.133
2280,0.0,-0.002,0.0,0.0,0.0,0.0,0.213,-0.223,0.132
2281,0.0,-0.002,0.0,0.0,0.0,0.0,0.207,-0.219,0.123
2282,0.0,-0.002,0.0,0.0,0.0,0.0,0.211,-0.222,0.135
2283,0.0,-0.002,0.0,0.0,0.0,0.0,0.199,-0.219,0.129
2284,0.0,-0.002,0.0,0.0,0.0,0.0,0.204,-0.22,0.118
2285,0.0,-0.002,0.0,0.0,0.0,0.0,0.21,-0.222,0.127
2286,0.0,-0.002,0.0,0.0,0.0,0.0,0.205,-0.219,0.127
2287,0.0,-0.002,0.0,0.0,0.0,0.0,0.217,-0.226,0.12
2288,0.0,-0.002,0.0,0.0,0.0,0.0,0.21,-0.214,0.132
2289,0.0,-0.002,0.0,0.0,0.0,0.0,0.208,-0.217,0.123
2290,0.0,-0.002,-0.001,0.0,0.0,0.0,0.216,-0.225,0.133
2291,0.0,-0.002,-0.001,0.0,0.0,0.0,0.205,-0.225,0.123
2292,0.0,-0.002,-0.001,0.0,0.0,0.0,0.211,-0.213,0.127
2293,0.0,-0.002,0.0,0.0,0.0,0.0,0.207,-0.216,0.12
2294,0.0,-0.002,0.0,0.0,0.0,0.0,0.214,-0.222,0.127
2295,0.0,-0.002,0.0,0.0,0.0,0.0,0.205,-0.22,0.129
2296,0.0,-0.002,-0.001,0.0,0.0,0.0,0.204,-0.219,0.124
2297,0.0,-0.001,0.0,0.0,0.0,0.0,0.21,-0.228,0.126
2298,0.0,-0.001,-0.001,0.0,0.0,0.0,0.21,-0.226,0.138
2299,0.0,-0.001,-0.001,0.0,0.0,0.0,0.208,-0.222,0.126
2300,0.0,-0.001,-0.001,0.0,0.0,0.0,0.208,-0.22,0.124
2301,0.0,-0.002,0.0,0.0,0.0,0.0,0.216,-0.222,0.133
2302,0.0,-0.002,-0.001,0.0,0.0,0.0,0.21,-0.211,0.126
2303,0.0,-0.002,0.0,0.0,0.0,0.0,0.207,-0.223,0.127
2304,0.0,-0.002,0.0,0.0,0.0,0.0,0.207,-0.211,0.121
2305,0.0,-0.002,0.0,0.0,0.0,0.0,0.208,-0.232,0.132
2306,0.0,-0.002,-0.001,0.0,0.0,0.0,0.202,-0.228,0.126
2307,0.0,-0.001,-0.001,0.0,0.0,0.0,0.205,-0.222,0.132
2308,0.0,-0.001,0.0,0.0,0.0,0.0,0.21,-0.214,0.118
2309,0.0,-0.001,0.0,0.0,0.0,0.0,0.217,-0.225,0.127
2310,0.0,-0.002,-0.001,0.0,0.0,0.0,0.211,-0.219,0.123
2311,0.0,-0.002,-0.001,0.0,0.0,0.0,0.214,-0.219,0.129
2312,0.0,-0.001,0.0,0.0,0.0,0.0,0.217,-0.22,0.123
2313,0.0,-0.002,0.0,0.0,0.0,0.0,0.22,-0.21,0.121
2314,0.0,-0.002,0.0,0.0,0.0,0.0,0.211,-0.214,0.132
2315,0.0,-0.001,0.0,0.0,0.0,0.0,0.211,-0.232,0.123
2316,0.0,-0.001,-0.001,0.0,0.0,0.0,0.216,-0.217,0.124
2317,0.0,-0.001,0.0,0.0,0.0,0.0,0.211,-0.222,0.126
2318,0.0,-0.002,0.0,0.0,0.0,0.0,0.216,-0.219,0.133
2319,0.0,-0.002,-0.001,0.0,0.0,0.0,0.213,-0.216,0.124
2320,0.0,-0.001,0.0,0.0,0.0,0.0,0.216,-0.217,0.121
2321,0.0,-0.002,0.0,0.0,0.0,0.0,0.207,-0.211,0.124
2322,0.0,-0.002,0.0,0.0,0.0,0.0,0.213,-0.226,0.12
2323,0.0,-0.002,0.0,0.0,0.0,0.0,0.217,-0.223,0.127
2324,0.0,-0.002,-0.001,0.0,0.0,0.0,0.208,-0.216,0.133
2325,0.0,-0.002,0.0,0.0,0.0,0.0,0.216,-0.211,0.129
2326,0.0,-0.002,-0.001,0.0,0.0,0.0,0.213,-0.222,0.127
2327,0.0,-0.002,0.0,0.0,0.0,0.0,0.208,-0.225,0.126
2328,0.0,-0.002,0.0,0.0,0.0,0.0,0.208,-0.222,0.135
2329,0.0,-0.002,0.0,0.0,0.0,0.0,0.21,-0.225,0.133
2330,0.0,-0.002,-0.001,0.0,0.0,0.0,0.214,-0.21,0.129
2331,0.0,-0.002,-0.001,0.0,0.0,0.0,0.216,-0.22,0.127
2332,0.0,-0.002,-0.001,0.0,0.0,0.0,0.21,-0.211,0.12
2333,0.0,-0.002,-0.001,0.0,0.0,0.0,0.213,-0.225,0.127
2334,0.0,-0.002,-0.001,0.0,0.0,0.0,0.207,-0.225,0.124
2335,0.0,-0.002,0.0,0.0,0.0,0.0,0.213,-0.225,0.118
2336,0.0,-0.002,-0.001,0.0,0.0,0.0,0.207,-0.22,0.123
2337,0.0,-0.002,-0.001,0.0,0.0,0.0,0.211,-0.225,0.126
2338,0.0,-0.002,0.0,0.0,0.0,0.0,0.202,-0.22,0.123
2339,0.0,-0.001,-0.001,0.0,0.0,0.0,0.21,-0.219,0.124
2340,0.0,-0.002,-0.001,0.0,0.0,0.0,0.216,-0.22,0.13
2341,0.0,-0.002,-0.001,0.0,0.0,0.0,0.211,-0.216,0.121
2342,0.0,-0.001,0.0,0.0,0.0,0.0,0.214,-0.216,0.126
2343,0.0,-0.001,0.0,0.0,0.0,0.0,0.21,-0.228,0.129
2344,0.0,-0.002,-0.001,0.0,0.0,0.0,0.21,-0.223,0.123
2345,0.0,-0.002,0.0,0.0,0.0,0.0,0.211,-0.22,0.13
2346,0.0,-0.002,-0.001,0.0,0.0,0.0,0.211,-0.228,0.127
2347,0.0,-0.001,0.0,0.0,0.0,0.0,0.21,-0.214,0.127
