,Gyroscope X (deg/s),Gyroscope Y (deg/s),Gyroscope Z (deg/s),Accelerometer X (g),Accelerometer Y (g),Accelerometer Z (g),Magnetometer X (G),Magnetometer Y (G),Magnetometer Z (G)
0,0.429,-0.219,-1.375,0.192,0.419,0.87,-0.081,0.267,-0.4
1,0.429,-0.219,-1.375,0.192,0.419,0.87,-0.081,0.267,-0.4
2,0.429,-0.219,-1.375,0.192,0.419,0.87,-0.081,0.267,-0.4
3,-0.067,0.007,0.025,0.193,0.419,0.872,-0.076,0.262,-0.408
4,-0.001,-0.012,-0.011,0.194,0.417,0.875,-0.081,0.271,-0.408
5,-0.004,-0.009,-0.009,0.194,0.418,0.876,-0.079,0.27,-0.415
6,-0.007,-0.008,-0.008,0.194,0.418,0.873,-0.079,0.27,-0.415
7,-0.016,-0.007,-0.009,0.192,0.417,0.869,-0.09,0.262,-0.408
8,-0.015,-0.008,-0.011,0.191,0.414,0.868,-0.084,0.267,-0.412
9,-0.012,-0.01,-0.014,0.19,0.413,0.869,-0.081,0.268,-0.411
10,-0.003,-0.011,-0.017,0.192,0.415,0.872,-0.084,0.273,-0.403
11,0.001,-0.009,-0.021,0.193,0.416,0.874,-0.081,0.279,-0.414
12,0.0,-0.013,-0.018,0.197,0.418,0.873,-0.087,0.265,-0.414
13,-0.005,-0.011,-0.014,0.2,0.421,0.874,-0.085,0.264,-0.414
14,0.0,-0.009,-0.009,0.2,0.421,0.874,-0.082,0.262,-0.412
15,0.0,-0.009,-0.009,0.2,0.421,0.874,-0.082,0.267,-0.411
16,-0.002,-0.009,-0.007,0.199,0.417,0.874,-0.087,0.267,-0.412
17,-0.007,-0.004,-0.008,0.195,0.414,0.872,-0.084,0.268,-0.421
18,-0.004,-0.006,-0.009,0.195,0.415,0.869,-0.084,0.268,-0.412
19,-0.001,-0.008,-0.009,0.195,0.415,0.869,-0.087,0.264,-0.403
20,0.0,-0.005,-0.014,0.194,0.412,0.872,-0.093,0.273,-0.405
21,-0.007,-0.006,-0.016,0.199,0.416,0.875,-0.093,0.273,-0.405
22,-0.001,-0.006,-0.007,0.202,0.421,0.876,-0.084,0.27,-0.411
23,-0.002,0.0,-0.011,0.201,0.417,0.875,-0.088,0.265,-0.405
24,-0.011,0.002,-0.015,0.2,0.414,0.871,-0.085,0.261,-0.415
25,-0.018,-0.004,-0.014,0.199,0.416,0.869,-0.081,0.268,-0.415
26,-0.002,-0.006,-0.006,0.198,0.418,0.871,-0.09,0.268,-0.403
27,0.002,0.002,-0.011,0.195,0.414,0.875,-0.084,0.267,-0.414
28,-0.01,-0.001,-0.016,0.197,0.415,0.875,-0.085,0.264,-0.417
29,-0.011,-0.014,-0.005,0.202,0.421,0.872,-0.082,0.261,-0.412
30,0.002,-0.009,-0.005,0.202,0.419,0.872,-0.081,0.277,-0.421
31,-0.005,-0.003,-0.01,0.202,0.415,0.871,-0.076,0.276,-0.415
32,-0.009,-0.008,-0.006,0.201,0.418,0.87,-0.09,0.27,-0.414
33,-0.009,-0.008,-0.006,0.201,0.418,0.87,-0.087,0.268,-0.417
34,0.001,-0.009,0.002,0.199,0.417,0.873,-0.09,0.267,-0.418
35,0.004,-0.001,-0.004,0.197,0.413,0.874,-0.091,0.271,-0.409
36,-0.008,0.0,-0.014,0.197,0.409,0.874,-0.091,0.271,-0.409
37,-0.023,-0.002,-0.017,0.199,0.412,0.873,-0.09,0.265,-0.42
38,-0.019,-0.002,-0.012,0.202,0.42,0.871,-0.097,0.267,-0.406
39,-0.009,-0.002,-0.01,0.203,0.422,0.871,-0.085,0.267,-0.403
40,-0.011,-0.01,-0.006,0.204,0.422,0.871,-0.087,0.271,-0.409
41,0.003,-0.007,-0.002,0.203,0.418,0.872,-0.081,0.267,-0.409
42,-0.001,-0.003,-0.004,0.201,0.415,0.872,-0.081,0.277,-0.42
43,-0.004,-0.004,-0.003,0.2,0.416,0.874,-0.084,0.267,-0.418
44,-0.008,-0.004,-0.007,0.198,0.414,0.875,-0.088,0.265,-0.415
45,-0.01,-0.003,-0.011,0.2,0.415,0.873,-0.081,0.265,-0.417
46,-0.008,-0.009,-0.007,0.204,0.418,0.871,-0.093,0.268,-0.411
47,-0.003,-0.006,-0.002,0.205,0.419,0.87,-0.079,0.268,-0.42
48,-0.005,-0.002,-0.005,0.204,0.418,0.871,-0.09,0.265,-0.406
49,-0.008,-0.007,-0.002,0.204,0.419,0.872,-0.088,0.264,-0.414
50,-0.002,-0.002,-0.003,0.201,0.415,0.874,-0.079,0.267,-0.417
51,-0.002,-0.002,-0.003,0.201,0.415,0.874,-0.079,0.267,-0.417
52,-0.004,0.0,-0.007,0.201,0.414,0.873,-0.085,0.259,-0.412
53,-0.002,-0.003,-0.005,0.2,0.414,0.871,-0.085,0.276,-0.412
54,-0.014,-0.005,-0.011,0.199,0.413,0.871,-0.094,0.265,-0.409
55,-0.012,-0.005,-0.011,0.203,0.419,0.87,-0.093,0.268,-0.412
56,0.012,0.0,0.0,0.206,0.421,0.872,-0.085,0.267,-0.408
57,0.0,0.0,-0.002,0.206,0.419,0.875,-0.088,0.262,-0.414
58,-0.011,-0.005,-0.002,0.205,0.419,0.873,-0.087,0.258,-0.414
59,0.0,-0.004,0.0,0.204,0.416,0.871,-0.084,0.265,-0.412
60,0.003,-0.003,0.0,0.202,0.414,0.87,-0.09,0.267,-0.415
61,0.0,-0.002,-0.005,0.2,0.414,0.871,-0.088,0.276,-0.406
62,-0.008,-0.006,-0.007,0.202,0.415,0.871,-0.084,0.264,-0.409
63,-0.001,-0.002,-0.006,0.204,0.417,0.872,-0.078,0.273,-0.397
64,-0.006,0.0,-0.009,0.204,0.417,0.874,-0.093,0.27,-0.411
65,-0.016,-0.001,-0.009,0.207,0.418,0.876,-0.088,0.277,-0.409
66,-0.022,-0.01,-0.002,0.208,0.42,0.874,-0.088,0.277,-0.409
67,-0.017,-0.007,0.0,0.206,0.419,0.871,-0.088,0.27,-0.412
68,-0.014,-0.003,0.0,0.202,0.421,0.868,-0.09,0.271,-0.405
69,-0.014,-0.003,0.0,0.202,0.421,0.868,-0.082,0.268,-0.415
70,0.007,-0.007,0.004,0.201,0.421,0.868,-0.082,0.262,-0.414
71,0.009,-0.002,0.0,0.2,0.414,0.873,-0.082,0.268,-0.412
72,-0.002,-0.002,-0.005,0.202,0.414,0.875,-0.082,0.268,-0.411
73,-0.001,-0.002,-0.006,0.204,0.415,0.874,-0.088,0.264,-0.409
74,-0.01,-0.001,-0.011,0.204,0.415,0.871,-0.082,0.271,-0.42
75,-0.014,-0.002,-0.01,0.208,0.421,0.869,-0.088,0.267,-0.418
76,-0.003,-0.006,0.004,0.211,0.427,0.868,-0.087,0.271,-0.409
77,0.002,-0.003,0.007,0.208,0.422,0.871,-0.085,0.264,-0.406
78,-0.009,-0.004,0.002,0.204,0.414,0.873,-0.096,0.273,-0.409
79,-0.016,-0.001,0.0,0.202,0.413,0.874,-0.09,0.274,-0.412
80,0.004,-0.004,0.002,0.201,0.419,0.873,-0.085,0.264,-0.408
81,0.032,0.004,0.0,0.201,0.417,0.872,-0.085,0.264,-0.408
82,0.009,0.0,-0.004,0.203,0.414,0.872,-0.087,0.262,-0.408
83,-0.009,-0.004,-0.002,0.208,0.417,0.871,-0.088,0.271,-0.399
84,-0.018,-0.005,0.0,0.209,0.419,0.871,-0.091,0.264,-0.411
85,-0.008,-0.003,0.004,0.208,0.421,0.871,-0.087,0.274,-0.411
86,-0.006,-0.002,0.002,0.204,0.42,0.872,-0.09,0.267,-0.409
87,-0.006,-0.002,0.002,0.204,0.42,0.872,-0.091,0.265,-0.409
88,0.002,-0.004,0.003,0.201,0.418,0.873,-0.085,0.267,-0.408
89,0.011,0.0,0.006,0.199,0.414,0.873,-0.078,0.267,-0.405
90,0.0,0.0,-0.002,0.199,0.409,0.874,-0.085,0.273,-0.405
91,-0.016,-0.003,-0.007,0.202,0.413,0.872,-0.088,0.27,-0.403
92,-0.015,-0.008,-0.001,0.206,0.42,0.871,-0.088,0.274,-0.42
93,-0.009,-0.003,-0.002,0.206,0.42,0.872,-0.082,0.27,-0.403
94,-0.014,-0.002,-0.004,0.206,0.418,0.872,-0.09,0.273,-0.406
95,-0.018,-0.005,-0.002,0.204,0.42,0.871,-0.081,0.27,-0.403
96,-0.001,-0.008,0.003,0.205,0.42,0.872,-0.081,0.27,-0.403
97,0.009,0.0,0.005,0.205,0.418,0.872,-0.09,0.267,-0.405
98,0.002,0.0,0.0,0.204,0.416,0.872,-0.085,0.27,-0.402
99,-0.01,-0.007,0.0,0.204,0.419,0.872,-0.084,0.273,-0.408
100,0.011,-0.007,0.007,0.206,0.42,0.871,-0.085,0.267,-0.403
101,0.015,0.001,0.003,0.205,0.414,0.872,-0.085,0.271,-0.4
102,-0.007,-0.002,-0.004,0.203,0.412,0.873,-0.084,0.274,-0.417
103,-0.026,-0.007,-0.004,0.203,0.415,0.873,-0.091,0.261,-0.42
104,-0.007,-0.007,0.001,0.204,0.421,0.872,-0.091,0.267,-0.409
105,-0.007,-0.007,0.001,0.204,0.421,0.872,-0.079,0.268,-0.415
106,0.014,0.002,0.0,0.204,0.418,0.872,-0.097,0.271,-0.405
107,-0.01,-0.001,-0.002,0.205,0.416,0.872,-0.085,0.267,-0.405
108,-0.025,-0.009,0.003,0.206,0.421,0.87,-0.094,0.271,-0.414
109,0.002,-0.009,0.009,0.206,0.422,0.87,-0.091,0.276,-0.403
110,0.017,0.0,0.004,0.204,0.415,0.872,-0.087,0.271,-0.405
111,0.0,-0.003,0.0,0.203,0.413,0.874,-0.087,0.271,-0.405
112,-0.015,-0.007,-0.001,0.202,0.415,0.874,-0.085,0.267,-0.4
113,-0.007,-0.004,-0.001,0.203,0.417,0.872,-0.091,0.267,-0.415
114,0.002,0.002,-0.002,0.205,0.417,0.871,-0.082,0.262,-0.412
115,-0.006,0.0,-0.004,0.205,0.418,0.871,-0.084,0.277,-0.411
116,-0.008,-0.009,0.001,0.207,0.422,0.871,-0.082,0.271,-0.414
117,0.007,-0.004,0.005,0.206,0.42,0.871,-0.085,0.268,-0.403
118,0.002,-0.001,0.0,0.203,0.413,0.872,-0.087,0.273,-0.406
119,-0.012,-0.002,-0.006,0.203,0.412,0.872,-0.09,0.279,-0.402
120,-0.016,-0.006,0.0,0.204,0.42,0.871,-0.084,0.268,-0.423
121,0.02,0.0,0.003,0.205,0.421,0.871,-0.084,0.264,-0.406
122,0.007,0.004,-0.002,0.204,0.413,0.872,-0.1,0.271,-0.405
123,0.007,0.004,-0.002,0.204,0.413,0.872,-0.091,0.262,-0.405
124,-0.016,-0.002,-0.004,0.205,0.416,0.871,-0.082,0.264,-0.402
125,-0.005,-0.013,0.004,0.208,0.422,0.871,-0.081,0.271,-0.409
126,0.014,-0.002,0.004,0.208,0.42,0.874,-0.09,0.274,-0.409
127,0.0,-0.001,0.0,0.205,0.414,0.877,-0.09,0.274,-0.409
128,-0.023,-0.003,-0.002,0.203,0.413,0.873,-0.087,0.27,-0.405
129,-0.032,-0.006,0.0,0.202,0.417,0.867,-0.088,0.268,-0.411
130,-0.004,0.0,0.0,0.203,0.418,0.867,-0.079,0.27,-0.406
131,-0.007,0.0,-0.003,0.203,0.416,0.872,-0.087,0.277,-0.405
132,-0.009,-0.006,0.0,0.204,0.42,0.875,-0.087,0.279,-0.405
133,-0.001,-0.002,-0.002,0.205,0.419,0.875,-0.093,0.268,-0.409
134,-0.006,0.0,-0.005,0.205,0.417,0.871,-0.088,0.277,-0.408
135,0.0,-0.003,0.0,0.206,0.42,0.87,-0.078,0.27,-0.417
136,0.004,-0.001,0.0,0.206,0.419,0.871,-0.078,0.268,-0.409
137,-0.009,-0.001,-0.001,0.206,0.417,0.873,-0.087,0.273,-0.414
138,-0.018,-0.004,0.0,0.206,0.42,0.873,-0.088,0.268,-0.414
139,0.006,-0.004,0.007,0.206,0.421,0.871,-0.084,0.277,-0.411
140,0.018,0.002,0.003,0.203,0.418,0.869,-0.09,0.27,-0.406
141,0.018,0.002,0.003,0.203,0.418,0.869,-0.085,0.267,-0.417
142,-0.001,-0.002,-0.002,0.201,0.414,0.87,-0.085,0.267,-0.417
143,-0.011,-0.008,-0.002,0.203,0.416,0.872,-0.093,0.271,-0.403
144,0.0,-0.005,0.0,0.205,0.418,0.874,-0.094,0.267,-0.415
145,-0.005,0.0,-0.005,0.206,0.417,0.875,-0.085,0.265,-0.402
146,-0.018,-0.002,-0.007,0.207,0.418,0.872,-0.084,0.265,-0.4
147,-0.025,-0.004,-0.002,0.206,0.422,0.869,-0.079,0.267,-0.409
148,-0.002,-0.007,0.006,0.206,0.424,0.868,-0.084,0.27,-0.411
149,0.02,0.001,0.008,0.205,0.42,0.871,-0.094,0.279,-0.411
150,0.005,-0.001,0.002,0.203,0.415,0.875,-0.093,0.264,-0.408
151,-0.014,-0.008,0.0,0.203,0.415,0.874,-0.088,0.277,-0.411
152,-0.002,-0.003,0.0,0.203,0.416,0.872,-0.096,0.271,-0.411
153,0.002,0.0,-0.004,0.203,0.415,0.871,-0.079,0.267,-0.415
154,-0.009,-0.002,-0.005,0.205,0.418,0.871,-0.085,0.264,-0.408
155,-0.005,-0.01,0.007,0.208,0.426,0.871,-0.093,0.264,-0.405
156,0.035,-0.002,0.018,0.209,0.424,0.872,-0.087,0.268,-0.408
157,0.032,0.004,0.013,0.206,0.414,0.872,-0.087,0.268,-0.408
158,0.001,-0.002,0.004,0.203,0.412,0.871,-0.078,0.267,-0.408
159,0.001,-0.002,0.004,0.203,0.412,0.871,-0.087,0.273,-0.408
160,-0.004,-0.009,0.004,0.202,0.414,0.871,-0.081,0.268,-0.411
161,0.011,0.0,0.0,0.202,0.413,0.873,-0.093,0.271,-0.4
162,-0.002,0.001,-0.008,0.203,0.411,0.877,-0.097,0.265,-0.412
163,-0.028,-0.002,-0.011,0.204,0.413,0.876,-0.087,0.271,-0.415
164,-0.036,-0.008,-0.004,0.206,0.421,0.871,-0.088,0.267,-0.4
165,0.003,-0.004,0.004,0.208,0.423,0.868,-0.09,0.276,-0.405
166,0.01,0.001,0.003,0.207,0.418,0.871,-0.096,0.273,-0.414
167,-0.004,-0.004,0.0,0.203,0.415,0.874,-0.085,0.27,-0.405
168,-0.013,-0.009,0.004,0.202,0.416,0.874,-0.091,0.267,-0.411
169,0.004,-0.002,0.002,0.201,0.414,0.874,-0.081,0.277,-0.405
170,0.0,0.001,-0.004,0.202,0.412,0.874,-0.085,0.265,-0.409
171,-0.006,-0.004,0.0,0.205,0.42,0.872,-0.09,0.267,-0.408
172,0.012,-0.003,0.007,0.206,0.42,0.872,-0.09,0.267,-0.408
173,0.004,0.0,0.0,0.205,0.415,0.872,-0.081,0.268,-0.406
174,-0.011,-0.002,-0.005,0.204,0.413,0.871,-0.082,0.273,-0.405
175,-0.032,-0.007,-0.008,0.202,0.413,0.872,-0.084,0.264,-0.403
176,-0.023,-0.008,-0.002,0.204,0.42,0.873,-0.088,0.276,-0.406
177,-0.023,-0.008,-0.002,0.204,0.42,0.873,-0.091,0.267,-0.414
178,0.012,0.0,0.004,0.206,0.424,0.875,-0.084,0.271,-0.405
179,0.018,0.0,0.004,0.208,0.421,0.875,-0.09,0.261,-0.4
180,0.006,-0.003,0.004,0.206,0.416,0.872,-0.081,0.274,-0.414
181,-0.006,-0.004,0.002,0.203,0.412,0.869,-0.081,0.268,-0.414
182,-0.007,-0.005,0.0,0.203,0.413,0.869,-0.088,0.27,-0.412
183,-0.006,-0.005,-0.001,0.202,0.416,0.873,-0.093,0.27,-0.402
184,0.002,-0.003,0.0,0.204,0.418,0.876,-0.096,0.271,-0.408
185,0.011,0.0,0.0,0.205,0.417,0.874,-0.09,0.274,-0.412
186,0.003,-0.001,0.0,0.205,0.416,0.872,-0.094,0.267,-0.421
187,0.0,-0.004,0.0,0.206,0.418,0.872,-0.094,0.267,-0.421
188,0.002,-0.007,0.002,0.207,0.417,0.875,-0.087,0.271,-0.414
189,0.026,-0.004,0.014,0.208,0.42,0.876,-0.088,0.27,-0.415
190,0.069,0.002,0.024,0.204,0.42,0.877,-0.088,0.267,-0.402
191,0.109,0.008,0.036,0.198,0.414,0.877,-0.084,0.265,-0.412
192,0.109,0.009,0.034,0.197,0.402,0.876,-0.084,0.27,-0.414
193,0.048,0.004,0.006,0.198,0.395,0.875,-0.097,0.273,-0.42
194,-0.001,-0.007,-0.004,0.201,0.396,0.875,-0.094,0.261,-0.417
195,-0.001,-0.007,-0.004,0.201,0.396,0.875,-0.085,0.268,-0.414
196,-0.007,-0.009,-0.002,0.205,0.406,0.877,-0.09,0.262,-0.415
197,0.014,0.0,0.003,0.207,0.41,0.881,-0.082,0.268,-0.417
198,0.001,-0.002,0.007,0.206,0.408,0.882,-0.09,0.261,-0.415
199,-0.02,-0.005,0.0,0.203,0.405,0.878,-0.081,0.264,-0.415
200,-0.027,-0.011,0.0,0.2,0.401,0.875,-0.088,0.264,-0.406
201,-0.005,-0.004,0.0,0.198,0.399,0.876,-0.091,0.265,-0.42
202,-0.007,0.0,-0.004,0.198,0.401,0.879,-0.091,0.265,-0.42
203,-0.023,-0.002,-0.008,0.2,0.406,0.88,-0.091,0.259,-0.408
204,-0.034,-0.009,-0.008,0.203,0.41,0.877,-0.088,0.271,-0.411
205,-0.017,-0.007,-0.004,0.205,0.41,0.876,-0.093,0.27,-0.421
206,-0.012,-0.002,-0.001,0.206,0.408,0.877,-0.085,0.273,-0.408
207,-0.005,-0.005,0.006,0.206,0.412,0.879,-0.088,0.267,-0.412
208,0.011,-0.001,0.008,0.202,0.408,0.88,-0.087,0.264,-0.406
209,0.0,0.002,0.0,0.199,0.402,0.878,-0.091,0.261,-0.421
210,-0.023,-0.001,-0.004,0.2,0.403,0.875,-0.087,0.267,-0.409
211,-0.028,-0.007,-0.001,0.202,0.409,0.875,-0.097,0.268,-0.412
212,-0.011,-0.005,0.0,0.204,0.411,0.877,-0.076,0.27,-0.414
213,-0.011,-0.005,0.0,0.204,0.411,0.877,-0.09,0.267,-0.412
214,0.0,-0.004,0.001,0.206,0.412,0.879,-0.082,0.282,-0.414
215,0.013,-0.001,0.006,0.204,0.409,0.879,-0.093,0.273,-0.412
216,0.004,-0.001,0.004,0.202,0.405,0.878,-0.085,0.27,-0.417
217,-0.013,-0.004,-0.001,0.2,0.403,0.875,-0.085,0.27,-0.417
218,-0.016,-0.007,-0.003,0.2,0.406,0.874,-0.082,0.277,-0.399
219,0.0,-0.004,-0.002,0.202,0.408,0.876,-0.088,0.273,-0.417
220,-0.005,-0.002,-0.004,0.204,0.41,0.879,-0.09,0.264,-0.417
221,-0.005,-0.004,-0.001,0.207,0.413,0.879,-0.087,0.264,-0.421
222,-0.002,0.0,0.0,0.206,0.41,0.877,-0.082,0.277,-0.409
223,-0.015,-0.002,-0.004,0.202,0.405,0.874,-0.084,0.267,-0.406
224,-0.023,-0.009,-0.004,0.201,0.406,0.874,-0.09,0.265,-0.402
225,-0.007,-0.006,0.002,0.201,0.408,0.879,-0.091,0.274,-0.402
226,-0.009,0.0,-0.004,0.202,0.407,0.881,-0.091,0.273,-0.409
227,-0.021,-0.003,-0.004,0.204,0.412,0.878,-0.084,0.27,-0.414
228,-0.008,-0.005,0.002,0.205,0.414,0.875,-0.091,0.259,-0.42
229,0.0,-0.001,0.0,0.205,0.412,0.873,-0.09,0.274,-0.424
230,-0.001,-0.004,0.001,0.205,0.411,0.875,-0.084,0.268,-0.415
231,-0.001,-0.004,0.001,0.205,0.408,0.877,-0.085,0.268,-0.406
232,-0.004,-0.004,0.0,0.202,0.408,0.877,-0.085,0.268,-0.406
233,-0.016,-0.004,-0.004,0.2,0.406,0.877,-0.091,0.262,-0.415
234,-0.027,-0.004,-0.006,0.202,0.409,0.876,-0.087,0.261,-0.412
235,-0.014,-0.006,0.0,0.204,0.414,0.874,-0.087,0.267,-0.405
236,0.011,-0.002,0.004,0.205,0.415,0.875,-0.088,0.267,-0.415
237,0.014,0.0,0.004,0.204,0.412,0.876,-0.085,0.27,-0.414
238,0.01,0.0,0.002,0.202,0.407,0.876,-0.087,0.264,-0.405
239,-0.004,-0.002,-0.002,0.2,0.404,0.874,-0.081,0.273,-0.409
240,-0.016,-0.004,-0.006,0.201,0.407,0.873,-0.084,0.259,-0.402
241,-0.012,-0.004,-0.007,0.203,0.411,0.875,-0.085,0.271,-0.411
242,-0.007,-0.003,-0.006,0.206,0.414,0.878,-0.085,0.262,-0.415
243,-0.01,-0.004,-0.003,0.206,0.415,0.878,-0.085,0.267,-0.411
244,-0.007,-0.003,0.0,0.204,0.412,0.876,-0.081,0.271,-0.4
245,-0.003,-0.002,0.001,0.202,0.409,0.873,-0.079,0.273,-0.408
246,-0.001,-0.002,-0.002,0.202,0.408,0.874,-0.084,0.28,-0.408
247,-0.007,-0.003,-0.003,0.203,0.411,0.876,-0.084,0.28,-0.408
248,0.0,-0.001,0.0,0.204,0.411,0.876,-0.082,0.271,-0.406
249,-0.003,0.001,-0.004,0.204,0.409,0.875,-0.084,0.273,-0.406
250,-0.003,0.001,-0.004,0.204,0.409,0.875,-0.087,0.277,-0.408
251,-0.01,0.0,-0.004,0.204,0.412,0.874,-0.084,0.267,-0.399
252,-0.003,-0.002,-0.002,0.206,0.413,0.876,-0.09,0.265,-0.409
253,-0.008,-0.003,-0.003,0.207,0.412,0.879,-0.091,0.268,-0.408
254,-0.011,-0.007,0.0,0.207,0.413,0.878,-0.084,0.268,-0.417
255,-0.004,-0.002,0.002,0.204,0.414,0.874,-0.081,0.268,-0.403
256,0.007,-0.004,0.005,0.201,0.412,0.87,-0.097,0.264,-0.406
257,0.004,-0.002,0.001,0.199,0.407,0.872,-0.09,0.268,-0.406
258,-0.01,-0.004,-0.005,0.199,0.405,0.877,-0.091,0.27,-0.4
259,-0.009,-0.003,-0.004,0.203,0.409,0.879,-0.087,0.267,-0.411
260,-0.007,0.0,-0.007,0.204,0.411,0.878,-0.094,0.268,-0.412
261,-0.018,0.0,-0.011,0.207,0.412,0.875,-0.082,0.27,-0.406
262,-0.021,-0.005,-0.003,0.21,0.419,0.873,-0.082,0.27,-0.406
263,-0.003,-0.005,0.004,0.209,0.419,0.874,-0.078,0.273,-0.408
264,0.0,-0.002,0.005,0.206,0.413,0.875,-0.087,0.276,-0.408
265,0.002,-0.002,0.004,0.202,0.407,0.876,-0.078,0.276,-0.408
266,-0.003,-0.003,0.0,0.199,0.407,0.875,-0.085,0.268,-0.415
267,0.003,-0.004,0.0,0.2,0.411,0.873,-0.09,0.252,-0.411
268,0.003,-0.004,0.0,0.2,0.411,0.873,-0.091,0.267,-0.405
269,0.004,0.0,-0.002,0.202,0.409,0.875,-0.091,0.273,-0.403
270,-0.007,-0.002,-0.007,0.205,0.411,0.877,-0.088,0.265,-0.406
271,-0.008,-0.008,-0.001,0.209,0.416,0.876,-0.09,0.274,-0.403
272,0.007,-0.002,0.005,0.209,0.416,0.876,-0.09,0.271,-0.402
273,0.0,0.0,0.002,0.205,0.412,0.874,-0.088,0.277,-0.411
274,-0.016,-0.004,-0.001,0.202,0.409,0.872,-0.084,0.262,-0.403
275,-0.026,-0.007,0.0,0.201,0.409,0.873,-0.081,0.271,-0.409
276,-0.011,-0.006,0.003,0.203,0.413,0.876,-0.096,0.274,-0.406
277,0.002,-0.001,0.0,0.203,0.41,0.879,-0.082,0.265,-0.406
278,-0.009,0.0,-0.004,0.204,0.411,0.879,-0.082,0.265,-0.406
279,0.0,-0.009,0.002,0.206,0.417,0.876,-0.088,0.271,-0.402
280,0.025,0.001,0.01,0.206,0.415,0.873,-0.088,0.276,-0.406
281,0.018,0.004,0.004,0.204,0.409,0.872,-0.088,0.274,-0.408
282,-0.014,-0.005,0.0,0.203,0.407,0.873,-0.097,0.265,-0.414
283,-0.03,-0.011,-0.001,0.203,0.411,0.876,-0.085,0.282,-0.409
284,0.0,-0.007,0.004,0.206,0.415,0.877,-0.084,0.273,-0.414
285,0.02,0.002,0.002,0.205,0.412,0.878,-0.084,0.279,-0.406
286,0.02,0.002,0.002,0.205,0.412,0.878,-0.084,0.273,-0.414
287,-0.002,-0.001,-0.003,0.204,0.409,0.876,-0.088,0.28,-0.408
288,-0.018,-0.01,0.0,0.205,0.413,0.872,-0.09,0.271,-0.402
289,0.007,-0.008,0.009,0.206,0.415,0.871,-0.079,0.268,-0.409
290,0.018,0.0,0.004,0.204,0.409,0.875,-0.082,0.273,-0.411
291,-0.005,-0.003,-0.002,0.203,0.405,0.879,-0.081,0.271,-0.396
292,-0.023,-0.009,-0.002,0.202,0.412,0.88,-0.085,0.28,-0.411
293,0.034,-0.006,0.015,0.204,0.418,0.877,-0.085,0.28,-0.411
294,0.081,0.017,0.02,0.205,0.41,0.876,-0.087,0.268,-0.411
295,0.046,0.009,0.012,0.203,0.405,0.875,-0.088,0.279,-0.411
296,0.001,-0.011,0.007,0.203,0.405,0.874,-0.081,0.271,-0.4
297,-0.002,-0.011,0.004,0.204,0.405,0.874,-0.087,0.268,-0.412
298,0.01,0.0,0.001,0.204,0.407,0.878,-0.073,0.267,-0.411
299,0.011,-0.003,0.004,0.203,0.407,0.882,-0.09,0.259,-0.412
300,0.016,-0.002,0.008,0.202,0.408,0.882,-0.082,0.271,-0.409
301,0.023,0.0,0.008,0.202,0.405,0.879,-0.082,0.268,-0.406
302,0.009,0.0,0.003,0.203,0.401,0.876,-0.085,0.27,-0.414
303,-0.011,-0.004,-0.001,0.203,0.403,0.877,-0.084,0.271,-0.415
304,-0.011,-0.004,-0.001,0.203,0.403,0.877,-0.088,0.268,-0.411
305,-0.012,-0.011,0.002,0.204,0.406,0.879,-0.081,0.274,-0.408
306,0.0,-0.003,0.002,0.203,0.404,0.881,-0.084,0.267,-0.412
307,-0.001,0.0,-0.001,0.202,0.402,0.88,-0.082,0.277,-0.411
308,-0.012,-0.004,-0.002,0.202,0.404,0.877,-0.082,0.277,-0.411
309,-0.018,-0.007,-0.002,0.201,0.404,0.874,-0.082,0.273,-0.414
310,-0.02,-0.006,-0.005,0.201,0.403,0.875,-0.088,0.267,-0.415
311,-0.002,-0.006,0.0,0.203,0.405,0.879,-0.09,0.258,-0.406
312,0.011,0.0,-0.004,0.203,0.404,0.884,-0.084,0.274,-0.409
313,-0.013,-0.004,-0.007,0.205,0.405,0.885,-0.091,0.273,-0.408
314,-0.021,-0.009,0.0,0.208,0.41,0.879,-0.081,0.265,-0.417
315,0.001,-0.004,0.005,0.204,0.409,0.874,-0.09,0.265,-0.402
316,0.014,0.0,0.004,0.202,0.404,0.872,-0.081,0.273,-0.411
317,0.004,-0.002,0.004,0.2,0.401,0.876,-0.09,0.264,-0.406
318,-0.018,-0.009,-0.002,0.199,0.402,0.882,-0.078,0.271,-0.424
319,0.001,0.016,-0.047,0.202,0.402,0.874,-0.085,0.264,-0.417
320,0.001,0.016,-0.047,0.202,0.402,0.874,-0.085,0.264,-0.417
321,0.001,0.016,-0.047,0.202,0.402,0.874,-0.085,0.264,-0.417
322,-0.03,0.0,0.007,0.202,0.402,0.875,-0.079,0.262,-0.417
323,-0.03,0.0,0.007,0.202,0.402,0.875,-0.087,0.27,-0.412
324,-0.009,-0.004,0.0,0.203,0.403,0.876,-0.087,0.27,-0.412
325,-0.006,-0.003,0.0,0.202,0.403,0.876,-0.096,0.262,-0.415
326,-0.003,-0.003,0.001,0.203,0.404,0.876,-0.081,0.276,-0.396
327,-0.004,-0.002,0.0,0.204,0.403,0.876,-0.081,0.276,-0.396
328,-0.011,-0.005,0.0,0.205,0.404,0.875,-0.091,0.271,-0.418
329,-0.011,-0.004,0.0,0.204,0.404,0.875,-0.094,0.274,-0.409
330,-0.016,-0.006,-0.004,0.203,0.404,0.875,-0.094,0.27,-0.417
331,-0.007,-0.007,0.0,0.203,0.405,0.874,-0.085,0.27,-0.412
332,0.0,-0.002,0.001,0.202,0.402,0.875,-0.087,0.258,-0.409
333,-0.01,-0.002,-0.005,0.201,0.401,0.876,-0.093,0.27,-0.42
334,-0.018,-0.008,-0.008,0.202,0.403,0.876,-0.082,0.273,-0.406
335,-0.012,-0.008,-0.005,0.206,0.406,0.877,-0.088,0.271,-0.411
336,-0.01,-0.004,0.0,0.209,0.41,0.877,-0.09,0.264,-0.423
337,-0.012,-0.009,0.002,0.209,0.411,0.876,-0.085,0.264,-0.405
338,-0.01,-0.01,0.005,0.206,0.406,0.874,-0.09,0.271,-0.411
339,-0.012,-0.011,0.002,0.201,0.401,0.873,-0.09,0.271,-0.411
340,-0.015,-0.014,-0.003,0.201,0.401,0.875,-0.079,0.256,-0.412
341,-0.015,-0.014,-0.003,0.201,0.401,0.875,-0.096,0.265,-0.414
342,-0.024,-0.012,-0.007,0.203,0.404,0.877,-0.085,0.261,-0.412
343,-0.028,-0.016,-0.004,0.205,0.408,0.876,-0.085,0.268,-0.414
344,-0.027,-0.02,-0.001,0.208,0.41,0.874,-0.081,0.268,-0.412
345,-0.021,-0.016,-0.001,0.211,0.412,0.873,-0.082,0.28,-0.421
346,-0.02,-0.023,0.004,0.209,0.411,0.875,-0.09,0.271,-0.403
347,-0.044,-0.035,0.004,0.213,0.412,0.874,-0.094,0.273,-0.411
348,-0.023,-0.017,0.002,0.211,0.414,0.872,-0.087,0.277,-0.403
349,-0.03,-0.028,0.009,0.206,0.412,0.87,-0.088,0.273,-0.409
350,-0.037,-0.026,-0.001,0.204,0.41,0.868,-0.091,0.274,-0.415
351,-0.037,-0.032,-0.009,0.202,0.407,0.869,-0.084,0.264,-0.414
352,-0.025,-0.026,-0.017,0.208,0.409,0.871,-0.09,0.274,-0.411
353,-0.014,-0.019,-0.023,0.209,0.411,0.871,-0.087,0.273,-0.409
354,-0.021,-0.026,-0.034,0.213,0.409,0.869,-0.087,0.273,-0.409
355,-0.027,-0.021,-0.016,0.221,0.42,0.868,-0.091,0.27,-0.402
356,-0.018,-0.025,-0.004,0.223,0.428,0.871,-0.093,0.271,-0.415
357,-0.022,-0.024,0.001,0.223,0.425,0.873,-0.091,0.271,-0.409
358,-0.009,-0.011,0.001,0.22,0.419,0.869,-0.093,0.271,-0.408
359,-0.009,-0.011,0.001,0.22,0.419,0.869,-0.09,0.267,-0.405
360,-0.014,-0.016,-0.006,0.212,0.409,0.866,-0.084,0.273,-0.408
361,-0.023,-0.015,-0.01,0.211,0.409,0.864,-0.091,0.271,-0.408
362,-0.011,-0.011,-0.008,0.214,0.414,0.866,-0.087,0.271,-0.412
363,-0.024,-0.018,-0.008,0.216,0.418,0.872,-0.096,0.273,-0.403
364,-0.039,-0.024,-0.011,0.221,0.421,0.871,-0.099,0.271,-0.406
365,-0.033,-0.018,-0.009,0.226,0.424,0.866,-0.085,0.265,-0.402
366,-0.018,-0.009,-0.007,0.224,0.422,0.863,-0.085,0.274,-0.402
367,-0.007,-0.003,-0.009,0.22,0.42,0.864,-0.097,0.268,-0.406
368,-0.011,-0.01,-0.014,0.214,0.419,0.866,-0.09,0.267,-0.403
369,-0.016,-0.017,-0.041,0.202,0.414,0.872,-0.09,0.267,-0.403
370,-0.058,0.039,-0.091,0.214,0.408,0.882,-0.088,0.273,-0.399
371,-0.063,0.084,-0.12,0.222,0.416,0.859,-0.094,0.271,-0.406
372,-0.063,-0.042,-0.05,0.223,0.426,0.848,-0.09,0.271,-0.402
373,-0.058,-0.033,-0.047,0.229,0.435,0.86,-0.096,0.282,-0.4
374,-0.03,-0.02,-0.074,0.226,0.439,0.858,-0.1,0.279,-0.408
375,-0.003,-0.002,-0.085,0.219,0.434,0.872,-0.097,0.285,-0.39
376,0.037,0.025,-0.168,0.2,0.43,0.878,-0.097,0.271,-0.399
377,0.037,0.025,-0.168,0.2,0.43,0.878,-0.094,0.276,-0.408
378,0.037,0.091,-0.283,0.213,0.405,0.884,-0.112,0.276,-0.409
379,-0.037,0.19,-0.353,0.235,0.406,0.873,-0.109,0.28,-0.397
380,-0.026,0.133,-0.327,0.224,0.428,0.854,-0.114,0.268,-0.4
381,-0.082,0.019,-0.268,0.236,0.424,0.856,-0.121,0.277,-0.4
382,-0.141,-0.103,-0.245,0.218,0.432,0.894,-0.121,0.276,-0.394
383,-0.24,-0.231,-0.284,0.241,0.426,0.866,-0.129,0.274,-0.396
384,-0.193,-0.135,-0.217,0.282,0.423,0.825,-0.129,0.274,-0.396
385,-0.162,-0.157,-0.216,0.26,0.422,0.844,-0.132,0.274,-0.397
386,-0.101,-0.168,-0.217,0.275,0.405,0.833,-0.135,0.285,-0.393
387,-0.097,-0.143,-0.164,0.285,0.403,0.827,-0.133,0.276,-0.394
388,-0.078,-0.14,-0.143,0.283,0.411,0.825,-0.144,0.274,-0.382
389,0.0,-0.116,-0.14,0.285,0.419,0.82,-0.139,0.277,-0.39
390,0.13,-0.096,-0.143,0.279,0.409,0.812,-0.144,0.28,-0.397
391,0.212,-0.137,-0.173,0.261,0.386,0.791,-0.148,0.274,-0.393
392,0.354,-0.286,-0.234,0.244,0.354,0.75,-0.157,0.255,-0.399
393,0.521,-0.522,-0.318,0.247,0.313,0.718,-0.163,0.264,-0.396
394,0.681,-0.66,-0.408,0.204,0.256,0.767,-0.174,0.267,-0.412
395,0.681,-0.66,-0.408,0.204,0.256,0.767,-0.184,0.261,-0.409
396,0.511,-0.534,-0.823,0.234,0.154,0.904,-0.204,0.246,-0.399
397,0.294,-0.578,-0.982,0.324,0.165,0.904,-0.217,0.229,-0.408
398,0.196,-0.358,-1.416,0.242,0.289,0.832,-0.235,0.211,-0.397
399,0.15,-0.545,-2.06,0.209,0.242,0.944,-0.235,0.211,-0.397
400,0.098,-1.608,-2.072,0.46,0.076,0.918,-0.262,0.202,-0.393
401,-0.158,-1.372,-1.689,0.754,0.078,0.76,-0.297,0.189,-0.388
402,-0.194,-0.754,-1.292,0.873,0.272,0.776,-0.319,0.174,-0.373
403,0.052,-0.525,-0.929,0.982,0.381,0.833,-0.33,0.171,-0.372
404,0.226,-0.214,-0.536,1.058,0.355,0.814,-0.336,0.16,-0.366
405,0.116,0.188,-0.228,0.995,0.29,0.726,-0.336,0.159,-0.378
406,-0.098,0.48,-0.013,0.877,0.2,0.673,-0.342,0.15,-0.376
407,-0.336,0.401,0.151,0.747,0.129,0.68,-0.336,0.154,-0.391
408,-0.562,0.296,0.207,0.641,0.094,0.705,-0.325,0.154,-0.379
409,-0.889,0.8,0.156,0.625,0.043,0.78,-0.33,0.172,-0.379
410,-1.103,1.36,0.256,0.591,0.173,0.845,-0.309,0.18,-0.373
411,-0.686,0.734,0.487,0.593,0.354,0.856,-0.3,0.184,-0.381
412,-0.627,0.424,0.665,0.706,0.382,0.871,-0.283,0.202,-0.378
413,-0.627,0.424,0.665,0.706,0.382,0.871,-0.283,0.22,-0.373
414,-0.765,0.081,0.964,0.855,0.478,0.892,-0.265,0.234,-0.361
415,-0.91,-0.118,1.5,0.96,0.563,0.853,-0.265,0.234,-0.361
416,-0.958,-0.028,2.061,0.943,0.576,0.835,-0.253,0.256,-0.351
417,-0.809,-0.061,2.562,0.795,0.557,0.837,-0.222,0.283,-0.348
418,-0.406,-0.306,2.848,0.576,0.486,0.757,-0.192,0.306,-0.331
419,0.033,-0.648,2.951,0.514,0.415,0.644,-0.156,0.315,-0.336
420,0.245,-0.697,2.972,0.543,0.407,0.542,-0.106,0.316,-0.339
421,0.354,-0.513,3.014,0.49,0.413,0.566,-0.067,0.324,-0.337
422,0.513,-0.513,2.966,0.356,0.366,0.617,-0.03,0.322,-0.345
423,0.741,-0.52,2.71,0.137,0.249,0.602,0.006,0.316,-0.361
424,0.814,-0.49,2.319,-0.058,0.182,0.644,0.025,0.306,-0.372
425,0.949,-0.68,1.927,-0.086,0.202,0.668,0.052,0.277,-0.378
426,1.046,-0.622,1.547,-0.11,0.142,0.729,0.069,0.274,-0.397
427,0.779,-0.565,1.079,-0.203,0.047,0.829,0.073,0.258,-0.408
428,0.455,-0.401,0.583,-0.261,0.03,0.89,0.078,0.259,-0.414
429,0.199,-0.241,-0.046,-0.37,-0.031,0.938,0.073,0.246,-0.423
430,-0.021,-0.074,-0.824,-0.489,-0.139,0.949,0.073,0.246,-0.423
431,-0.021,-0.074,-0.824,-0.483,-0.201,0.932,0.063,0.256,-0.423
432,-0.065,0.067,-1.738,-0.483,-0.201,0.932,0.046,0.265,-0.426
433,0.058,-0.084,-2.573,-0.302,-0.21,0.889,0.021,0.267,-0.423
434,0.057,-0.187,-3.206,-0.024,-0.228,0.855,-0.021,0.271,-0.418
435,-0.074,0.048,-3.684,0.22,-0.243,0.886,-0.07,0.285,-0.414
436,-0.144,0.284,-3.998,0.448,-0.164,0.995,-0.118,0.276,-0.421
437,-0.217,0.338,-3.98,0.665,0.022,1.075,-0.163,0.265,-0.412
438,-0.382,0.337,-3.617,0.897,0.255,1.048,-0.202,0.247,-0.417
439,-0.548,0.462,-2.786,1.138,0.505,0.975,-0.231,0.228,-0.406
440,-0.517,0.54,-1.89,1.19,0.688,0.939,-0.238,0.214,-0.397
441,-0.46,0.268,-1.199,1.114,0.72,0.921,-0.253,0.214,-0.391
442,-0.504,0.027,-0.68,1.108,0.7,0.902,-0.264,0.21,-0.39
443,-0.515,0.169,-0.183,1.138,0.696,0.865,-0.262,0.22,-0.384
444,-0.322,0.606,0.387,1.109,0.718,0.838,-0.241,0.228,-0.394
445,-0.245,0.98,0.964,1.02,0.697,0.853,-0.241,0.228,-0.394
446,-0.274,1.055,1.536,0.893,0.599,0.881,-0.231,0.228,-0.399
447,-0.469,0.89,2.064,0.662,0.469,0.888,-0.211,0.241,-0.4
448,-0.602,0.482,2.359,0.473,0.37,0.85,-0.172,0.261,-0.406
449,-0.521,0.24,2.599,0.378,0.343,0.772,-0.151,0.273,-0.391
450,-0.521,0.24,2.599,0.378,0.343,0.772,-0.106,0.285,-0.396
451,-0.243,-0.042,2.728,0.289,0.326,0.739,-0.075,0.303,-0.385
452,-0.163,-0.379,2.797,0.241,0.287,0.78,-0.042,0.301,-0.384
453,-0.207,-0.502,2.639,0.128,0.21,0.787,-0.015,0.301,-0.381
454,-0.24,-0.574,2.345,-0.01,0.169,0.769,0.021,0.295,-0.378
455,-0.255,-0.625,2.119,-0.069,0.207,0.742,0.04,0.292,-0.375
456,0.034,-0.572,1.768,-0.164,0.178,0.735,0.058,0.282,-0.37
457,0.261,-0.436,1.327,-0.296,0.116,0.792,0.07,0.279,-0.384
458,0.337,-0.365,0.847,-0.346,0.121,0.818,0.082,0.27,-0.39
459,0.39,-0.291,0.381,-0.368,0.121,0.822,0.084,0.267,-0.391
460,0.312,-0.283,-0.127,-0.42,0.07,0.843,0.084,0.267,-0.391
461,0.198,-0.242,-0.756,-0.444,0.016,0.827,0.078,0.262,-0.402
462,0.226,-0.21,-1.449,-0.395,-0.039,0.783,0.067,0.271,-0.402
463,0.371,-0.238,-2.135,-0.247,-0.082,0.765,0.04,0.277,-0.406
464,0.496,-0.413,-2.608,-0.029,-0.073,0.751,0.012,0.27,-0.417
465,0.5,-0.584,-2.87,0.153,-0.057,0.785,-0.021,0.273,-0.424
466,0.257,-0.692,-3.098,0.265,-0.051,0.912,-0.06,0.259,-0.435
467,-0.1,-0.797,-3.224,0.469,0.028,1.046,-0.106,0.262,-0.42
468,-0.1,-0.797,-3.224,0.469,0.028,1.046,-0.148,0.255,-0.421
469,-0.48,-0.574,-2.982,0.79,0.274,1.116,-0.192,0.241,-0.412
470,-0.546,-0.166,-2.342,1.03,0.593,1.082,-0.214,0.231,-0.397
471,-0.43,0.165,-1.585,1.081,0.75,1.029,-0.234,0.229,-0.402
472,-0.413,0.176,-0.957,1.011,0.744,1.026,-0.235,0.222,-0.405
473,-0.628,0.068,-0.544,0.999,0.71,0.996,-0.229,0.225,-0.396
474,-0.847,0.291,0.032,1.067,0.753,0.897,-0.238,0.232,-0.393
475,-0.682,0.728,0.737,1.02,0.794,0.829,-0.238,0.232,-0.393
476,-0.375,0.875,1.244,0.845,0.655,0.798,-0.226,0.24,-0.384
477,-0.305,0.931,1.561,0.682,0.486,0.795,-0.198,0.256,-0.396
478,-0.401,0.789,1.85,0.561,0.438,0.801,-0.172,0.256,-0.397
479,-0.343,0.506,2.07,0.422,0.386,0.737,-0.145,0.28,-0.385
480,-0.203,0.182,2.155,0.251,0.293,0.684,-0.117,0.292,-0.39
481,-0.074,-0.086,2.243,0.166,0.272,0.733,-0.09,0.294,-0.382
482,0.016,-0.135,2.244,0.136,0.272,0.816,-0.048,0.303,-0.382
483,0.071,-0.094,1.978,-0.028,0.182,0.817,-0.025,0.304,-0.382
484,0.019,-0.149,1.484,-0.224,0.1,0.774,0.0,0.306,-0.378
485,-0.042,-0.173,1.038,-0.272,0.132,0.771,0.006,0.3,-0.39
486,-0.042,-0.173,1.038,-0.272,0.132,0.771,0.019,0.295,-0.381
487,0.093,-0.178,0.739,-0.238,0.2,0.779,0.027,0.292,-0.385
488,0.192,-0.254,0.509,-0.234,0.228,0.788,0.037,0.276,-0.382
489,0.164,-0.371,0.232,-0.258,0.232,0.804,0.03,0.289,-0.388
490,0.142,-0.404,-0.105,-0.248,0.228,0.793,0.03,0.289,-0.388
491,0.165,-0.31,-0.543,-0.239,0.204,0.799,0.024,0.289,-0.396
492,0.182,-0.35,-1.064,-0.205,0.156,0.783,0.019,0.285,-0.39
493,0.266,-0.362,-1.579,-0.119,0.108,0.76,-0.004,0.289,-0.399
494,0.271,-0.502,-1.988,0.0,0.096,0.772,-0.033,0.288,-0.4
495,0.279,-0.656,-2.17,0.159,0.138,0.8,-0.051,0.282,-0.405
496,0.32,-0.659,-2.08,0.326,0.228,0.854,-0.079,0.279,-0.411
497,0.338,-0.454,-1.952,0.406,0.298,0.935,-0.118,0.267,-0.402
498,0.222,-0.602,-1.955,0.413,0.268,0.981,-0.169,0.246,-0.411
499,-0.177,-0.768,-2.011,0.463,0.255,0.989,-0.204,0.241,-0.403
500,-0.644,-0.907,-1.829,0.637,0.343,0.99,-0.228,0.234,-0.394
501,-0.799,-0.62,-1.207,0.861,0.531,0.957,-0.232,0.223,-0.376
502,-0.508,-0.122,-0.752,0.919,0.665,0.912,-0.255,0.229,-0.367
503,-0.207,0.03,-0.562,0.837,0.596,0.853,-0.253,0.229,-0.379
504,-0.207,0.03,-0.562,0.837,0.596,0.853,-0.255,0.219,-0.378
505,-0.228,-0.065,-0.433,0.773,0.488,0.814,-0.255,0.219,-0.378
506,-0.324,-0.071,-0.186,0.761,0.47,0.769,-0.259,0.235,-0.367
507,-0.179,0.082,0.108,0.705,0.45,0.717,-0.252,0.237,-0.367
508,0.004,0.141,0.252,0.598,0.375,0.7,-0.255,0.226,-0.369
509,0.091,0.085,0.275,0.508,0.301,0.71,-0.252,0.231,-0.372
510,0.099,-0.005,0.249,0.445,0.243,0.746,-0.247,0.231,-0.372
511,0.006,-0.028,0.224,0.42,0.246,0.798,-0.256,0.235,-0.372
512,-0.01,0.036,0.226,0.423,0.292,0.833,-0.244,0.226,-0.37
513,0.072,0.115,0.206,0.418,0.304,0.857,-0.237,0.243,-0.376
514,0.087,0.123,0.168,0.409,0.3,0.878,-0.24,0.237,-0.381
515,0.034,0.097,0.109,0.415,0.307,0.875,-0.238,0.234,-0.373
516,-0.037,0.062,0.092,0.436,0.319,0.845,-0.235,0.244,-0.376
517,-0.028,0.06,0.095,0.451,0.327,0.81,-0.232,0.246,-0.382
518,-0.011,0.058,0.1,0.456,0.333,0.796,-0.231,0.241,-0.379
519,0.0,0.07,0.125,0.465,0.336,0.8,-0.219,0.253,-0.375
520,0.019,0.091,0.134,0.465,0.338,0.809,-0.219,0.253,-0.375
521,-0.013,0.074,0.123,0.451,0.338,0.815,-0.22,0.24,-0.381
522,-0.013,0.074,0.123,0.451,0.338,0.815,-0.217,0.249,-0.37
523,-0.039,0.051,0.128,0.44,0.333,0.819,-0.223,0.249,-0.394
524,-0.017,0.058,0.143,0.433,0.333,0.824,-0.211,0.258,-0.381
525,-0.005,0.086,0.129,0.415,0.325,0.831,-0.22,0.244,-0.384
526,-0.025,0.095,0.116,0.412,0.338,0.84,-0.22,0.259,-0.379
527,-0.025,0.127,0.132,0.421,0.357,0.844,-0.22,0.258,-0.381
528,-0.024,0.133,0.122,0.412,0.355,0.843,-0.213,0.25,-0.381
529,-0.039,0.098,0.137,0.405,0.356,0.834,-0.201,0.256,-0.376
530,0.0,0.084,0.141,0.396,0.345,0.823,-0.202,0.261,-0.381
531,0.01,0.074,0.112,0.382,0.329,0.819,-0.198,0.253,-0.387
532,0.011,0.075,0.086,0.379,0.33,0.814,-0.202,0.265,-0.378
533,0.018,0.063,0.082,0.376,0.338,0.816,-0.21,0.258,-0.385
534,0.004,0.026,0.049,0.363,0.338,0.826,-0.202,0.258,-0.382
535,-0.023,-0.007,0.015,0.359,0.335,0.836,-0.202,0.258,-0.382
536,-0.012,-0.002,-0.007,0.366,0.34,0.841,-0.202,0.259,-0.379
537,0.017,0.004,-0.025,0.372,0.344,0.842,-0.198,0.252,-0.379
538,0.02,-0.013,-0.039,0.379,0.344,0.841,-0.196,0.258,-0.382
539,-0.004,-0.021,-0.038,0.393,0.353,0.842,-0.204,0.255,-0.378
540,-0.004,-0.021,-0.038,0.393,0.353,0.842,-0.207,0.258,-0.385
541,-0.01,-0.01,-0.026,0.403,0.366,0.839,-0.195,0.253,-0.381
542,0.001,-0.003,-0.019,0.404,0.367,0.834,-0.198,0.268,-0.382
543,0.002,0.0,-0.012,0.407,0.363,0.829,-0.195,0.253,-0.382
544,-0.01,0.005,0.0,0.406,0.359,0.827,-0.204,0.256,-0.373
545,-0.004,-0.014,0.012,0.403,0.361,0.827,-0.198,0.255,-0.375
546,0.028,-0.021,0.03,0.4,0.361,0.832,-0.201,0.247,-0.376
547,0.037,-0.007,0.022,0.386,0.346,0.84,-0.196,0.256,-0.373
548,0.0,-0.009,-0.003,0.373,0.336,0.843,-0.21,0.253,-0.379
549,-0.036,-0.007,-0.014,0.375,0.341,0.84,-0.204,0.255,-0.381
550,-0.02,0.007,-0.016,0.379,0.346,0.841,-0.204,0.255,-0.381
551,-0.021,0.008,-0.027,0.384,0.347,0.842,-0.193,0.253,-0.382
552,-0.032,-0.002,-0.012,0.399,0.364,0.834,-0.201,0.249,-0.385
553,0.021,-0.02,0.005,0.408,0.369,0.828,-0.198,0.258,-0.381
554,0.014,-0.02,0.004,0.406,0.357,0.83,-0.201,0.256,-0.387
555,-0.002,-0.009,0.013,0.405,0.365,0.832,-0.205,0.253,-0.372
556,0.071,-0.006,0.041,0.402,0.369,0.834,-0.207,0.255,-0.387
557,0.112,0.004,0.036,0.388,0.345,0.842,-0.196,0.262,-0.384
558,0.112,0.004,0.036,0.388,0.345,0.842,-0.205,0.256,-0.39
559,0.043,0.006,0.007,0.377,0.326,0.847,-0.202,0.249,-0.385
560,-0.032,-0.005,-0.005,0.377,0.328,0.84,-0.213,0.256,-0.382
561,-0.059,-0.015,0.0,0.383,0.338,0.831,-0.204,0.264,-0.388
562,-0.056,-0.008,-0.014,0.388,0.345,0.832,-0.202,0.258,-0.378
563,-0.05,-0.021,-0.004,0.402,0.368,0.832,-0.207,0.25,-0.382
564,0.03,-0.015,0.019,0.411,0.373,0.835,-0.204,0.258,-0.384
565,0.026,-0.004,0.023,0.404,0.357,0.842,-0.201,0.258,-0.39
566,-0.014,-0.01,0.03,0.402,0.356,0.84,-0.201,0.258,-0.39
567,-0.024,-0.015,0.044,0.396,0.354,0.837,-0.204,0.264,-0.397
568,-0.011,-0.011,0.038,0.391,0.349,0.836,-0.208,0.253,-0.396
569,-0.013,0.006,0.037,0.39,0.351,0.838,-0.205,0.253,-0.397
570,-0.005,0.004,0.052,0.393,0.36,0.838,-0.192,0.258,-0.391
571,0.014,0.022,0.06,0.394,0.36,0.841,-0.198,0.259,-0.393
572,-0.011,0.03,0.055,0.393,0.357,0.843,-0.195,0.258,-0.39
573,-0.029,0.021,0.064,0.397,0.367,0.837,-0.199,0.267,-0.394
574,-0.009,0.014,0.089,0.396,0.37,0.833,-0.198,0.261,-0.384
575,0.008,0.016,0.1,0.395,0.368,0.836,-0.195,0.264,-0.396
576,0.008,0.016,0.1,0.395,0.368,0.836,-0.19,0.258,-0.393
577,0.011,0.031,0.123,0.401,0.376,0.841,-0.202,0.274,-0.393
578,0.037,0.064,0.148,0.406,0.384,0.843,-0.192,0.267,-0.394
579,0.049,0.079,0.194,0.404,0.391,0.846,-0.198,0.261,-0.402
580,0.067,0.082,0.249,0.405,0.399,0.852,-0.187,0.25,-0.408
581,0.077,0.098,0.312,0.409,0.404,0.858,-0.187,0.25,-0.408
582,0.053,0.128,0.375,0.395,0.4,0.859,-0.183,0.267,-0.403
583,0.021,0.123,0.407,0.362,0.387,0.857,-0.183,0.268,-0.405
584,0.035,0.102,0.413,0.337,0.375,0.855,-0.177,0.264,-0.405
585,-0.025,0.026,0.148,0.253,0.334,0.848,-0.156,0.267,-0.411
586,-0.034,0.021,0.085,0.253,0.343,0.844,-0.154,0.27,-0.415
587,-0.018,-0.015,0.034,0.251,0.354,0.842,-0.156,0.27,-0.406
588,0.015,-0.013,-0.005,0.262,0.357,0.847,-0.156,0.279,-0.402
589,0.002,-0.002,-0.03,0.278,0.368,0.854,-0.153,0.265,-0.411
590,0.002,-0.002,-0.03,0.278,0.368,0.854,-0.142,0.262,-0.42
591,0.002,-0.028,-0.03,0.293,0.385,0.86,-0.153,0.27,-0.418
592,0.009,-0.03,-0.047,0.299,0.383,0.865,-0.153,0.27,-0.418
593,-0.028,-0.014,-0.064,0.309,0.385,0.864,-0.153,0.262,-0.411
594,-0.038,-0.008,-0.037,0.318,0.403,0.858,-0.148,0.267,-0.405
595,0.004,-0.025,-0.012,0.31,0.399,0.858,-0.166,0.264,-0.415
596,-0.003,-0.017,-0.027,0.297,0.377,0.858,-0.162,0.264,-0.406
597,-0.018,-0.02,-0.051,0.292,0.366,0.856,-0.157,0.276,-0.409
598,-0.038,-0.028,-0.048,0.296,0.378,0.854,-0.159,0.273,-0.4
599,0.021,-0.044,-0.037,0.301,0.387,0.855,-0.16,0.27,-0.4
600,0.032,-0.032,-0.048,0.304,0.381,0.86,-0.166,0.271,-0.406
601,0.007,-0.036,-0.053,0.31,0.385,0.859,-0.175,0.265,-0.402
602,0.007,-0.044,-0.049,0.318,0.385,0.855,-0.166,0.264,-0.406
603,-0.002,-0.032,-0.05,0.319,0.379,0.854,-0.154,0.261,-0.399
604,-0.028,-0.037,-0.052,0.317,0.38,0.852,-0.172,0.259,-0.393
605,-0.033,-0.063,-0.049,0.314,0.378,0.851,-0.16,0.261,-0.4
606,-0.054,-0.058,-0.054,0.313,0.375,0.852,-0.162,0.268,-0.397
607,-0.044,-0.052,-0.069,0.31,0.375,0.85,-0.162,0.268,-0.397
608,-0.044,-0.052,-0.069,0.31,0.375,0.85,-0.177,0.261,-0.399
609,-0.011,-0.073,-0.086,0.307,0.368,0.844,-0.168,0.273,-0.403
610,0.0,-0.098,-0.102,0.309,0.359,0.838,-0.174,0.255,-0.39
611,0.0,-0.11,-0.114,0.323,0.361,0.841,-0.165,0.264,-0.391
612,-0.003,-0.096,-0.119,0.342,0.376,0.849,-0.166,0.261,-0.399
613,-0.018,-0.088,-0.111,0.355,0.389,0.854,-0.174,0.265,-0.393
614,-0.034,-0.081,-0.106,0.364,0.394,0.855,-0.184,0.264,-0.402
615,-0.042,-0.073,-0.074,0.374,0.405,0.859,-0.177,0.258,-0.403
616,0.004,-0.039,-0.024,0.375,0.404,0.86,-0.181,0.255,-0.397
617,0.024,0.003,-0.009,0.366,0.388,0.859,-0.187,0.258,-0.403
618,-0.001,0.0,-0.008,0.355,0.376,0.851,-0.181,0.252,-0.405
619,-0.033,-0.011,-0.011,0.348,0.367,0.843,-0.181,0.267,-0.393
620,-0.025,-0.006,-0.009,0.345,0.37,0.839,-0.183,0.265,-0.39
621,0.025,-0.003,-0.004,0.346,0.371,0.841,-0.177,0.261,-0.39
622,0.014,0.007,-0.009,0.348,0.369,0.849,-0.177,0.261,-0.39
623,-0.012,0.007,-0.015,0.352,0.376,0.851,-0.174,0.264,-0.391
624,-0.018,-0.009,-0.005,0.357,0.38,0.845,-0.19,0.256,-0.385
625,-0.007,-0.004,-0.006,0.355,0.373,0.842,-0.178,0.267,-0.394
626,-0.007,-0.004,-0.006,0.355,0.373,0.842,-0.174,0.265,-0.391
627,-0.016,0.0,-0.016,0.351,0.37,0.841,-0.187,0.264,-0.394
628,-0.004,0.0,-0.008,0.355,0.376,0.84,-0.171,0.261,-0.402
629,0.008,0.009,-0.002,0.354,0.375,0.845,-0.18,0.265,-0.394
630,-0.016,0.004,-0.009,0.351,0.373,0.848,-0.18,0.261,-0.384
631,-0.023,-0.005,-0.004,0.353,0.377,0.843,-0.183,0.271,-0.396
632,-0.003,-0.009,0.001,0.353,0.375,0.841,-0.184,0.267,-0.391
633,-0.004,-0.003,-0.003,0.351,0.371,0.841,-0.183,0.262,-0.39
634,-0.015,-0.007,-0.011,0.35,0.372,0.844,-0.189,0.259,-0.399
635,-0.016,-0.016,-0.006,0.354,0.377,0.845,-0.178,0.259,-0.399
636,0.001,-0.006,0.002,0.356,0.378,0.847,-0.18,0.261,-0.394
637,-0.006,0.002,0.0,0.353,0.374,0.848,-0.18,0.261,-0.394
638,-0.021,0.003,-0.008,0.352,0.371,0.843,-0.18,0.259,-0.39
639,-0.022,-0.003,-0.004,0.354,0.376,0.837,-0.18,0.27,-0.391
640,0.017,0.0,0.008,0.355,0.379,0.838,-0.18,0.259,-0.4
641,0.021,0.005,0.004,0.351,0.373,0.844,-0.183,0.255,-0.387
642,-0.004,0.001,-0.002,0.352,0.374,0.846,-0.186,0.264,-0.391
643,-0.017,-0.01,0.004,0.357,0.38,0.846,-0.178,0.258,-0.387
644,-0.017,-0.01,0.004,0.357,0.38,0.846,-0.174,0.267,-0.39
645,0.0,-0.019,0.009,0.358,0.38,0.848,-0.183,0.256,-0.394
646,0.016,-0.004,0.009,0.354,0.373,0.846,-0.181,0.265,-0.391
647,0.01,-0.001,0.009,0.351,0.372,0.841,-0.187,0.261,-0.394
648,0.014,-0.007,0.013,0.351,0.374,0.839,-0.184,0.267,-0.388
649,0.005,-0.004,0.009,0.348,0.372,0.843,-0.181,0.267,-0.402
650,0.005,-0.004,0.002,0.349,0.372,0.847,-0.171,0.262,-0.385
651,0.018,0.0,-0.002,0.35,0.367,0.849,-0.175,0.267,-0.396
652,-0.009,0.002,-0.012,0.35,0.365,0.848,-0.175,0.267,-0.396
653,-0.023,-0.009,-0.004,0.356,0.377,0.844,-0.186,0.268,-0.391
654,0.016,-0.009,0.005,0.358,0.379,0.843,-0.174,0.262,-0.394
655,0.013,0.003,0.004,0.358,0.375,0.844,-0.189,0.262,-0.397
656,0.008,-0.007,0.015,0.36,0.382,0.844,-0.183,0.265,-0.385
657,0.043,-0.014,0.025,0.355,0.376,0.847,-0.181,0.259,-0.384
658,0.052,0.004,0.016,0.347,0.36,0.846,-0.181,0.258,-0.39
659,0.019,0.01,0.0,0.344,0.357,0.842,-0.172,0.259,-0.39
660,-0.038,-0.005,-0.005,0.343,0.363,0.841,-0.18,0.256,-0.39
661,-0.022,-0.018,-0.005,0.348,0.368,0.844,-0.177,0.262,-0.393
662,-0.022,-0.018,-0.005,0.348,0.368,0.844,-0.177,0.258,-0.394
663,-0.01,-0.002,-0.008,0.354,0.371,0.849,-0.18,0.268,-0.39
664,-0.008,-0.004,-0.004,0.358,0.377,0.851,-0.174,0.262,-0.393
665,-0.008,-0.002,0.0,0.359,0.375,0.848,-0.18,0.265,-0.39
666,-0.011,0.0,0.0,0.356,0.371,0.84,-0.169,0.261,-0.39
667,-0.014,-0.002,0.001,0.353,0.371,0.838,-0.169,0.261,-0.39
668,-0.004,-0.004,0.001,0.349,0.369,0.843,-0.19,0.261,-0.397
669,-0.007,0.0,-0.003,0.347,0.368,0.848,-0.181,0.259,-0.387
670,-0.011,-0.01,0.0,0.35,0.373,0.85,-0.177,0.262,-0.396
671,-0.007,-0.006,0.001,0.351,0.372,0.851,-0.178,0.261,-0.402
672,-0.01,0.001,-0.005,0.352,0.371,0.848,-0.18,0.258,-0.393
673,-0.009,-0.004,-0.004,0.355,0.373,0.842,-0.181,0.259,-0.393
674,-0.003,-0.001,0.0,0.355,0.371,0.842,-0.181,0.252,-0.382
675,-0.004,-0.004,0.003,0.356,0.373,0.843,-0.178,0.27,-0.388
676,-0.004,-0.008,0.005,0.355,0.374,0.845,-0.183,0.256,-0.387
677,-0.01,-0.004,-0.002,0.35,0.37,0.846,-0.184,0.256,-0.4
678,-0.019,-0.001,-0.009,0.35,0.368,0.844,-0.183,0.255,-0.4
679,-0.025,-0.006,-0.005,0.352,0.373,0.845,-0.172,0.265,-0.388
680,-0.025,-0.006,-0.005,0.352,0.374,0.849,-0.181,0.25,-0.396
681,-0.016,0.001,0.0,0.353,0.374,0.849,-0.178,0.268,-0.387
682,-0.017,0.004,-0.005,0.356,0.375,0.847,-0.178,0.268,-0.387
683,-0.011,-0.009,0.002,0.361,0.379,0.842,-0.18,0.27,-0.388
684,-0.004,-0.005,0.004,0.356,0.375,0.841,-0.178,0.267,-0.385
685,-0.01,0.0,-0.001,0.35,0.371,0.84,-0.174,0.255,-0.394
686,-0.014,-0.004,0.0,0.35,0.374,0.842,-0.174,0.265,-0.387
687,-0.016,-0.007,0.0,0.347,0.373,0.847,-0.178,0.258,-0.391
688,-0.025,0.0,-0.009,0.347,0.371,0.847,-0.184,0.252,-0.388
689,-0.029,0.0,-0.014,0.352,0.374,0.842,-0.171,0.262,-0.385
690,-0.032,-0.011,-0.011,0.357,0.377,0.841,-0.175,0.268,-0.387
691,-0.03,-0.004,-0.011,0.357,0.377,0.842,-0.177,0.256,-0.391
692,-0.03,0.0,-0.014,0.356,0.379,0.842,-0.184,0.265,-0.385
693,-0.024,-0.003,-0.007,0.356,0.381,0.842,-0.172,0.259,-0.397
694,-0.018,0.0,-0.004,0.353,0.377,0.843,-0.178,0.259,-0.387
695,-0.016,0.004,-0.007,0.353,0.377,0.842,-0.186,0.256,-0.387
696,-0.007,-0.004,-0.001,0.354,0.38,0.84,-0.178,0.268,-0.39
697,-0.002,-0.001,0.0,0.352,0.376,0.84,-0.178,0.268,-0.39
698,-0.006,0.005,-0.006,0.351,0.377,0.84,-0.189,0.262,-0.385
699,-0.006,0.005,-0.006,0.351,0.377,0.84,-0.183,0.262,-0.387
700,-0.009,-0.002,-0.007,0.354,0.38,0.84,-0.181,0.258,-0.379
701,-0.016,-0.006,-0.009,0.355,0.378,0.844,-0.175,0.265,-0.381
702,-0.02,0.001,-0.009,0.357,0.378,0.845,-0.183,0.258,-0.378
703,-0.01,0.0,-0.002,0.359,0.383,0.842,-0.178,0.259,-0.376
704,-0.014,-0.004,0.0,0.355,0.382,0.84,-0.178,0.255,-0.385
705,-0.023,-0.004,-0.006,0.35,0.38,0.838,-0.186,0.264,-0.388
706,0.0,-0.011,0.005,0.354,0.384,0.837,-0.186,0.264,-0.378
707,0.024,-0.001,0.011,0.352,0.379,0.841,-0.178,0.265,-0.39
708,-0.002,0.0,-0.001,0.351,0.375,0.845,-0.178,0.262,-0.375
709,-0.018,-0.002,-0.002,0.356,0.38,0.84,-0.189,0.255,-0.382
710,-0.003,-0.005,0.0,0.356,0.38,0.839,-0.186,0.258,-0.387
711,-0.002,0.002,-0.002,0.356,0.38,0.84,-0.19,0.256,-0.382
712,-0.011,0.002,0.0,0.356,0.382,0.841,-0.19,0.255,-0.381
713,-0.021,0.003,0.0,0.353,0.379,0.843,-0.19,0.255,-0.381
714,-0.021,-0.002,0.0,0.353,0.381,0.839,-0.195,0.259,-0.375
715,0.0,-0.001,0.006,0.353,0.382,0.838,-0.184,0.244,-0.385
716,0.009,0.002,0.005,0.35,0.381,0.838,-0.187,0.255,-0.384
717,0.009,0.002,0.005,0.35,0.381,0.838,-0.177,0.252,-0.388
718,0.013,-0.001,0.001,0.352,0.381,0.839,-0.189,0.253,-0.376
719,-0.002,-0.003,0.0,0.352,0.378,0.842,-0.183,0.264,-0.382
720,-0.016,-0.005,-0.007,0.351,0.377,0.843,-0.186,0.258,-0.382
721,-0.013,-0.007,-0.005,0.356,0.381,0.841,-0.187,0.259,-0.379
722,-0.005,0.003,0.0,0.357,0.383,0.841,-0.189,0.258,-0.388
723,-0.016,-0.002,-0.002,0.355,0.384,0.84,-0.186,0.256,-0.378
724,-0.018,-0.009,0.001,0.357,0.387,0.837,-0.19,0.27,-0.382
725,0.018,-0.004,0.016,0.356,0.385,0.839,-0.189,0.258,-0.382
726,0.025,0.005,0.011,0.35,0.377,0.842,-0.183,0.258,-0.382
727,-0.009,-0.002,0.0,0.348,0.374,0.842,-0.181,0.262,-0.384
728,-0.03,-0.009,-0.002,0.351,0.379,0.84,-0.181,0.262,-0.384
729,-0.006,-0.002,0.002,0.353,0.383,0.839,-0.178,0.262,-0.385
730,0.009,0.001,0.0,0.354,0.382,0.84,-0.184,0.259,-0.387
731,-0.013,-0.004,-0.002,0.355,0.381,0.84,-0.189,0.261,-0.387
732,-0.025,-0.006,-0.001,0.355,0.383,0.839,-0.186,0.252,-0.379
733,-0.002,-0.003,0.005,0.355,0.384,0.838,-0.18,0.259,-0.39
734,0.016,0.0,0.005,0.353,0.381,0.839,-0.184,0.258,-0.387
735,0.016,0.0,0.005,0.353,0.381,0.839,-0.19,0.255,-0.376
736,0.0,-0.001,0.002,0.352,0.38,0.842,-0.178,0.259,-0.388
737,-0.007,0.0,0.002,0.351,0.38,0.843,-0.189,0.265,-0.387
738,-0.014,0.0,-0.005,0.348,0.377,0.841,-0.196,0.258,-0.373
739,-0.021,-0.004,-0.01,0.35,0.38,0.838,-0.186,0.267,-0.39
740,-0.002,-0.006,0.001,0.354,0.384,0.838,-0.19,0.262,-0.388
741,0.012,0.0,0.0,0.354,0.383,0.84,-0.184,0.255,-0.378
742,-0.011,-0.004,-0.009,0.353,0.381,0.839,-0.181,0.25,-0.378
743,-0.021,-0.005,-0.007,0.354,0.383,0.839,-0.181,0.25,-0.378
744,-0.014,-0.004,0.0,0.355,0.385,0.84,-0.181,0.261,-0.387
745,-0.002,0.002,-0.002,0.353,0.382,0.841,-0.183,0.261,-0.375
746,-0.021,0.0,-0.007,0.353,0.379,0.841,-0.183,0.261,-0.373
747,-0.018,0.004,-0.002,0.355,0.384,0.837,-0.18,0.262,-0.379
748,0.0,-0.003,0.004,0.355,0.386,0.836,-0.186,0.256,-0.37
749,0.003,-0.004,0.002,0.353,0.384,0.839,-0.19,0.247,-0.382
750,0.004,0.0,0.003,0.352,0.383,0.841,-0.18,0.253,-0.379
751,0.007,-0.003,0.004,0.354,0.384,0.841,-0.178,0.246,-0.39
752,0.002,-0.009,0.004,0.353,0.381,0.841,-0.18,0.258,-0.381
753,0.002,-0.009,0.004,0.353,0.381,0.841,-0.195,0.259,-0.372
754,-0.01,-0.005,-0.001,0.351,0.377,0.84,-0.189,0.262,-0.384
755,-0.017,-0.003,-0.007,0.352,0.378,0.837,-0.189,0.253,-0.384
756,-0.009,-0.006,-0.001,0.356,0.385,0.836,-0.181,0.256,-0.385
757,0.012,-0.002,0.004,0.355,0.386,0.838,-0.186,0.256,-0.39
758,0.007,0.001,0.0,0.351,0.381,0.839,-0.186,0.256,-0.39
759,-0.011,-0.002,-0.007,0.35,0.379,0.839,-0.181,0.256,-0.378
760,-0.02,-0.005,-0.004,0.354,0.384,0.84,-0.18,0.249,-0.381
761,0.002,-0.002,0.004,0.357,0.385,0.844,-0.186,0.256,-0.387
762,0.0,0.0,-0.001,0.355,0.381,0.846,-0.184,0.256,-0.387
763,-0.015,0.0,-0.004,0.355,0.382,0.841,-0.184,0.261,-0.385
764,-0.014,-0.002,0.0,0.352,0.387,0.835,-0.186,0.264,-0.387
765,0.007,-0.007,0.009,0.351,0.389,0.833,-0.184,0.264,-0.375
766,0.017,0.002,0.007,0.349,0.382,0.839,-0.174,0.259,-0.385
767,-0.007,-0.003,-0.003,0.348,0.378,0.842,-0.178,0.265,-0.382
768,-0.018,-0.009,-0.003,0.352,0.38,0.841,-0.189,0.258,-0.381
769,0.0,-0.004,-0.003,0.353,0.38,0.84,-0.181,0.259,-0.384
770,0.001,0.002,-0.009,0.354,0.38,0.84,-0.184,0.264,-0.373
771,0.001,0.002,-0.009,0.354,0.38,0.84,-0.192,0.267,-0.382
772,-0.011,-0.001,-0.009,0.356,0.384,0.841,-0.175,0.246,-0.384
773,-0.014,-0.007,0.001,0.358,0.39,0.84,-0.175,0.246,-0.384
774,0.01,0.0,0.006,0.355,0.385,0.84,-0.183,0.258,-0.376
775,0.0,0.0,0.0,0.352,0.379,0.839,-0.181,0.25,-0.382
776,-0.007,-0.004,0.001,0.352,0.382,0.837,-0.186,0.258,-0.379
777,0.0,-0.004,0.0,0.35,0.38,0.839,-0.19,0.256,-0.378
778,-0.004,-0.003,-0.007,0.35,0.378,0.841,-0.18,0.258,-0.384
779,-0.013,-0.003,-0.01,0.353,0.38,0.843,-0.181,0.267,-0.378
780,-0.018,-0.01,-0.004,0.356,0.385,0.842,-0.187,0.252,-0.379
781,-0.015,-0.011,-0.002,0.356,0.387,0.84,-0.181,0.255,-0.375
782,-0.022,-0.01,-0.004,0.356,0.386,0.837,-0.187,0.261,-0.376
783,-0.014,-0.009,-0.001,0.357,0.385,0.834,-0.18,0.258,-0.382
784,-0.017,-0.018,-0.004,0.354,0.383,0.838,-0.181,0.256,-0.382
785,-0.058,-0.054,-0.015,0.351,0.382,0.843,-0.192,0.259,-0.376
786,-0.094,-0.069,-0.019,0.348,0.38,0.847,-0.186,0.273,-0.378
787,-0.077,-0.046,-0.027,0.349,0.38,0.843,-0.187,0.264,-0.372
788,-0.049,-0.014,-0.021,0.359,0.388,0.831,-0.187,0.264,-0.372
789,-0.049,-0.014,-0.021,0.359,0.388,0.831,-0.183,0.265,-0.376
790,-0.03,-0.01,-0.016,0.366,0.395,0.824,-0.181,0.271,-0.376
791,-0.039,-0.017,-0.014,0.371,0.4,0.821,-0.178,0.268,-0.37
792,-0.027,-0.016,-0.007,0.371,0.399,0.824,-0.177,0.265,-0.361
793,-0.019,-0.012,-0.004,0.367,0.396,0.83,-0.172,0.262,-0.361
794,-0.017,-0.008,-0.004,0.363,0.392,0.833,-0.187,0.265,-0.37
795,-0.028,-0.007,-0.008,0.359,0.39,0.834,-0.174,0.267,-0.376
796,-0.021,-0.009,-0.011,0.36,0.392,0.831,-0.172,0.271,-0.364
797,-0.011,-0.003,-0.01,0.36,0.392,0.829,-0.181,0.268,-0.367
798,-0.018,-0.007,-0.011,0.362,0.395,0.828,-0.175,0.264,-0.357
799,-0.02,-0.009,-0.007,0.366,0.396,0.828,-0.184,0.274,-0.376
800,-0.018,-0.009,-0.01,0.366,0.395,0.831,-0.183,0.267,-0.372
801,-0.023,-0.007,-0.009,0.368,0.397,0.829,-0.186,0.264,-0.364
802,-0.006,-0.005,-0.005,0.368,0.397,0.829,-0.175,0.268,-0.369
803,-0.013,-0.005,-0.006,0.368,0.396,0.828,-0.175,0.268,-0.369
804,-0.014,-0.006,-0.003,0.368,0.397,0.826,-0.186,0.274,-0.349
805,-0.018,-0.007,-0.002,0.366,0.396,0.827,-0.18,0.265,-0.361
806,-0.016,-0.006,0.0,0.366,0.398,0.827,-0.183,0.274,-0.375
807,-0.016,-0.006,0.0,0.366,0.398,0.827,-0.19,0.277,-0.367
808,0.0,-0.002,0.0,0.363,0.395,0.829,-0.177,0.261,-0.378
809,-0.011,-0.002,-0.005,0.361,0.393,0.829,-0.184,0.267,-0.357
810,-0.011,-0.003,-0.007,0.365,0.397,0.827,-0.193,0.262,-0.363
811,-0.007,-0.004,-0.005,0.367,0.397,0.827,-0.165,0.27,-0.372
812,-0.011,-0.002,-0.004,0.368,0.398,0.826,-0.18,0.273,-0.363
813,-0.008,-0.003,-0.002,0.367,0.398,0.824,-0.174,0.264,-0.363
814,-0.016,-0.002,-0.002,0.365,0.397,0.825,-0.174,0.27,-0.361
815,-0.009,-0.004,0.0,0.367,0.399,0.826,-0.184,0.274,-0.369
816,-0.009,-0.004,0.0,0.369,0.4,0.828,-0.178,0.27,-0.364
817,-0.004,-0.002,0.0,0.368,0.399,0.826,-0.174,0.27,-0.367
818,0.003,0.0,0.001,0.366,0.395,0.824,-0.174,0.27,-0.367
819,-0.004,-0.004,0.0,0.365,0.398,0.825,-0.183,0.261,-0.364
820,0.0,-0.007,0.008,0.368,0.402,0.828,-0.184,0.265,-0.366
821,0.002,-0.006,0.007,0.366,0.398,0.834,-0.178,0.268,-0.361
822,-0.015,-0.002,0.003,0.367,0.397,0.831,-0.181,0.273,-0.372
823,0.002,0.002,0.013,0.368,0.399,0.822,-0.18,0.273,-0.373
824,0.008,0.0,0.009,0.364,0.395,0.82,-0.193,0.265,-0.366
825,0.008,0.0,0.009,0.364,0.395,0.82,-0.186,0.273,-0.37
826,-0.008,-0.006,0.009,0.366,0.4,0.823,-0.175,0.271,-0.376
827,0.012,-0.003,0.025,0.369,0.405,0.829,-0.189,0.271,-0.378
828,0.017,0.003,0.019,0.364,0.399,0.834,-0.192,0.274,-0.379
829,-0.005,-0.002,0.011,0.366,0.396,0.83,-0.186,0.264,-0.385
830,-0.014,-0.002,0.011,0.364,0.394,0.824,-0.187,0.276,-0.372
831,-0.014,-0.007,0.006,0.361,0.395,0.823,-0.186,0.273,-0.381
832,-0.001,0.0,0.011,0.362,0.398,0.825,-0.196,0.267,-0.376
833,0.007,0.007,0.006,0.357,0.395,0.832,-0.196,0.267,-0.376
834,-0.015,0.001,0.0,0.362,0.4,0.833,-0.189,0.259,-0.387
835,-0.009,-0.002,0.016,0.368,0.407,0.831,-0.192,0.258,-0.387
836,0.002,0.002,0.012,0.364,0.401,0.829,-0.19,0.262,-0.378
837,-0.014,-0.002,0.003,0.363,0.396,0.823,-0.187,0.267,-0.384
838,-0.016,-0.006,0.009,0.363,0.396,0.821,-0.193,0.264,-0.379
839,-0.009,-0.004,0.004,0.359,0.396,0.826,-0.192,0.267,-0.381
840,-0.011,-0.002,-0.003,0.358,0.398,0.827,-0.192,0.265,-0.381
841,-0.007,0.001,-0.005,0.358,0.398,0.828,-0.192,0.267,-0.375
842,-0.017,-0.002,-0.008,0.359,0.399,0.828,-0.19,0.273,-0.379
843,-0.017,-0.002,-0.008,0.359,0.399,0.828,-0.19,0.262,-0.37
844,-0.014,-0.002,-0.011,0.361,0.399,0.828,-0.192,0.271,-0.373
845,-0.018,-0.004,-0.014,0.362,0.401,0.827,-0.183,0.273,-0.375
846,0.0,-0.004,-0.007,0.366,0.404,0.825,-0.186,0.27,-0.373
847,0.004,-0.003,-0.007,0.364,0.4,0.826,-0.19,0.267,-0.367
848,-0.014,-0.008,-0.014,0.361,0.397,0.826,-0.19,0.267,-0.367
849,-0.018,-0.008,-0.014,0.362,0.399,0.825,-0.187,0.268,-0.369
850,-0.009,-0.003,-0.011,0.364,0.402,0.826,-0.189,0.268,-0.367
851,-0.006,0.0,-0.009,0.368,0.405,0.826,-0.183,0.271,-0.372
852,-0.011,-0.006,-0.007,0.369,0.404,0.826,-0.189,0.261,-0.367
853,-0.017,-0.008,-0.003,0.37,0.403,0.824,-0.177,0.273,-0.363
854,-0.004,-0.002,0.002,0.369,0.402,0.823,-0.181,0.267,-0.367
855,-0.002,0.001,0.002,0.365,0.401,0.825,-0.195,0.271,-0.367
856,0.0,-0.001,0.003,0.363,0.403,0.826,-0.189,0.276,-0.367
857,0.005,0.002,0.005,0.363,0.402,0.828,-0.192,0.261,-0.37
858,0.002,0.002,0.004,0.363,0.4,0.828,-0.189,0.267,-0.369
859,-0.006,0.0,0.002,0.363,0.4,0.826,-0.195,0.274,-0.37
860,-0.002,-0.004,0.002,0.365,0.4,0.825,-0.178,0.262,-0.369
861,-0.002,-0.004,0.002,0.365,0.4,0.825,-0.183,0.27,-0.372
862,0.004,-0.002,0.002,0.364,0.4,0.826,-0.189,0.265,-0.369
863,-0.004,-0.006,0.0,0.363,0.4,0.828,-0.195,0.268,-0.358
864,-0.003,-0.003,0.004,0.365,0.403,0.827,-0.195,0.268,-0.358
865,0.006,0.0,0.002,0.364,0.401,0.826,-0.193,0.262,-0.364
866,-0.002,-0.001,0.001,0.364,0.399,0.823,-0.181,0.265,-0.361
867,0.0,-0.002,0.002,0.364,0.4,0.824,-0.183,0.277,-0.366
868,-0.003,-0.005,-0.001,0.362,0.399,0.827,-0.186,0.273,-0.373
869,-0.004,-0.002,0.001,0.363,0.401,0.827,-0.187,0.268,-0.369
870,-0.001,-0.003,0.002,0.361,0.4,0.828,-0.189,0.264,-0.364
871,-0.007,-0.004,-0.002,0.359,0.398,0.827,-0.186,0.276,-0.37
872,-0.005,-0.001,-0.004,0.36,0.398,0.825,-0.183,0.27,-0.364
873,-0.006,-0.002,-0.009,0.36,0.398,0.826,-0.195,0.27,-0.373
874,-0.012,-0.006,-0.014,0.363,0.4,0.825,-0.187,0.277,-0.364
875,-0.002,-0.008,0.0,0.369,0.405,0.823,-0.192,0.264,-0.37
876,0.023,0.002,0.003,0.37,0.403,0.826,-0.193,0.268,-0.37
877,0.0,0.0,-0.001,0.369,0.402,0.828,-0.186,0.273,-0.37
878,-0.009,-0.008,0.004,0.369,0.404,0.828,-0.192,0.267,-0.375
879,-0.009,-0.008,0.004,0.369,0.404,0.828,-0.192,0.267,-0.375
880,0.0,-0.01,0.009,0.366,0.4,0.83,-0.178,0.262,-0.372
881,0.007,0.0,0.005,0.361,0.396,0.83,-0.19,0.268,-0.372
882,-0.003,0.0,0.004,0.359,0.397,0.826,-0.183,0.283,-0.366
883,-0.005,-0.009,0.004,0.36,0.4,0.822,-0.186,0.267,-0.373
884,0.002,-0.009,0.004,0.361,0.4,0.823,-0.19,0.271,-0.361
885,0.008,-0.005,0.001,0.362,0.398,0.827,-0.189,0.264,-0.372
886,-0.002,-0.006,-0.004,0.364,0.396,0.83,-0.195,0.265,-0.37
887,-0.014,-0.009,-0.008,0.367,0.398,0.83,-0.184,0.258,-0.375
888,-0.011,-0.003,-0.001,0.371,0.402,0.828,-0.18,0.276,-0.382
889,0.0,-0.003,0.002,0.37,0.405,0.825,-0.184,0.265,-0.375
890,0.0,-0.005,0.007,0.368,0.404,0.823,-0.19,0.276,-0.381
891,0.002,-0.007,0.01,0.364,0.399,0.824,-0.187,0.267,-0.381
892,-0.003,-0.007,0.003,0.361,0.396,0.827,-0.178,0.273,-0.385
893,-0.002,-0.004,0.002,0.361,0.398,0.828,-0.196,0.273,-0.378
894,0.004,0.0,0.002,0.362,0.398,0.828,-0.196,0.273,-0.378
895,-0.007,-0.001,-0.003,0.362,0.399,0.827,-0.189,0.282,-0.39
896,-0.01,-0.009,0.0,0.366,0.402,0.825,-0.181,0.282,-0.375
897,-0.01,-0.009,0.0,0.366,0.402,0.825,-0.187,0.27,-0.381
898,0.004,-0.006,0.004,0.367,0.401,0.827,-0.198,0.277,-0.381
899,0.001,0.0,0.0,0.366,0.397,0.83,-0.184,0.271,-0.394
900,-0.011,0.0,-0.001,0.366,0.398,0.827,-0.195,0.268,-0.385
901,-0.011,-0.004,0.006,0.366,0.403,0.823,-0.196,0.27,-0.385
902,0.005,-0.002,0.007,0.363,0.401,0.825,-0.193,0.268,-0.381
903,-0.004,0.0,0.002,0.362,0.398,0.829,-0.198,0.267,-0.393
904,-0.011,-0.001,0.005,0.365,0.401,0.828,-0.196,0.265,-0.382
905,0.017,-0.003,0.018,0.367,0.405,0.828,-0.195,0.271,-0.382
906,0.056,0.004,0.028,0.364,0.401,0.829,-0.193,0.268,-0.384
907,0.049,0.009,0.022,0.36,0.395,0.828,-0.186,0.273,-0.384
908,0.023,-0.003,0.012,0.358,0.393,0.826,-0.196,0.267,-0.375
909,0.0,-0.009,0.006,0.359,0.39,0.824,-0.196,0.267,-0.375
910,-0.005,-0.005,0.002,0.36,0.393,0.827,-0.187,0.271,-0.381
911,0.013,-0.004,0.004,0.364,0.398,0.829,-0.196,0.273,-0.384
912,0.024,0.002,0.007,0.366,0.4,0.832,-0.204,0.261,-0.387
913,0.014,-0.002,0.009,0.367,0.4,0.832,-0.196,0.273,-0.387
914,0.009,-0.002,0.015,0.366,0.397,0.828,-0.199,0.267,-0.384
915,0.009,-0.002,0.015,0.366,0.397,0.828,-0.195,0.271,-0.388
916,0.01,0.001,0.016,0.362,0.393,0.826,-0.195,0.261,-0.388
917,0.008,-0.004,0.011,0.358,0.391,0.828,-0.193,0.271,-0.376
918,0.002,-0.006,0.004,0.356,0.389,0.833,-0.196,0.282,-0.39
919,-0.006,-0.005,0.003,0.357,0.391,0.835,-0.19,0.259,-0.388
920,0.008,-0.001,0.004,0.36,0.396,0.833,-0.195,0.261,-0.373
921,0.021,0.0,0.007,0.364,0.398,0.831,-0.195,0.262,-0.39
922,0.023,0.002,0.011,0.365,0.395,0.829,-0.195,0.271,-0.39
923,0.007,-0.001,0.007,0.362,0.391,0.829,-0.195,0.262,-0.385
924,-0.005,-0.009,0.005,0.362,0.391,0.829,-0.195,0.262,-0.385
925,0.003,-0.003,0.007,0.36,0.391,0.831,-0.201,0.274,-0.385
926,0.006,0.0,0.002,0.358,0.39,0.834,-0.192,0.264,-0.382
927,0.0,0.0,0.004,0.358,0.391,0.832,-0.193,0.264,-0.379
928,0.003,-0.002,0.004,0.356,0.39,0.831,-0.19,0.268,-0.388
929,-0.001,-0.002,0.0,0.359,0.392,0.83,-0.195,0.271,-0.388
930,0.002,-0.002,0.0,0.362,0.394,0.831,-0.193,0.256,-0.369
931,0.002,-0.004,0.0,0.361,0.392,0.833,-0.192,0.268,-0.379
932,-0.007,-0.007,0.0,0.361,0.391,0.833,-0.187,0.264,-0.379
933,-0.007,-0.007,0.0,0.361,0.39,0.833,-0.193,0.267,-0.379
934,-0.002,-0.004,0.004,0.362,0.39,0.833,-0.183,0.261,-0.376
935,-0.009,-0.003,-0.001,0.36,0.39,0.833,-0.184,0.268,-0.382
936,0.001,-0.008,0.001,0.362,0.393,0.83,-0.192,0.262,-0.382
937,0.015,0.0,0.004,0.36,0.389,0.828,-0.183,0.261,-0.381
938,0.0,-0.002,-0.002,0.358,0.39,0.829,-0.184,0.264,-0.375
939,0.009,-0.01,0.006,0.361,0.394,0.833,-0.184,0.264,-0.375
940,0.016,-0.004,0.007,0.361,0.391,0.839,-0.186,0.271,-0.379
941,0.008,-0.005,0.003,0.363,0.39,0.841,-0.187,0.264,-0.376
942,0.002,-0.004,0.003,0.363,0.389,0.837,-0.184,0.265,-0.384
943,-0.007,-0.002,0.001,0.36,0.389,0.827,-0.184,0.273,-0.379
944,0.0,-0.006,0.008,0.358,0.391,0.823,-0.186,0.273,-0.379
945,0.002,-0.004,0.004,0.354,0.388,0.829,-0.199,0.265,-0.387
946,-0.007,-0.007,0.002,0.357,0.39,0.838,-0.193,0.268,-0.382
947,0.015,-0.006,0.004,0.361,0.389,0.843,-0.19,0.264,-0.379
948,0.002,0.002,-0.002,0.362,0.383,0.84,-0.195,0.259,-0.372
949,-0.004,0.0,-0.002,0.365,0.389,0.831,-0.19,0.264,-0.379
950,0.006,-0.004,0.003,0.365,0.391,0.826,-0.184,0.259,-0.375
951,0.006,-0.004,0.003,0.363,0.392,0.828,-0.189,0.261,-0.385
952,-0.004,-0.001,0.001,0.363,0.392,0.828,-0.192,0.265,-0.385
953,0.003,-0.007,0.01,0.362,0.393,0.834,-0.196,0.255,-0.375
954,0.009,0.0,0.009,0.357,0.385,0.838,-0.196,0.255,-0.375
955,-0.006,0.003,0.0,0.355,0.382,0.835,-0.189,0.261,-0.376
956,-0.014,-0.004,-0.002,0.355,0.385,0.831,-0.193,0.264,-0.388
957,-0.024,-0.006,-0.011,0.356,0.385,0.833,-0.187,0.253,-0.379
958,-0.026,0.0,-0.011,0.362,0.391,0.835,-0.184,0.265,-0.382
959,-0.007,-0.003,-0.002,0.366,0.394,0.835,-0.177,0.264,-0.373
960,-0.017,-0.003,-0.005,0.363,0.391,0.832,-0.19,0.261,-0.384
961,-0.018,-0.003,-0.002,0.362,0.394,0.828,-0.19,0.253,-0.381
962,0.0,-0.001,0.005,0.359,0.391,0.829,-0.19,0.256,-0.385
963,-0.009,-0.002,-0.004,0.354,0.385,0.834,-0.187,0.262,-0.378
964,-0.032,-0.007,-0.015,0.354,0.385,0.837,-0.189,0.261,-0.369
965,-0.039,-0.011,-0.014,0.358,0.387,0.836,-0.195,0.262,-0.375
966,-0.028,0.0,-0.013,0.363,0.39,0.835,-0.189,0.264,-0.381
967,-0.037,0.0,-0.013,0.367,0.394,0.831,-0.192,0.255,-0.373
968,-0.035,-0.01,-0.002,0.369,0.405,0.826,-0.19,0.261,-0.384
969,0.019,-0.005,0.011,0.366,0.401,0.828,-0.19,0.261,-0.384
970,0.019,-0.005,0.011,0.366,0.401,0.828,-0.193,0.259,-0.367
971,0.025,0.004,0.011,0.36,0.391,0.83,-0.189,0.261,-0.372
972,0.008,-0.007,0.003,0.356,0.387,0.832,-0.181,0.255,-0.378
973,-0.012,-0.009,-0.003,0.354,0.383,0.833,-0.186,0.261,-0.37
974,-0.016,-0.004,-0.007,0.357,0.389,0.832,-0.19,0.258,-0.367
975,0.007,-0.002,0.0,0.362,0.395,0.832,-0.19,0.271,-0.372
976,0.009,0.002,-0.003,0.365,0.394,0.833,-0.192,0.262,-0.372
977,-0.012,-0.007,-0.002,0.367,0.397,0.832,-0.192,0.258,-0.373
978,-0.008,-0.009,0.001,0.366,0.396,0.83,-0.189,0.267,-0.372
979,-0.002,-0.004,0.0,0.361,0.391,0.829,-0.187,0.259,-0.382
980,-0.006,-0.002,-0.002,0.358,0.39,0.83,-0.193,0.262,-0.378
981,-0.016,-0.011,-0.004,0.356,0.391,0.833,-0.187,0.261,-0.372
982,-0.004,-0.009,-0.004,0.358,0.391,0.835,-0.195,0.261,-0.37
983,0.0,0.002,-0.004,0.361,0.39,0.835,-0.192,0.264,-0.366
984,-0.005,-0.002,-0.003,0.364,0.396,0.831,-0.192,0.264,-0.366
985,0.009,-0.004,0.005,0.366,0.397,0.828,-0.19,0.258,-0.375
986,0.009,0.0,0.003,0.365,0.393,0.828,-0.189,0.258,-0.372
987,-0.005,-0.004,0.0,0.363,0.391,0.829,-0.195,0.255,-0.373
988,-0.005,-0.004,0.0,0.363,0.391,0.829,-0.187,0.259,-0.373
989,-0.016,-0.009,-0.001,0.36,0.391,0.831,-0.187,0.256,-0.379
990,0.0,-0.005,0.0,0.358,0.391,0.834,-0.195,0.259,-0.373
991,0.002,-0.001,-0.001,0.359,0.389,0.835,-0.193,0.262,-0.37
992,-0.001,-0.003,-0.003,0.36,0.392,0.833,-0.199,0.267,-0.373
993,0.002,-0.002,0.0,0.363,0.393,0.829,-0.184,0.261,-0.364
994,0.007,0.0,0.002,0.364,0.393,0.826,-0.189,0.264,-0.382
995,0.003,-0.002,0.0,0.364,0.391,0.828,-0.184,0.271,-0.372
996,0.002,-0.005,0.004,0.365,0.393,0.832,-0.198,0.258,-0.369
997,0.011,-0.004,0.01,0.365,0.393,0.838,-0.187,0.261,-0.369
998,0.007,-0.001,0.009,0.363,0.392,0.839,-0.187,0.255,-0.37
999,-0.006,0.0,0.003,0.36,0.389,0.835,-0.187,0.255,-0.37
1000,-0.026,-0.007,-0.002,0.358,0.389,0.827,-0.192,0.256,-0.366
1001,-0.013,-0.006,0.002,0.36,0.392,0.825,-0.196,0.261,-0.37
1002,-0.002,0.0,0.002,0.36,0.39,0.829,-0.19,0.265,-0.37
1003,-0.012,-0.006,-0.003,0.36,0.392,0.834,-0.177,0.259,-0.372
1004,0.002,-0.009,0.005,0.363,0.395,0.835,-0.196,0.259,-0.378
1005,0.019,0.004,0.009,0.363,0.392,0.834,-0.193,0.264,-0.367
1006,0.019,0.004,0.009,0.363,0.392,0.834,-0.195,0.258,-0.382
1007,0.0,0.001,0.002,0.362,0.39,0.833,-0.19,0.255,-0.378
1008,-0.014,-0.007,0.003,0.363,0.393,0.83,-0.187,0.256,-0.373
1009,0.014,-0.006,0.014,0.363,0.394,0.829,-0.187,0.258,-0.376
1010,0.027,0.003,0.011,0.36,0.388,0.833,-0.189,0.261,-0.369
1011,-0.002,-0.002,0.004,0.358,0.387,0.834,-0.199,0.252,-0.364
1012,-0.016,-0.008,0.006,0.359,0.392,0.832,-0.199,0.267,-0.37
1013,0.006,-0.003,0.01,0.361,0.394,0.831,-0.195,0.265,-0.376
1014,0.018,0.002,0.011,0.363,0.392,0.832,-0.192,0.264,-0.37
1015,-0.001,-0.005,0.01,0.364,0.391,0.834,-0.192,0.264,-0.37
1016,-0.015,-0.007,0.013,0.364,0.392,0.835,-0.193,0.267,-0.373
1017,-0.007,-0.002,0.016,0.364,0.393,0.832,-0.198,0.264,-0.372
1018,-0.001,-0.002,0.018,0.362,0.392,0.831,-0.189,0.258,-0.378
1019,-0.004,-0.004,0.017,0.358,0.391,0.833,-0.186,0.258,-0.373
1020,-0.006,-0.004,0.017,0.357,0.392,0.835,-0.189,0.261,-0.382
1021,-0.003,0.0,0.019,0.358,0.392,0.836,-0.19,0.258,-0.376
1022,-0.006,0.002,0.018,0.357,0.391,0.835,-0.195,0.259,-0.381
1023,-0.009,0.004,0.015,0.357,0.391,0.832,-0.183,0.261,-0.381
1024,-0.009,0.004,0.015,0.357,0.391,0.832,-0.193,0.264,-0.378
1025,-0.008,-0.002,0.013,0.357,0.39,0.829,-0.193,0.265,-0.381
1026,-0.003,-0.001,0.01,0.355,0.39,0.829,-0.186,0.264,-0.373
1027,0.003,-0.006,0.01,0.356,0.392,0.832,-0.195,0.262,-0.378
1028,0.018,0.004,0.017,0.357,0.393,0.835,-0.19,0.261,-0.364
1029,0.01,0.006,0.009,0.353,0.389,0.836,-0.187,0.268,-0.375
1030,-0.022,-0.004,-0.004,0.353,0.387,0.832,-0.187,0.268,-0.375
1031,-0.018,-0.009,0.0,0.357,0.392,0.829,-0.195,0.267,-0.378
1032,0.004,0.0,0.004,0.358,0.392,0.831,-0.183,0.259,-0.381
1033,-0.011,-0.001,-0.006,0.356,0.391,0.833,-0.193,0.276,-0.378
1034,-0.004,0.019,-0.052,0.359,0.389,0.829,-0.201,0.265,-0.382
1035,-0.004,0.019,-0.052,0.359,0.389,0.829,-0.201,0.265,-0.382
1036,-0.004,0.019,-0.052,0.359,0.389,0.829,-0.201,0.265,-0.382
1037,-0.025,0.0,0.011,0.361,0.391,0.825,-0.189,0.262,-0.388
1038,-0.025,0.0,0.011,0.361,0.391,0.825,-0.193,0.259,-0.375
1039,0.004,-0.005,0.0,0.36,0.389,0.827,-0.171,0.264,-0.381
1040,-0.005,-0.003,-0.001,0.359,0.388,0.831,-0.171,0.264,-0.381
1041,-0.008,-0.003,0.002,0.358,0.39,0.833,-0.189,0.264,-0.373
1042,-0.011,-0.004,-0.003,0.355,0.388,0.833,-0.202,0.265,-0.388
1043,-0.005,-0.007,-0.003,0.358,0.389,0.831,-0.201,0.258,-0.375
1044,0.011,0.0,0.0,0.358,0.387,0.829,-0.201,0.258,-0.375
1045,-0.003,0.0,-0.008,0.356,0.384,0.829,-0.189,0.256,-0.381
1046,-0.021,-0.003,-0.013,0.359,0.389,0.83,-0.192,0.264,-0.382
1047,-0.003,-0.005,0.001,0.365,0.396,0.832,-0.184,0.267,-0.381
1048,0.014,0.002,0.006,0.366,0.395,0.836,-0.204,0.258,-0.381
1049,-0.002,-0.004,0.004,0.363,0.392,0.836,-0.189,0.268,-0.376
1050,-0.003,-0.007,0.007,0.36,0.39,0.831,-0.178,0.25,-0.384
1051,-0.003,-0.004,0.005,0.355,0.386,0.828,-0.187,0.256,-0.37
1052,-0.011,-0.002,0.0,0.352,0.385,0.829,-0.199,0.262,-0.381
1053,-0.023,-0.005,-0.009,0.351,0.384,0.833,-0.187,0.262,-0.384
1054,-0.016,-0.011,-0.006,0.357,0.39,0.835,-0.187,0.253,-0.367
1055,0.012,0.003,0.001,0.361,0.393,0.835,-0.187,0.253,-0.367
1056,0.012,0.003,0.001,0.361,0.393,0.835,-0.19,0.247,-0.382
1057,0.004,0.003,-0.004,0.362,0.391,0.833,-0.192,0.253,-0.367
1058,-0.018,-0.003,-0.006,0.365,0.392,0.829,-0.199,0.265,-0.378
1059,-0.014,-0.005,-0.001,0.363,0.392,0.828,-0.198,0.258,-0.372
1060,-0.002,-0.001,0.0,0.359,0.39,0.831,-0.192,0.265,-0.373
1061,0.0,-0.001,0.002,0.357,0.388,0.835,-0.195,0.262,-0.379
1062,-0.004,-0.003,-0.002,0.354,0.387,0.835,-0.193,0.253,-0.384
1063,-0.007,-0.003,-0.002,0.357,0.39,0.831,-0.192,0.267,-0.379
1064,0.003,0.0,0.001,0.359,0.391,0.83,-0.187,0.259,-0.378
1065,-0.004,-0.002,-0.004,0.359,0.389,0.832,-0.189,0.259,-0.376
1066,-0.019,-0.004,-0.007,0.361,0.39,0.833,-0.19,0.259,-0.373
1067,-0.013,-0.008,0.0,0.363,0.393,0.833,-0.19,0.262,-0.379
1068,0.006,0.0,0.003,0.361,0.392,0.833,-0.195,0.252,-0.372
1069,-0.004,0.0,-0.001,0.359,0.388,0.831,-0.193,0.259,-0.384
1070,-0.018,-0.005,-0.001,0.359,0.39,0.829,-0.193,0.259,-0.384
1071,-0.018,-0.007,0.0,0.358,0.392,0.831,-0.184,0.262,-0.378
1072,0.003,-0.006,0.004,0.359,0.393,0.835,-0.19,0.255,-0.373
1073,0.009,0.002,0.002,0.358,0.388,0.837,-0.192,0.267,-0.381
1074,0.009,0.002,0.002,0.358,0.388,0.837,-0.189,0.262,-0.372
1075,-0.01,-0.004,-0.004,0.359,0.39,0.834,-0.199,0.261,-0.379
1076,-0.004,-0.007,0.0,0.361,0.392,0.83,-0.186,0.261,-0.376
1077,-0.002,-0.002,0.0,0.359,0.39,0.829,-0.192,0.264,-0.361
1078,-0.002,-0.002,0.0,0.36,0.392,0.829,-0.187,0.267,-0.375
1079,-0.002,-0.003,0.001,0.36,0.39,0.831,-0.192,0.261,-0.379
1080,-0.014,-0.004,-0.002,0.36,0.389,0.834,-0.187,0.259,-0.382
1081,-0.014,-0.002,0.0,0.361,0.391,0.833,-0.19,0.259,-0.375
1082,0.0,-0.004,0.0,0.359,0.391,0.833,-0.198,0.261,-0.375
1083,-0.001,-0.002,-0.002,0.359,0.39,0.832,-0.195,0.268,-0.372
1084,0.0,0.0,0.0,0.36,0.391,0.831,-0.193,0.264,-0.379
1085,-0.004,-0.004,0.0,0.36,0.392,0.831,-0.193,0.264,-0.379
1086,0.0,-0.004,0.003,0.36,0.391,0.832,-0.186,0.255,-0.372
1087,-0.002,-0.001,0.0,0.357,0.388,0.833,-0.19,0.264,-0.379
1088,-0.014,-0.004,-0.004,0.356,0.39,0.833,-0.198,0.256,-0.376
1089,0.001,-0.004,0.002,0.359,0.392,0.833,-0.184,0.267,-0.382
1090,0.006,0.0,-0.002,0.359,0.388,0.832,-0.192,0.264,-0.366
1091,-0.014,-0.004,-0.007,0.359,0.388,0.832,-0.195,0.262,-0.378
1092,-0.014,-0.004,-0.007,0.359,0.388,0.832,-0.192,0.259,-0.37
1093,-0.023,-0.003,-0.006,0.361,0.391,0.831,-0.193,0.256,-0.379
1094,-0.011,-0.003,0.0,0.363,0.396,0.831,-0.196,0.262,-0.379
1095,0.006,0.001,0.002,0.362,0.394,0.833,-0.204,0.253,-0.37
1096,-0.008,-0.005,0.0,0.361,0.391,0.832,-0.196,0.259,-0.373
1097,-0.01,-0.006,0.003,0.36,0.391,0.83,-0.187,0.259,-0.367
1098,-0.003,-0.005,0.002,0.356,0.39,0.831,-0.186,0.256,-0.379
1099,0.002,-0.002,0.0,0.357,0.391,0.834,-0.198,0.265,-0.381
1100,0.006,-0.002,0.003,0.357,0.391,0.837,-0.198,0.265,-0.381
1101,0.003,0.0,0.0,0.357,0.389,0.835,-0.196,0.267,-0.369
1102,-0.009,-0.004,-0.003,0.358,0.39,0.831,-0.193,0.261,-0.369
1103,0.002,-0.006,0.0,0.362,0.392,0.829,-0.19,0.265,-0.372
1104,0.009,0.001,0.0,0.361,0.39,0.83,-0.184,0.253,-0.372
1105,-0.01,-0.002,-0.004,0.359,0.388,0.831,-0.184,0.261,-0.364
1106,-0.017,-0.007,-0.004,0.358,0.39,0.833,-0.192,0.267,-0.373
1107,-0.002,-0.004,0.0,0.359,0.392,0.835,-0.193,0.267,-0.375
1108,0.008,0.001,0.0,0.362,0.392,0.836,-0.196,0.265,-0.384
1109,-0.006,-0.007,-0.001,0.362,0.391,0.836,-0.193,0.264,-0.372
1110,-0.006,-0.007,-0.001,0.362,0.391,0.836,-0.196,0.262,-0.373
1111,-0.007,-0.006,0.0,0.361,0.391,0.833,-0.195,0.264,-0.387
1112,0.001,0.0,0.002,0.359,0.391,0.828,-0.193,0.265,-0.37
1113,-0.006,-0.003,0.0,0.355,0.39,0.828,-0.198,0.255,-0.375
1114,-0.011,-0.008,-0.002,0.356,0.39,0.831,-0.202,0.261,-0.375
1115,0.0,-0.003,0.001,0.357,0.389,0.834,-0.202,0.261,-0.375
1116,-0.001,-0.001,-0.005,0.357,0.388,0.837,-0.183,0.264,-0.369
1117,-0.01,-0.007,-0.007,0.36,0.392,0.835,-0.189,0.262,-0.375
1118,0.003,-0.004,-0.001,0.363,0.393,0.833,-0.19,0.249,-0.366
1119,0.007,0.0,-0.003,0.362,0.39,0.83,-0.202,0.264,-0.381
1120,-0.002,-0.002,-0.007,0.36,0.388,0.83,-0.193,0.258,-0.37
1121,-0.007,-0.005,-0.002,0.359,0.389,0.833,-0.19,0.256,-0.373
1122,0.001,-0.003,-0.004,0.358,0.389,0.836,-0.192,0.258,-0.373
1123,-0.012,-0.004,-0.012,0.357,0.387,0.835,-0.19,0.258,-0.379
1124,-0.018,-0.006,-0.014,0.358,0.39,0.831,-0.193,0.258,-0.381
1125,0.0,-0.006,-0.006,0.362,0.393,0.831,-0.198,0.253,-0.376
1126,0.015,0.0,-0.003,0.365,0.392,0.834,-0.198,0.256,-0.378
1127,-0.007,-0.006,-0.006,0.365,0.39,0.836,-0.195,0.261,-0.375
1128,-0.007,-0.006,-0.006,0.365,0.39,0.836,-0.196,0.256,-0.373
1129,-0.017,-0.005,-0.002,0.366,0.394,0.834,-0.198,0.258,-0.382
1130,-0.005,-0.004,0.002,0.364,0.392,0.83,-0.198,0.258,-0.382
1131,-0.004,-0.004,0.001,0.361,0.388,0.829,-0.202,0.262,-0.366
1132,-0.011,-0.004,-0.001,0.358,0.387,0.833,-0.192,0.259,-0.388
1133,-0.015,-0.007,-0.004,0.357,0.387,0.835,-0.193,0.253,-0.373
1134,-0.014,-0.003,-0.007,0.358,0.389,0.835,-0.192,0.261,-0.375
1135,-0.013,-0.004,-0.009,0.36,0.389,0.834,-0.195,0.265,-0.369
1136,-0.02,-0.005,-0.011,0.361,0.389,0.832,-0.196,0.255,-0.379
1137,-0.026,-0.007,-0.014,0.362,0.39,0.831,-0.193,0.256,-0.379
1138,-0.029,-0.007,-0.011,0.363,0.392,0.829,-0.192,0.25,-0.372
1139,-0.02,-0.006,-0.009,0.363,0.393,0.829,-0.181,0.27,-0.364
1140,-0.017,-0.006,-0.009,0.363,0.394,0.83,-0.183,0.265,-0.373
1141,-0.011,-0.008,-0.005,0.364,0.394,0.829,-0.189,0.256,-0.37
1142,-0.014,-0.005,-0.007,0.364,0.392,0.83,-0.196,0.259,-0.363
1143,-0.014,-0.006,-0.005,0.364,0.395,0.829,-0.195,0.268,-0.367
1144,-0.01,-0.007,-0.005,0.363,0.393,0.83,-0.178,0.267,-0.363
1145,-0.019,-0.006,-0.009,0.362,0.392,0.831,-0.178,0.267,-0.363
1146,-0.019,-0.006,-0.009,0.362,0.395,0.831,-0.187,0.261,-0.375
1147,-0.009,-0.004,-0.003,0.364,0.395,0.831,-0.187,0.261,-0.37
1148,-0.007,-0.004,-0.003,0.363,0.393,0.831,-0.193,0.259,-0.361
1149,-0.017,-0.005,-0.006,0.364,0.394,0.831,-0.189,0.267,-0.366
1150,-0.008,-0.003,-0.001,0.365,0.394,0.83,-0.183,0.271,-0.369
1151,-0.008,-0.002,-0.002,0.365,0.395,0.828,-0.183,0.274,-0.366
1152,-0.007,-0.004,-0.002,0.365,0.396,0.827,-0.187,0.268,-0.37
1153,-0.014,-0.006,-0.001,0.363,0.395,0.828,-0.186,0.27,-0.355
1154,-0.009,-0.005,0.0,0.363,0.395,0.83,-0.186,0.27,-0.364
1155,-0.011,-0.002,-0.003,0.362,0.393,0.831,-0.187,0.268,-0.364
1156,-0.011,-0.004,-0.004,0.363,0.395,0.83,-0.187,0.273,-0.358
1157,0.001,-0.003,0.0,0.364,0.395,0.829,-0.183,0.262,-0.367
1158,0.0,0.0,-0.001,0.366,0.395,0.827,-0.192,0.267,-0.363
1159,0.0,-0.003,0.0,0.368,0.397,0.827,-0.192,0.27,-0.351
1160,-0.004,-0.004,0.001,0.367,0.395,0.829,-0.184,0.264,-0.36
1161,-0.007,-0.005,0.004,0.366,0.395,0.829,-0.184,0.264,-0.36
1162,-0.005,-0.002,0.003,0.363,0.392,0.829,-0.186,0.276,-0.367
1163,-0.007,-0.003,0.0,0.362,0.393,0.829,-0.175,0.265,-0.367
1164,0.01,-0.002,0.0,0.362,0.395,0.828,-0.178,0.273,-0.354
1165,0.01,-0.002,0.0,0.362,0.395,0.828,-0.196,0.256,-0.363
1166,0.002,0.0,0.0,0.363,0.395,0.827,-0.183,0.265,-0.373
1167,0.003,-0.002,0.003,0.366,0.397,0.828,-0.183,0.264,-0.373
1168,-0.002,-0.006,0.0,0.366,0.394,0.831,-0.181,0.258,-0.37
1169,-0.011,-0.006,-0.002,0.367,0.394,0.834,-0.186,0.265,-0.372
1170,0.002,-0.008,0.007,0.369,0.399,0.832,-0.189,0.264,-0.366
1171,0.029,-0.002,0.013,0.365,0.395,0.83,-0.178,0.273,-0.373
1172,0.008,-0.002,0.003,0.359,0.389,0.827,-0.196,0.267,-0.37
1173,-0.01,-0.008,0.004,0.362,0.396,0.824,-0.183,0.261,-0.366
1174,0.018,-0.007,0.016,0.365,0.396,0.829,-0.184,0.264,-0.369
1175,0.016,0.0,0.008,0.364,0.39,0.835,-0.183,0.268,-0.372
1176,0.007,-0.007,0.009,0.366,0.393,0.835,-0.183,0.268,-0.372
1177,0.027,0.0,0.015,0.366,0.393,0.831,-0.18,0.265,-0.369
1178,0.024,0.0,0.009,0.365,0.391,0.827,-0.189,0.264,-0.373
1179,0.006,-0.007,0.008,0.364,0.392,0.827,-0.199,0.264,-0.37
1180,0.009,-0.009,0.016,0.362,0.392,0.83,-0.192,0.267,-0.367
1181,0.035,-0.001,0.019,0.36,0.389,0.833,-0.183,0.255,-0.372
1182,0.038,0.0,0.015,0.359,0.386,0.836,-0.183,0.271,-0.37
1183,0.038,0.0,0.015,0.359,0.386,0.836,-0.183,0.262,-0.372
1184,0.05,-0.007,0.018,0.36,0.388,0.835,-0.193,0.261,-0.375
1185,0.07,0.002,0.022,0.361,0.387,0.833,-0.189,0.253,-0.372
1186,0.06,-0.003,0.027,0.363,0.385,0.833,-0.189,0.265,-0.372
1187,0.042,-0.004,0.025,0.363,0.383,0.835,-0.183,0.259,-0.376
1188,0.035,-0.009,0.029,0.362,0.384,0.838,-0.187,0.264,-0.373
1189,0.077,-0.004,0.034,0.363,0.385,0.839,-0.189,0.258,-0.381
1190,0.082,0.002,0.028,0.36,0.377,0.838,-0.181,0.265,-0.376
1191,0.04,-0.001,0.013,0.358,0.374,0.837,-0.181,0.265,-0.376
1192,0.015,-0.013,0.017,0.359,0.374,0.836,-0.184,0.259,-0.381
1193,0.006,-0.003,0.011,0.36,0.374,0.837,-0.181,0.258,-0.381
1194,-0.009,-0.003,0.001,0.36,0.377,0.84,-0.184,0.259,-0.376
1195,-0.005,-0.007,0.005,0.36,0.378,0.841,-0.193,0.255,-0.375
1196,0.0,-0.003,0.005,0.36,0.376,0.84,-0.195,0.261,-0.379
1197,-0.013,-0.002,0.0,0.359,0.376,0.839,-0.193,0.261,-0.384
1198,-0.018,-0.006,-0.003,0.358,0.377,0.838,-0.199,0.273,-0.388
1199,-0.012,-0.003,-0.004,0.358,0.377,0.838,-0.187,0.255,-0.375
1200,-0.013,-0.002,-0.005,0.358,0.378,0.839,-0.187,0.262,-0.379
1201,-0.013,-0.002,-0.005,0.358,0.378,0.839,-0.186,0.265,-0.376
1202,-0.011,-0.01,-0.003,0.362,0.38,0.84,-0.198,0.259,-0.381
1203,-0.002,0.0,0.0,0.364,0.379,0.839,-0.195,0.268,-0.381
1204,-0.011,0.001,-0.006,0.362,0.376,0.837,-0.186,0.262,-0.381
1205,-0.035,-0.006,-0.008,0.361,0.379,0.834,-0.19,0.249,-0.379
1206,-0.014,-0.013,0.001,0.361,0.382,0.837,-0.19,0.249,-0.379
1207,0.01,0.003,-0.001,0.359,0.378,0.841,-0.193,0.268,-0.382
1208,-0.012,0.0,-0.008,0.359,0.376,0.841,-0.193,0.268,-0.382
1209,-0.035,-0.004,-0.007,0.359,0.38,0.838,-0.192,0.258,-0.379
1210,-0.006,-0.01,0.002,0.361,0.383,0.834,-0.189,0.259,-0.388
1211,0.014,0.001,0.002,0.361,0.38,0.837,-0.189,0.258,-0.382
1212,-0.002,-0.007,0.001,0.36,0.38,0.84,-0.195,0.255,-0.381
1213,-0.007,-0.007,0.004,0.361,0.381,0.841,-0.186,0.258,-0.381
1214,-0.011,-0.002,-0.003,0.36,0.377,0.838,-0.195,0.244,-0.382
1215,-0.024,-0.004,-0.008,0.361,0.378,0.834,-0.189,0.255,-0.388
1216,-0.016,-0.007,0.0,0.364,0.383,0.835,-0.193,0.261,-0.382
1217,0.0,0.0,0.002,0.362,0.383,0.838,-0.195,0.259,-0.384
1218,-0.017,-0.002,-0.002,0.361,0.38,0.839,-0.193,0.262,-0.382
1219,-0.017,-0.002,-0.002,0.361,0.38,0.839,-0.193,0.261,-0.391
1220,-0.018,-0.01,0.003,0.363,0.384,0.837,-0.189,0.259,-0.382
1221,0.014,-0.002,0.011,0.361,0.382,0.838,-0.189,0.259,-0.382
1222,0.007,0.002,0.002,0.36,0.378,0.837,-0.189,0.256,-0.375
1223,-0.011,-0.004,0.0,0.359,0.379,0.834,-0.195,0.264,-0.396
1224,-0.009,-0.007,0.0,0.359,0.379,0.835,-0.189,0.27,-0.384
1225,-0.007,-0.005,-0.002,0.361,0.38,0.836,-0.189,0.27,-0.384
1226,-0.018,-0.004,-0.002,0.364,0.382,0.841,-0.196,0.261,-0.385
1227,-0.014,-0.004,0.0,0.366,0.385,0.842,-0.193,0.264,-0.394
1228,-0.009,-0.004,0.002,0.364,0.385,0.838,-0.192,0.265,-0.397
1229,-0.009,-0.004,0.005,0.36,0.382,0.835,-0.189,0.261,-0.387
1230,-0.01,-0.002,0.0,0.356,0.38,0.832,-0.195,0.268,-0.391
1231,-0.014,-0.002,-0.002,0.356,0.379,0.832,-0.195,0.262,-0.394
1232,-0.024,-0.002,-0.009,0.357,0.378,0.835,-0.189,0.258,-0.39
1233,-0.039,-0.003,-0.017,0.359,0.383,0.837,-0.189,0.262,-0.394
1234,-0.023,-0.008,-0.009,0.365,0.39,0.836,-0.195,0.259,-0.393
1235,0.0,0.002,-0.002,0.367,0.389,0.837,-0.193,0.259,-0.397
1236,-0.012,-0.001,-0.003,0.367,0.387,0.835,-0.193,0.259,-0.397
1237,-0.012,-0.001,-0.003,0.367,0.387,0.835,-0.199,0.268,-0.385
1238,-0.018,-0.007,0.0,0.365,0.386,0.832,-0.192,0.259,-0.385
1239,-0.01,-0.007,0.002,0.361,0.383,0.835,-0.198,0.264,-0.385
1240,-0.002,-0.002,0.002,0.358,0.381,0.838,-0.193,0.265,-0.39
1241,-0.006,0.0,-0.002,0.357,0.383,0.838,-0.201,0.258,-0.379
1242,-0.002,0.0,0.0,0.36,0.387,0.833,-0.19,0.265,-0.382
1243,0.006,-0.002,0.002,0.363,0.387,0.83,-0.19,0.259,-0.388
1244,0.004,-0.002,0.003,0.364,0.385,0.832,-0.192,0.265,-0.388
1245,-0.002,-0.004,0.002,0.364,0.385,0.836,-0.192,0.265,-0.393
1246,-0.003,-0.008,0.002,0.364,0.386,0.838,-0.201,0.265,-0.385
1247,-0.005,-0.002,0.001,0.362,0.385,0.837,-0.195,0.271,-0.39
1248,-0.004,-0.005,0.001,0.36,0.386,0.834,-0.196,0.268,-0.39
1249,0.015,0.0,0.007,0.36,0.384,0.832,-0.196,0.264,-0.387
1250,0.005,0.0,0.001,0.359,0.381,0.836,-0.196,0.261,-0.385
1251,-0.009,-0.007,0.0,0.362,0.384,0.838,-0.196,0.261,-0.385
1252,-0.013,-0.004,-0.002,0.362,0.383,0.838,-0.187,0.261,-0.387
1253,-0.023,-0.002,-0.009,0.362,0.383,0.835,-0.193,0.268,-0.382
1254,-0.006,-0.005,0.004,0.364,0.391,0.832,-0.192,0.262,-0.391
1255,-0.006,-0.005,0.004,0.364,0.391,0.832,-0.199,0.261,-0.393
1256,0.054,0.001,0.023,0.362,0.389,0.836,-0.199,0.262,-0.381
1257,0.048,0.009,0.014,0.358,0.381,0.839,-0.196,0.258,-0.385
1258,0.004,-0.007,0.004,0.359,0.378,0.837,-0.19,0.267,-0.384
1259,-0.026,-0.011,0.0,0.362,0.379,0.835,-0.196,0.265,-0.375
1260,-0.009,-0.006,-0.002,0.366,0.385,0.832,-0.196,0.259,-0.388
1261,0.004,-0.002,0.001,0.366,0.386,0.832,-0.181,0.264,-0.39
1262,-0.008,-0.005,0.001,0.363,0.385,0.836,-0.199,0.264,-0.388
1263,-0.011,-0.006,0.004,0.36,0.385,0.838,-0.198,0.258,-0.385
1264,-0.003,-0.002,0.002,0.358,0.38,0.84,-0.195,0.261,-0.388
1265,-0.015,-0.002,-0.004,0.357,0.378,0.839,-0.178,0.258,-0.394
1266,-0.009,-0.007,-0.002,0.36,0.383,0.836,-0.178,0.258,-0.394
1267,0.013,-0.001,0.004,0.361,0.384,0.834,-0.186,0.261,-0.388
1268,0.005,0.002,-0.002,0.361,0.382,0.834,-0.187,0.256,-0.379
1269,-0.018,-0.007,-0.004,0.364,0.386,0.834,-0.195,0.261,-0.387
1270,-0.007,-0.005,0.004,0.365,0.388,0.836,-0.192,0.256,-0.385
1271,0.017,0.0,0.007,0.364,0.384,0.836,-0.195,0.258,-0.388
1272,0.014,0.0,0.008,0.363,0.382,0.836,-0.186,0.259,-0.382
1273,0.014,0.0,0.008,0.363,0.382,0.836,-0.187,0.249,-0.379
1274,0.0,-0.004,0.007,0.359,0.382,0.838,-0.183,0.259,-0.388
1275,0.002,-0.004,0.007,0.358,0.381,0.838,-0.19,0.256,-0.378
1276,0.012,-0.001,0.005,0.358,0.381,0.837,-0.201,0.255,-0.385
1277,0.014,-0.003,0.003,0.358,0.38,0.837,-0.184,0.261,-0.39
1278,0.015,-0.003,0.005,0.36,0.38,0.837,-0.195,0.261,-0.385
1279,0.018,0.0,0.004,0.362,0.381,0.837,-0.187,0.265,-0.388
1280,0.009,0.0,0.002,0.363,0.381,0.838,-0.193,0.253,-0.393
1281,0.005,-0.001,0.004,0.364,0.382,0.838,-0.193,0.253,-0.393
1282,0.01,-0.002,0.007,0.362,0.381,0.837,-0.186,0.256,-0.385
1283,0.026,-0.003,0.016,0.359,0.38,0.837,-0.192,0.264,-0.387
1284,0.048,0.0,0.019,0.357,0.379,0.84,-0.19,0.256,-0.391
1285,0.053,0.0,0.018,0.357,0.377,0.842,-0.195,0.259,-0.385
1286,0.046,0.003,0.016,0.358,0.373,0.841,-0.196,0.25,-0.391
1287,0.037,0.001,0.013,0.359,0.374,0.84,-0.192,0.255,-0.39
1288,0.06,0.002,0.016,0.362,0.377,0.84,-0.195,0.259,-0.39
1289,0.079,-0.001,0.025,0.361,0.376,0.845,-0.193,0.253,-0.387
1290,0.084,-0.01,0.032,0.361,0.373,0.85,-0.192,0.249,-0.39
1291,0.084,-0.01,0.032,0.361,0.373,0.85,-0.195,0.259,-0.385
1292,0.081,-0.014,0.038,0.36,0.369,0.849,-0.186,0.252,-0.394
1293,0.088,-0.021,0.045,0.354,0.369,0.848,-0.189,0.255,-0.399
1294,0.118,-0.029,0.042,0.351,0.363,0.846,-0.186,0.258,-0.394
1295,0.135,-0.026,0.041,0.351,0.355,0.848,-0.193,0.252,-0.396
1296,0.135,-0.028,0.044,0.353,0.352,0.854,-0.193,0.252,-0.396
1297,0.138,-0.032,0.041,0.357,0.347,0.854,-0.189,0.247,-0.402
1298,0.113,-0.021,0.031,0.362,0.346,0.851,-0.184,0.247,-0.394
1299,0.096,-0.022,0.025,0.364,0.347,0.85,-0.187,0.241,-0.399
1300,0.081,-0.016,0.026,0.363,0.343,0.849,-0.189,0.249,-0.403
1301,0.063,-0.01,0.018,0.362,0.339,0.848,-0.19,0.249,-0.415
1302,0.023,-0.012,0.013,0.359,0.333,0.849,-0.184,0.243,-0.409
1303,-0.034,-0.006,0.001,0.357,0.33,0.849,-0.181,0.252,-0.397
1304,-0.102,-0.004,-0.018,0.355,0.331,0.846,-0.18,0.234,-0.402
1305,-0.163,0.001,-0.039,0.359,0.335,0.84,-0.184,0.253,-0.393
1306,-0.235,0.023,-0.079,0.363,0.343,0.838,-0.187,0.255,-0.382
1307,-0.297,0.023,-0.101,0.364,0.363,0.846,-0.189,0.252,-0.384
1308,-0.231,0.0,-0.072,0.367,0.378,0.856,-0.187,0.259,-0.384
1309,-0.231,0.0,-0.072,0.367,0.378,0.856,-0.189,0.256,-0.378
1310,-0.137,0.02,-0.051,0.365,0.379,0.858,-0.178,0.256,-0.379
1311,-0.097,0.013,-0.039,0.358,0.379,0.855,-0.183,0.256,-0.382
1312,-0.074,-0.002,-0.02,0.356,0.375,0.845,-0.183,0.256,-0.382
1313,-0.06,0.003,-0.021,0.355,0.368,0.836,-0.187,0.256,-0.372
1314,-0.072,0.0,-0.035,0.358,0.369,0.834,-0.177,0.253,-0.379
1315,-0.078,-0.002,-0.037,0.362,0.375,0.837,-0.183,0.253,-0.378
1316,-0.082,0.0,-0.037,0.365,0.381,0.841,-0.18,0.262,-0.37
1317,-0.07,0.0,-0.029,0.368,0.388,0.841,-0.183,0.258,-0.379
1318,-0.035,-0.004,-0.008,0.367,0.389,0.841,-0.186,0.264,-0.369
1319,-0.006,0.002,0.0,0.363,0.381,0.838,-0.18,0.258,-0.367
1320,-0.018,0.0,-0.005,0.361,0.379,0.833,-0.177,0.256,-0.379
1321,-0.032,-0.007,-0.01,0.359,0.379,0.832,-0.175,0.265,-0.367
1322,-0.037,-0.004,-0.016,0.36,0.383,0.833,-0.187,0.271,-0.376
1323,-0.023,-0.003,-0.015,0.363,0.385,0.836,-0.181,0.265,-0.381
1324,-0.032,0.0,-0.016,0.364,0.385,0.837,-0.18,0.267,-0.375
1325,-0.025,-0.006,-0.005,0.366,0.39,0.837,-0.184,0.262,-0.373
1326,0.016,-0.001,0.009,0.367,0.389,0.836,-0.187,0.262,-0.367
1327,0.016,-0.001,0.009,0.367,0.389,0.836,-0.187,0.262,-0.367
1328,0.02,0.006,0.007,0.364,0.383,0.833,-0.183,0.27,-0.367
1329,0.0,-0.009,0.004,0.362,0.383,0.833,-0.183,0.264,-0.37
1330,-0.001,-0.01,0.006,0.362,0.383,0.834,-0.184,0.267,-0.366
1331,0.004,0.0,0.002,0.362,0.383,0.836,-0.178,0.264,-0.364
1332,0.001,-0.001,0.0,0.364,0.384,0.837,-0.183,0.25,-0.366
1333,0.0,-0.004,0.006,0.365,0.385,0.836,-0.174,0.265,-0.378
1334,0.009,-0.004,0.011,0.365,0.388,0.835,-0.181,0.268,-0.372
1335,0.035,0.0,0.014,0.363,0.383,0.835,-0.178,0.27,-0.367
1336,0.016,0.0,0.006,0.362,0.378,0.834,-0.175,0.264,-0.373
1337,-0.013,-0.009,-0.002,0.36,0.379,0.834,-0.186,0.262,-0.373
1338,-0.026,-0.011,-0.009,0.361,0.379,0.835,-0.184,0.258,-0.366
1339,-0.024,-0.008,-0.011,0.362,0.382,0.835,-0.177,0.268,-0.379
1340,-0.006,-0.009,-0.007,0.362,0.385,0.835,-0.19,0.264,-0.372
1341,0.002,-0.013,-0.008,0.361,0.383,0.836,-0.181,0.262,-0.367
1342,-0.018,-0.026,-0.019,0.361,0.38,0.836,-0.181,0.262,-0.367
1343,-0.047,-0.049,-0.03,0.363,0.379,0.835,-0.18,0.265,-0.372
1344,-0.071,-0.082,-0.042,0.356,0.376,0.836,-0.178,0.262,-0.373
1345,-0.071,-0.082,-0.042,0.356,0.376,0.836,-0.19,0.27,-0.376
1346,-0.088,-0.125,-0.077,0.332,0.367,0.841,-0.187,0.262,-0.37
1347,-0.127,-0.259,-0.147,0.316,0.353,0.833,-0.193,0.264,-0.363
1348,-0.296,-0.48,-0.29,0.292,0.342,0.837,-0.187,0.261,-0.357
1349,-0.502,-0.761,-0.432,0.259,0.312,0.854,-0.205,0.274,-0.351
1350,-0.536,-0.907,-0.58,0.257,0.275,0.846,-0.208,0.259,-0.339
1351,-0.55,-1.015,-0.674,0.287,0.244,0.838,-0.232,0.265,-0.333
1352,-0.551,-1.197,-0.803,0.363,0.239,0.822,-0.253,0.262,-0.316
1353,-0.641,-1.021,-0.965,0.521,0.271,0.778,-0.267,0.256,-0.3
1354,-0.689,-0.275,-1.054,0.737,0.373,0.773,-0.279,0.25,-0.297
1355,-0.518,0.515,-1.015,0.9,0.541,0.806,-0.3,0.246,-0.291
1356,-0.366,1.096,-0.769,1.016,0.68,0.831,-0.298,0.241,-0.303
1357,-0.323,1.566,-0.429,1.144,0.78,0.832,-0.298,0.241,-0.303
1358,-0.352,1.93,0.03,1.221,0.83,0.788,-0.283,0.238,-0.31
1359,-0.336,2.009,0.571,1.254,0.857,0.79,-0.279,0.24,-0.324
1360,-0.281,1.856,1.186,1.226,0.872,0.819,-0.267,0.252,-0.337
1361,-0.229,1.687,1.772,1.082,0.785,0.811,-0.234,0.259,-0.343
1362,-0.184,1.408,2.223,0.867,0.596,0.785,-0.201,0.277,-0.363
1363,-0.184,1.408,2.223,0.867,0.596,0.785,-0.157,0.291,-0.361
1364,-0.147,1.12,2.41,0.611,0.452,0.785,-0.123,0.307,-0.369
1365,-0.431,0.485,2.355,0.524,0.428,0.768,-0.069,0.327,-0.357
1366,-0.974,-0.227,2.587,0.571,0.412,0.597,-0.036,0.33,-0.334
1367,-1.125,-0.821,3.049,0.502,0.314,0.44,0.006,0.345,-0.315
1368,-0.835,-0.982,3.145,0.281,0.183,0.457,0.04,0.331,-0.291
1369,-0.541,-1.077,2.9,0.059,0.111,0.506,0.073,0.325,-0.295
1370,-0.52,-1.402,2.611,-0.051,0.079,0.483,0.1,0.313,-0.297
1371,-0.555,-1.816,2.352,-0.16,0.052,0.444,0.117,0.301,-0.301
1372,-0.586,-2.168,1.887,-0.311,0.034,0.454,0.117,0.301,-0.301
1373,-0.358,-2.221,1.211,-0.395,0.054,0.482,0.118,0.291,-0.322
1374,0.046,-2.024,0.574,-0.396,0.093,0.521,0.13,0.279,-0.325
1375,-0.053,-2.176,0.12,-0.321,0.112,0.56,0.12,0.286,-0.34
1376,-0.097,-2.488,-0.145,-0.177,0.128,0.569,0.103,0.291,-0.36
1377,0.295,-2.661,-0.532,-0.075,0.082,0.603,0.088,0.285,-0.373
1378,0.354,-2.178,-0.995,-0.113,-0.002,0.742,0.054,0.288,-0.393
1379,0.15,-1.813,-1.65,-0.184,-0.081,0.909,0.024,0.279,-0.397
1380,-0.066,-1.573,-2.492,-0.043,-0.164,0.951,-0.006,0.282,-0.399
1381,-0.066,-1.573,-2.492,-0.043,-0.164,0.951,-0.057,0.294,-0.405
1382,0.05,-1.115,-2.979,0.225,-0.194,0.948,-0.094,0.289,-0.411
1383,0.305,-0.516,-3.278,0.42,-0.213,1.046,-0.144,0.273,-0.414
1384,0.396,-0.064,-3.489,0.554,-0.241,1.243,-0.184,0.264,-0.418
1385,0.211,0.277,-3.759,0.757,-0.246,1.465,-0.211,0.238,-0.423
1386,-0.256,0.64,-4.011,0.971,-0.191,1.661,-0.255,0.214,-0.432
1387,-1.207,0.149,-3.779,1.153,-0.152,1.737,-0.255,0.214,-0.432
1388,-2.79,-0.335,-3.359,1.393,-0.009,1.621,-0.295,0.204,-0.42
1389,-2.849,-0.29,-3.073,1.733,0.258,1.338,-0.358,0.19,-0.348
1390,-2.245,0.796,-2.227,1.934,0.446,1.151,-0.358,0.19,-0.348
1391,-1.687,1.703,-1.112,1.852,0.495,1.156,-0.37,0.178,-0.334
1392,-1.37,2.132,-0.343,1.636,0.36,1.067,-0.372,0.175,-0.351
1393,-1.229,2.193,0.114,1.292,0.167,0.95,-0.351,0.189,-0.358
1394,-1.248,1.931,0.317,0.964,0.026,0.923,-0.337,0.186,-0.367
1395,-1.337,1.623,0.286,0.796,-0.06,0.922,-0.324,0.198,-0.382
1396,-1.434,1.374,0.179,0.822,-0.048,0.955,-0.321,0.208,-0.372
1397,-1.566,1.425,0.163,0.977,0.087,0.954,-0.297,0.226,-0.391
1398,-1.624,1.523,0.294,1.075,0.228,0.846,-0.286,0.234,-0.378
1399,-1.624,1.523,0.294,1.075,0.228,0.846,-0.264,0.276,-0.376
1400,-1.41,1.234,0.523,1.081,0.242,0.687,-0.235,0.291,-0.355
1401,-1.429,0.635,0.935,1.055,0.24,0.531,-0.219,0.307,-0.327
1402,-1.571,0.169,1.159,1.067,0.335,0.37,-0.219,0.307,-0.327
1403,-1.427,0.172,1.213,1.034,0.401,0.216,-0.169,0.339,-0.285
1404,-0.872,0.249,1.421,0.901,0.408,0.056,-0.169,0.339,-0.285
1405,-0.162,0.159,1.578,0.74,0.355,0.003,-0.156,0.339,-0.28
1406,0.032,-0.007,1.698,0.561,0.284,0.044,-0.135,0.351,-0.282
1407,0.214,-0.322,1.859,0.429,0.273,0.042,-0.112,0.352,-0.264
1408,0.468,-0.497,1.978,0.305,0.261,0.055,-0.088,0.36,-0.282
1409,0.581,-0.526,1.986,0.142,0.215,0.091,-0.064,0.357,-0.276
1410,0.903,-0.612,1.926,0.016,0.175,0.114,-0.037,0.352,-0.291
1411,1.477,-0.645,1.694,-0.06,0.127,0.181,-0.016,0.352,-0.321
1412,2.761,-0.651,0.919,-0.091,0.022,0.379,0.0,0.327,-0.339
1413,3.947,-0.846,-0.192,-0.136,0.055,0.37,0.006,0.304,-0.388
1414,3.529,1.358,-0.893,-0.384,-0.173,0.105,0.006,0.234,-0.466
1415,2.41,3.701,-0.399,-0.926,-0.209,0.161,0.031,0.205,-0.477
1416,2.113,1.92,0.727,-1.042,-0.029,0.364,0.058,0.177,-0.484
1417,2.113,1.92,0.727,-1.042,-0.424,0.548,0.058,0.177,-0.484
1418,1.698,-0.683,0.96,-0.782,-0.424,0.548,0.036,0.163,-0.513
1419,1.204,-2.984,0.741,-0.828,-0.532,0.789,0.006,0.133,-0.528
1420,0.779,-3.268,0.246,-0.855,-0.278,0.928,-0.028,0.124,-0.55
1421,1.015,-2.142,0.039,-0.701,-0.286,1.0,-0.052,0.103,-0.556
1422,1.445,-1.108,-0.36,-0.6,-0.427,1.122,-0.076,0.087,-0.562
1423,1.03,-0.973,-0.805,-0.529,-0.482,1.22,-0.1,0.081,-0.577
1424,0.494,-1.414,-1.116,-0.402,-0.511,1.157,-0.127,0.067,-0.567
1425,0.382,-1.817,-1.397,-0.292,-0.632,1.158,-0.166,0.063,-0.567
1426,-0.151,-2.609,-1.659,-0.19,-0.756,1.209,-0.213,0.058,-0.553
1427,-1.48,-2.769,-1.344,0.103,-1.271,1.103,-0.241,0.091,-0.526
1428,-4.005,0.251,-0.475,0.72,-0.841,1.296,-0.226,0.132,-0.513
1429,-1.568,-0.65,-2.851,0.688,0.038,1.768,-0.295,0.115,-0.49
1430,-0.096,-3.099,-3.451,0.705,-0.083,1.901,-0.343,0.085,-0.468
1431,-1.196,-2.361,-2.955,1.236,-0.077,1.635,-0.384,0.076,-0.442
1432,-1.081,-1.446,-1.994,1.427,-0.245,1.177,-0.384,0.076,-0.442
1433,-0.649,0.5,-0.567,1.292,-0.443,0.88,-0.388,0.066,-0.441
1434,-0.438,2.298,-0.24,0.877,-0.302,0.837,-0.37,0.063,-0.432
1435,-0.438,2.298,-0.24,0.454,-0.259,1.291,-0.343,0.06,-0.463
1436,-0.765,2.909,-0.578,0.454,-0.259,1.291,-0.324,0.064,-0.465
1437,-1.112,0.856,-0.572,0.372,-0.275,1.458,-0.325,0.07,-0.466
1438,-1.198,0.637,-0.254,0.607,-0.232,1.104,-0.309,0.078,-0.474
1439,-1.138,1.21,-0.031,0.696,-0.23,1.055,-0.301,0.085,-0.486
1440,-0.343,0.702,-0.062,0.746,-0.236,0.977,-0.292,0.084,-0.495
1441,-0.133,-0.058,-0.012,0.846,-0.226,0.756,-0.3,0.1,-0.496
1442,-0.56,-0.805,0.073,1.024,-0.258,0.552,-0.306,0.118,-0.486
1443,-1.413,-0.282,0.307,1.316,-0.227,0.578,-0.297,0.135,-0.475
1444,-1.868,1.009,0.319,1.437,-0.021,0.822,-0.279,0.171,-0.469
1445,-1.493,1.699,0.306,1.237,0.101,0.987,-0.264,0.184,-0.465
1446,-0.852,0.951,0.688,1.02,0.02,0.857,-0.241,0.204,-0.448
1447,-0.639,0.343,0.982,0.905,-0.081,0.583,-0.241,0.204,-0.448
1448,-0.858,0.276,1.217,0.734,-0.095,0.537,-0.228,0.214,-0.447
1449,-0.735,-0.057,1.514,0.566,-0.079,0.583,-0.21,0.229,-0.447
1450,-0.513,-0.103,1.796,0.413,-0.087,0.535,-0.187,0.238,-0.43
1451,-0.428,-0.009,1.88,0.204,-0.089,0.438,-0.178,0.253,-0.426
1452,-0.346,-0.015,1.817,-0.001,-0.087,0.271,-0.151,0.274,-0.42
1453,-0.151,-0.273,1.619,-0.153,-0.047,0.122,-0.132,0.274,-0.424
1454,-0.151,-0.273,1.619,-0.153,-0.047,0.122,-0.126,0.271,-0.417
1455,0.109,-0.654,1.494,-0.218,0.029,0.102,-0.111,0.288,-0.418
1456,0.41,-0.868,1.458,-0.221,0.074,0.173,-0.091,0.28,-0.424
1457,0.606,-0.986,1.444,-0.233,0.119,0.26,-0.102,0.264,-0.429
1458,0.714,-1.243,1.527,-0.247,0.151,0.32,-0.087,0.273,-0.442
1459,1.078,-1.361,1.758,-0.256,0.125,0.386,-0.085,0.255,-0.453
1460,1.412,-1.292,2.016,-0.328,0.054,0.577,-0.069,0.24,-0.474
1461,1.435,-1.126,2.15,-0.473,-0.095,0.87,-0.069,0.223,-0.481
1462,1.614,-0.811,2.009,-0.728,-0.269,1.076,-0.055,0.195,-0.499
1463,1.719,-0.7,1.269,-1.03,-0.368,1.185,-0.055,0.195,-0.499
1464,1.227,-1.041,-0.03,-1.083,-0.408,1.275,-0.064,0.186,-0.514
1465,0.804,-1.287,-1.045,-0.798,-0.384,1.375,-0.085,0.165,-0.532
1466,0.786,-1.271,-1.493,-0.417,-0.34,1.505,-0.109,0.153,-0.534
1467,0.718,-1.258,-1.661,-0.15,-0.335,1.575,-0.15,0.142,-0.534
1468,0.394,-1.456,-1.778,-0.024,-0.376,1.551,-0.175,0.12,-0.531
1469,0.047,-2.008,-1.818,0.07,-0.495,1.541,-0.211,0.117,-0.529
1470,-0.432,-2.94,-1.827,0.315,-0.663,1.603,-0.268,0.103,-0.507
1471,-1.528,-3.664,-1.242,0.707,-0.604,1.459,-0.312,0.105,-0.477
1472,-1.528,-3.664,-1.242,0.707,-0.604,1.459,-0.363,0.117,-0.42
1473,-2.213,-3.721,-1.138,1.19,-0.353,1.18,-0.4,0.127,-0.378
1474,-2.128,-3.537,-1.155,1.501,-0.154,0.809,-0.423,0.12,-0.318
1475,-1.231,-2.394,-1.122,1.541,-0.108,0.42,-0.433,0.112,-0.304
1476,-0.423,-0.73,-0.813,1.418,-0.24,0.262,-0.438,0.102,-0.309
1477,-0.348,0.487,-0.68,1.134,-0.344,0.227,-0.45,0.09,-0.309
1478,-0.687,0.802,-0.63,0.938,-0.421,0.279,-0.45,0.09,-0.309
1479,-1.035,0.591,-0.415,0.928,-0.437,0.333,-0.438,0.088,-0.306
1480,-1.101,0.351,-0.327,1.001,-0.354,0.316,-0.441,0.088,-0.306
1481,-0.892,0.483,-0.437,1.083,-0.251,0.264,-0.442,0.081,-0.31
1482,-0.639,1.085,-0.49,1.138,-0.126,0.283,-0.441,0.081,-0.319
1483,-0.366,1.514,-0.352,1.135,-0.045,0.38,-0.43,0.072,-0.327
1484,-0.203,1.793,-0.117,1.097,-0.034,0.54,-0.427,0.075,-0.355
1485,-0.362,1.883,0.165,1.025,-0.012,0.71,-0.418,0.072,-0.387
1486,-0.572,1.831,0.336,0.893,0.011,0.799,-0.39,0.078,-0.403
1487,-0.593,1.754,0.578,0.756,0.043,0.799,-0.376,0.094,-0.426
1488,-0.285,1.59,0.967,0.639,0.087,0.761,-0.358,0.112,-0.442
1489,-0.011,1.084,1.289,0.534,0.082,0.693,-0.328,0.124,-0.451
1490,-0.011,1.084,1.289,0.534,0.082,0.693,-0.309,0.136,-0.469
1491,0.025,0.483,1.32,0.519,0.07,0.569,-0.297,0.147,-0.469
1492,-0.219,0.387,1.036,0.573,0.09,0.439,-0.282,0.162,-0.474
1493,-0.59,0.665,0.665,0.538,0.109,0.329,-0.282,0.162,-0.474
1494,-0.818,0.582,0.429,0.426,0.102,0.26,-0.273,0.175,-0.466
1495,-0.858,0.165,0.336,0.351,0.132,0.206,-0.261,0.186,-0.465
1496,-0.588,-0.096,0.399,0.349,0.187,0.153,-0.265,0.192,-0.451
1497,0.048,0.094,0.42,0.388,0.177,0.177,-0.261,0.193,-0.453
1498,0.694,0.401,0.373,0.382,0.122,0.27,-0.259,0.195,-0.46
1499,1.035,0.491,0.304,0.351,0.07,0.397,-0.252,0.175,-0.474
1500,0.959,0.335,0.256,0.353,0.035,0.577,-0.258,0.177,-0.474
1501,0.449,0.056,0.358,0.396,-0.025,0.679,-0.247,0.169,-0.477
1502,0.492,0.198,0.743,0.371,-0.032,0.796,-0.234,0.166,-0.468
1503,0.77,0.074,0.672,0.272,-0.032,1.059,-0.234,0.168,-0.483
1504,1.12,-0.518,0.606,0.237,-0.102,1.227,-0.238,0.165,-0.477
1505,1.191,-0.44,0.567,0.299,-0.15,1.311,-0.234,0.145,-0.471
1506,0.997,0.028,0.501,0.345,-0.13,1.483,-0.22,0.142,-0.493
1507,0.752,0.165,0.402,0.293,-0.093,1.639,-0.22,0.132,-0.495
1508,0.752,0.165,0.402,0.293,-0.093,1.639,-0.22,0.132,-0.495
1509,0.482,0.084,0.345,0.229,-0.114,1.654,-0.213,0.127,-0.501
1510,0.151,0.082,0.307,0.189,-0.127,1.608,-0.204,0.136,-0.507
1511,-0.09,0.039,0.272,0.179,-0.111,1.529,-0.196,0.135,-0.496
1512,-0.361,0.086,0.181,0.199,-0.094,1.364,-0.198,0.147,-0.499
1513,-0.497,0.088,0.105,0.223,-0.064,1.146,-0.196,0.144,-0.492
1514,-0.543,0.014,0.06,0.249,-0.041,0.95,-0.193,0.157,-0.484
1515,-0.564,-0.042,0.048,0.283,-0.042,0.808,-0.201,0.16,-0.484
1516,-0.502,0.023,0.058,0.298,-0.038,0.722,-0.202,0.163,-0.478
1517,-0.359,0.021,0.107,0.295,-0.015,0.683,-0.205,0.174,-0.477
1518,-0.143,-0.135,0.063,0.315,0.02,0.68,-0.211,0.166,-0.478
1519,-0.039,-0.235,-0.028,0.352,0.034,0.72,-0.207,0.171,-0.483
1520,-0.137,-0.267,-0.106,0.385,0.049,0.794,-0.219,0.171,-0.466
1521,-0.336,-0.206,-0.138,0.407,0.084,0.879,-0.219,0.171,-0.469
1522,-0.385,-0.068,-0.091,0.405,0.113,0.973,-0.21,0.177,-0.466
1523,-0.229,-0.063,-0.044,0.388,0.134,1.045,-0.21,0.177,-0.466
1524,-0.072,-0.102,-0.016,0.39,0.146,1.049,-0.217,0.183,-0.448
1525,-0.06,-0.058,0.0,0.393,0.134,1.008,-0.219,0.184,-0.459
1526,-0.06,-0.058,0.0,0.393,0.134,1.008,-0.211,0.183,-0.448
1527,-0.071,0.013,0.017,0.375,0.115,0.966,-0.22,0.193,-0.457
1528,-0.035,0.041,0.025,0.357,0.1,0.935,-0.225,0.181,-0.448
1529,-0.022,0.028,0.061,0.365,0.108,0.905,-0.223,0.184,-0.445
1530,-0.033,0.044,0.06,0.365,0.111,0.889,-0.214,0.178,-0.456
1531,-0.047,-0.012,0.029,0.344,0.085,0.887,-0.214,0.183,-0.454
1532,-0.114,-0.039,0.014,0.345,0.085,0.889,-0.208,0.195,-0.46
1533,-0.137,0.016,0.007,0.342,0.093,0.907,-0.213,0.192,-0.456
1534,-0.102,0.007,-0.01,0.332,0.091,0.919,-0.21,0.187,-0.444
1535,-0.06,-0.048,-0.007,0.335,0.099,0.915,-0.211,0.195,-0.448
1536,0.004,-0.109,0.009,0.339,0.102,0.917,-0.219,0.193,-0.436
1537,-0.007,-0.097,-0.02,0.339,0.097,0.921,-0.211,0.187,-0.451
1538,-0.067,-0.077,-0.058,0.342,0.095,0.919,-0.211,0.187,-0.451
1539,-0.119,-0.044,-0.069,0.352,0.104,0.919,-0.222,0.186,-0.448
1540,-0.114,0.016,-0.042,0.369,0.123,0.926,-0.217,0.189,-0.454
1541,-0.022,0.046,-0.021,0.385,0.13,0.93,-0.217,0.193,-0.433
1542,0.003,0.033,0.03,0.375,0.136,0.916,-0.208,0.193,-0.459
1543,-0.046,-0.023,0.002,0.376,0.149,0.904,-0.214,0.189,-0.441
1544,-0.046,-0.023,0.002,0.376,0.149,0.904,-0.211,0.193,-0.442
1545,-0.034,-0.03,0.0,0.383,0.136,0.906,-0.22,0.195,-0.444
1546,0.007,-0.042,-0.002,0.371,0.118,0.905,-0.205,0.187,-0.447
1547,0.0,-0.03,0.0,0.367,0.116,0.907,-0.216,0.193,-0.447
1548,-0.017,-0.029,0.001,0.362,0.115,0.912,-0.213,0.192,-0.442
1549,-0.037,-0.032,-0.005,0.357,0.116,0.914,-0.22,0.19,-0.436
1550,-0.056,-0.039,-0.024,0.355,0.12,0.914,-0.225,0.196,-0.451
1551,-0.061,-0.074,-0.009,0.364,0.13,0.909,-0.219,0.204,-0.439
1552,-0.003,-0.07,0.024,0.37,0.131,0.914,-0.217,0.198,-0.429
1553,0.032,-0.051,0.011,0.37,0.122,0.916,-0.217,0.198,-0.429
1554,-0.012,-0.023,-0.005,0.372,0.118,0.906,-0.225,0.19,-0.439
1555,-0.08,-0.032,-0.007,0.373,0.12,0.902,-0.219,0.204,-0.442
1556,-0.087,-0.023,-0.011,0.373,0.128,0.905,-0.223,0.196,-0.442
1557,-0.041,-0.042,-0.002,0.374,0.134,0.908,-0.214,0.186,-0.451
1558,-0.025,-0.064,0.021,0.387,0.142,0.905,-0.223,0.19,-0.435
1559,-0.026,-0.07,0.042,0.399,0.15,0.903,-0.231,0.198,-0.441
1560,-0.019,-0.036,0.04,0.396,0.143,0.911,-0.223,0.196,-0.444
1561,-0.011,-0.034,0.021,0.391,0.137,0.908,-0.226,0.198,-0.45
1562,-0.011,-0.034,0.021,0.391,0.137,0.908,-0.219,0.192,-0.432
1563,-0.014,-0.056,0.045,0.395,0.142,0.891,-0.223,0.193,-0.445
1564,-0.015,-0.055,0.084,0.392,0.139,0.893,-0.228,0.196,-0.441
1565,-0.019,-0.045,0.047,0.382,0.129,0.903,-0.222,0.198,-0.444
1566,-0.049,-0.032,0.001,0.379,0.128,0.902,-0.226,0.198,-0.444
1567,-0.069,-0.013,0.004,0.38,0.138,0.904,-0.225,0.196,-0.439
1568,-0.043,-0.002,0.04,0.383,0.148,0.91,-0.225,0.196,-0.439
1569,0.009,-0.017,0.035,0.385,0.153,0.909,-0.228,0.196,-0.436
1570,-0.003,-0.134,0.078,0.399,0.168,0.887,-0.222,0.196,-0.441
1571,-0.053,-0.155,0.189,0.425,0.177,0.878,-0.225,0.198,-0.436
1572,-0.037,-0.079,0.161,0.414,0.162,0.902,-0.231,0.204,-0.432
1573,-0.028,-0.132,0.127,0.389,0.156,0.893,-0.222,0.195,-0.424
1574,-0.088,-0.282,0.205,0.399,0.155,0.856,-0.229,0.208,-0.438
1575,-0.231,-0.275,0.24,0.415,0.149,0.854,-0.231,0.199,-0.436
1576,-0.335,-0.182,0.172,0.411,0.156,0.876,-0.225,0.208,-0.436
1577,-0.3,-0.148,0.129,0.409,0.171,0.887,-0.232,0.202,-0.42
1578,-0.163,-0.093,0.114,0.417,0.189,0.897,-0.234,0.213,-0.418
1579,-0.041,-0.038,0.086,0.417,0.202,0.906,-0.223,0.217,-0.417
1580,-0.041,-0.038,0.086,0.417,0.202,0.906,-0.216,0.219,-0.415
1581,-0.004,-0.03,0.045,0.419,0.202,0.898,-0.217,0.22,-0.423
1582,-0.01,0.002,0.034,0.422,0.201,0.885,-0.234,0.222,-0.415
1583,0.0,0.007,0.025,0.416,0.2,0.876,-0.234,0.222,-0.415
1584,0.026,-0.032,0.01,0.413,0.195,0.86,-0.21,0.22,-0.409
1585,0.009,-0.033,0.01,0.417,0.194,0.853,-0.21,0.22,-0.409
1586,0.001,-0.048,0.02,0.42,0.202,0.852,-0.216,0.223,-0.414
1587,-0.002,-0.095,0.038,0.432,0.21,0.854,-0.217,0.217,-0.421
1588,-0.037,-0.072,0.03,0.441,0.211,0.867,-0.211,0.223,-0.417
1589,-0.053,-0.054,0.008,0.44,0.208,0.872,-0.216,0.223,-0.417
1590,-0.053,-0.037,-0.002,0.439,0.206,0.868,-0.216,0.228,-0.424
1591,-0.034,-0.029,0.0,0.434,0.208,0.865,-0.211,0.225,-0.415
1592,-0.011,-0.037,-0.001,0.43,0.203,0.864,-0.208,0.229,-0.412
1593,-0.028,-0.031,-0.018,0.428,0.197,0.864,-0.216,0.226,-0.412
1594,-0.05,-0.023,-0.026,0.43,0.2,0.865,-0.219,0.229,-0.426
1595,-0.044,-0.01,-0.028,0.436,0.206,0.863,-0.217,0.229,-0.418
1596,-0.028,0.008,-0.032,0.439,0.21,0.861,-0.222,0.238,-0.415
1597,-0.021,0.022,-0.037,0.438,0.213,0.863,-0.214,0.237,-0.411
1598,-0.021,0.022,-0.037,0.438,0.213,0.863,-0.214,0.237,-0.411
1599,-0.019,0.023,-0.04,0.438,0.215,0.861,-0.222,0.237,-0.415
1600,-0.025,0.028,-0.037,0.435,0.216,0.862,-0.222,0.228,-0.414
1601,-0.035,0.013,-0.035,0.433,0.217,0.866,-0.216,0.234,-0.415
1602,-0.034,0.006,-0.021,0.437,0.218,0.868,-0.208,0.226,-0.415
1603,-0.021,0.011,-0.026,0.436,0.21,0.872,-0.225,0.231,-0.412
1604,-0.046,0.007,-0.042,0.436,0.203,0.868,-0.222,0.229,-0.415
1605,-0.077,0.025,-0.052,0.442,0.208,0.863,-0.222,0.24,-0.402
1606,-0.053,0.032,-0.035,0.442,0.218,0.864,-0.211,0.214,-0.412
1607,-0.005,0.024,-0.031,0.437,0.216,0.862,-0.225,0.234,-0.42
1608,-0.028,0.041,-0.046,0.431,0.212,0.86,-0.219,0.237,-0.415
1609,-0.06,0.035,-0.032,0.433,0.225,0.858,-0.223,0.231,-0.415
1610,0.008,0.021,0.017,0.439,0.237,0.861,-0.207,0.237,-0.417
1611,0.077,-0.003,0.016,0.433,0.225,0.866,-0.22,0.225,-0.411
1612,0.012,-0.003,0.0,0.43,0.213,0.865,-0.217,0.228,-0.414
1613,0.007,-0.008,0.005,0.432,0.219,0.869,-0.213,0.225,-0.414
1614,0.1,-0.014,0.019,0.43,0.211,0.87,-0.213,0.225,-0.414
1615,0.106,0.011,0.006,0.425,0.194,0.868,-0.214,0.228,-0.418
1616,0.106,0.011,0.006,0.425,0.194,0.868,-0.223,0.232,-0.417
1617,0.01,0.014,-0.02,0.424,0.19,0.863,-0.217,0.229,-0.411
1618,-0.08,-0.004,-0.028,0.426,0.201,0.855,-0.214,0.225,-0.423
1619,-0.06,-0.016,-0.014,0.433,0.215,0.859,-0.217,0.225,-0.426
1620,-0.004,0.0,-0.009,0.433,0.214,0.868,-0.223,0.225,-0.412
1621,-0.021,0.003,-0.019,0.433,0.209,0.868,-0.213,0.234,-0.411
1622,-0.075,0.012,-0.019,0.438,0.217,0.867,-0.22,0.231,-0.418
1623,-0.033,0.016,0.009,0.438,0.226,0.871,-0.207,0.222,-0.424
1624,0.053,-0.007,0.011,0.433,0.215,0.868,-0.217,0.229,-0.415
1625,0.01,0.007,-0.003,0.427,0.2,0.863,-0.22,0.231,-0.412
1626,-0.053,0.007,-0.018,0.424,0.202,0.862,-0.223,0.228,-0.418
1627,-0.06,0.016,-0.014,0.423,0.21,0.863,-0.219,0.232,-0.417
1628,-0.008,0.011,-0.014,0.423,0.212,0.868,-0.216,0.226,-0.411
1629,-0.016,0.01,-0.028,0.423,0.208,0.869,-0.216,0.226,-0.411
1630,-0.067,0.004,-0.044,0.424,0.207,0.864,-0.213,0.237,-0.417
1631,-0.098,-0.033,-0.032,0.43,0.223,0.863,-0.219,0.228,-0.42
1632,-0.016,-0.039,0.012,0.44,0.23,0.87,-0.22,0.238,-0.417
1633,0.068,-0.011,0.035,0.438,0.225,0.869,-0.231,0.226,-0.409
1634,0.068,-0.011,0.035,0.438,0.225,0.869,-0.225,0.232,-0.414
1635,0.056,-0.002,0.009,0.437,0.223,0.866,-0.22,0.22,-0.418
1636,-0.004,-0.001,0.003,0.438,0.216,0.863,-0.214,0.226,-0.412
1637,-0.03,0.004,0.002,0.43,0.211,0.859,-0.216,0.225,-0.415
1638,-0.032,0.002,-0.009,0.423,0.204,0.859,-0.214,0.231,-0.415
1639,-0.053,0.008,-0.023,0.42,0.203,0.859,-0.216,0.238,-0.411
1640,-0.06,0.004,-0.022,0.42,0.215,0.865,-0.223,0.237,-0.414
1641,0.004,-0.009,0.0,0.426,0.226,0.869,-0.217,0.235,-0.414
1642,0.051,-0.008,0.0,0.429,0.219,0.87,-0.214,0.231,-0.418
1643,-0.004,-0.006,-0.019,0.432,0.211,0.867,-0.219,0.231,-0.42
1644,-0.065,-0.004,-0.03,0.435,0.213,0.864,-0.219,0.231,-0.42
1645,-0.066,0.0,-0.016,0.439,0.222,0.862,-0.222,0.231,-0.415
1646,-0.011,0.01,-0.003,0.436,0.224,0.862,-0.214,0.231,-0.409
1647,-0.01,0.007,-0.015,0.428,0.219,0.861,-0.208,0.234,-0.409
1648,-0.051,-0.002,-0.017,0.427,0.222,0.862,-0.225,0.232,-0.415
1649,-0.027,-0.008,0.0,0.428,0.229,0.865,-0.225,0.231,-0.406
1650,0.039,-0.007,0.002,0.427,0.222,0.868,-0.211,0.226,-0.399
1651,0.021,0.004,-0.011,0.427,0.211,0.87,-0.211,0.226,-0.408
1652,0.021,0.004,-0.011,0.427,0.211,0.87,-0.21,0.241,-0.415
1653,-0.035,0.004,-0.023,0.428,0.212,0.866,-0.229,0.231,-0.426
1654,-0.042,-0.016,-0.025,0.432,0.217,0.859,-0.225,0.228,-0.42
1655,-0.035,-0.009,-0.023,0.434,0.219,0.858,-0.228,0.219,-0.406
1656,-0.041,0.006,-0.02,0.435,0.223,0.864,-0.214,0.229,-0.414
1657,-0.022,0.0,-0.011,0.434,0.231,0.866,-0.214,0.234,-0.418
1658,0.017,-0.017,-0.006,0.434,0.229,0.862,-0.22,0.226,-0.408
1659,-0.005,0.0,0.0,0.433,0.221,0.862,-0.22,0.226,-0.408
1660,-0.026,-0.002,-0.004,0.43,0.221,0.861,-0.22,0.232,-0.415
1661,-0.03,-0.008,-0.007,0.432,0.221,0.858,-0.22,0.228,-0.411
1662,-0.021,-0.006,-0.005,0.431,0.222,0.861,-0.22,0.234,-0.411
1663,-0.014,-0.011,-0.005,0.43,0.221,0.864,-0.226,0.232,-0.411
1664,-0.023,-0.009,-0.01,0.43,0.221,0.863,-0.219,0.234,-0.412
1665,-0.035,-0.01,-0.015,0.429,0.223,0.862,-0.226,0.241,-0.411
1666,-0.028,-0.021,-0.009,0.433,0.228,0.861,-0.225,0.226,-0.414
1667,-0.004,-0.009,-0.002,0.436,0.228,0.861,-0.219,0.228,-0.406
1668,0.0,-0.005,-0.005,0.434,0.225,0.863,-0.226,0.234,-0.408
1669,-0.016,-0.012,-0.005,0.436,0.226,0.862,-0.226,0.234,-0.409
1670,-0.016,-0.012,-0.005,0.436,0.226,0.862,-0.228,0.232,-0.408
1671,-0.006,-0.009,-0.001,0.434,0.223,0.859,-0.223,0.229,-0.396
1672,-0.011,-0.009,-0.009,0.43,0.218,0.858,-0.222,0.237,-0.411
1673,-0.032,-0.006,-0.015,0.431,0.221,0.856,-0.22,0.234,-0.409
1674,-0.039,-0.006,-0.017,0.431,0.224,0.856,-0.22,0.234,-0.409
1675,-0.047,-0.011,-0.027,0.431,0.223,0.858,-0.216,0.228,-0.408
1676,-0.077,0.0,-0.032,0.432,0.225,0.861,-0.226,0.237,-0.409
1677,-0.07,0.0,-0.028,0.434,0.235,0.861,-0.228,0.231,-0.405
1678,-0.003,-0.014,-0.012,0.44,0.242,0.86,-0.225,0.228,-0.409
1679,0.03,-0.005,0.0,0.443,0.235,0.861,-0.219,0.238,-0.408
1680,0.004,-0.002,-0.003,0.443,0.231,0.861,-0.22,0.232,-0.412
1681,-0.016,-0.006,0.001,0.443,0.233,0.857,-0.211,0.235,-0.417
1682,0.017,-0.004,0.009,0.44,0.23,0.855,-0.228,0.232,-0.405
1683,0.022,-0.001,0.002,0.433,0.221,0.854,-0.222,0.229,-0.402
1684,-0.02,-0.004,-0.01,0.429,0.219,0.854,-0.225,0.237,-0.408
1685,-0.049,-0.001,-0.015,0.427,0.226,0.857,-0.219,0.231,-0.394
1686,-0.03,0.0,-0.015,0.43,0.233,0.863,-0.219,0.228,-0.411
1687,-0.011,0.004,-0.011,0.435,0.236,0.868,-0.225,0.232,-0.405
1688,-0.011,0.004,-0.011,0.435,0.235,0.868,-0.228,0.222,-0.408
1689,0.0,-0.003,-0.006,0.441,0.235,0.868,-0.228,0.222,-0.408
1690,0.003,-0.001,-0.003,0.444,0.229,0.861,-0.217,0.237,-0.408
1691,-0.009,-0.004,-0.002,0.443,0.228,0.851,-0.223,0.243,-0.414
1692,-0.007,-0.007,0.002,0.442,0.232,0.844,-0.213,0.234,-0.412
1693,0.002,-0.007,0.002,0.437,0.233,0.848,-0.229,0.232,-0.393
1694,-0.007,-0.005,0.0,0.434,0.234,0.86,-0.228,0.228,-0.4
1695,-0.013,-0.006,0.0,0.434,0.231,0.869,-0.222,0.229,-0.409
1696,-0.011,0.001,0.0,0.434,0.225,0.866,-0.223,0.229,-0.406
1697,0.0,0.0,0.003,0.435,0.226,0.857,-0.219,0.234,-0.411
1698,0.007,-0.009,-0.002,0.435,0.225,0.85,-0.223,0.237,-0.406
1699,-0.022,-0.008,-0.01,0.434,0.225,0.852,-0.223,0.228,-0.403
1700,-0.036,0.002,-0.01,0.437,0.236,0.857,-0.229,0.24,-0.393
1701,-0.004,0.001,-0.003,0.438,0.241,0.86,-0.22,0.226,-0.402
1702,0.0,0.001,0.001,0.438,0.239,0.861,-0.211,0.238,-0.402
1703,0.011,-0.003,0.01,0.438,0.236,0.86,-0.216,0.232,-0.403
1704,0.013,-0.009,0.007,0.435,0.227,0.857,-0.216,0.232,-0.403
1705,-0.003,-0.002,0.0,0.432,0.221,0.855,-0.225,0.234,-0.403
1706,-0.003,-0.002,0.0,0.432,0.224,0.854,-0.22,0.231,-0.4
1707,-0.01,-0.004,-0.007,0.432,0.224,0.854,-0.222,0.238,-0.397
1708,0.002,-0.014,-0.002,0.437,0.233,0.854,-0.217,0.237,-0.4
1709,0.028,-0.009,0.002,0.439,0.235,0.86,-0.214,0.229,-0.411
1710,0.011,-0.009,-0.002,0.437,0.227,0.864,-0.22,0.232,-0.405
1711,-0.024,0.0,-0.001,0.437,0.228,0.863,-0.223,0.238,-0.4
1712,0.002,-0.004,0.003,0.438,0.231,0.858,-0.219,0.231,-0.411
1713,0.021,-0.009,-0.002,0.437,0.224,0.853,-0.225,0.231,-0.403
1714,-0.009,-0.002,-0.009,0.437,0.223,0.853,-0.222,0.228,-0.408
1715,-0.03,-0.002,-0.003,0.44,0.233,0.855,-0.223,0.24,-0.394
1716,0.02,-0.014,0.004,0.442,0.238,0.859,-0.22,0.232,-0.399
1717,0.037,-0.004,0.006,0.44,0.231,0.863,-0.226,0.237,-0.411
1718,0.011,0.004,0.007,0.438,0.225,0.861,-0.211,0.237,-0.394
1719,-0.017,-0.008,0.001,0.435,0.224,0.854,-0.211,0.237,-0.394
1720,-0.028,-0.008,-0.002,0.434,0.221,0.853,-0.214,0.25,-0.405
1721,-0.022,-0.001,-0.005,0.433,0.223,0.857,-0.226,0.24,-0.403
1722,0.0,-0.004,-0.002,0.435,0.23,0.86,-0.223,0.231,-0.405
1723,0.007,-0.005,-0.003,0.437,0.232,0.861,-0.219,0.234,-0.397
1724,-0.011,-0.001,0.001,0.439,0.233,0.859,-0.226,0.231,-0.403
1725,-0.011,-0.001,0.001,0.439,0.233,0.859,-0.223,0.234,-0.406
1726,-0.007,-0.004,0.002,0.439,0.231,0.854,-0.217,0.229,-0.405
1727,-0.01,-0.007,0.0,0.437,0.225,0.852,-0.222,0.229,-0.403
1728,-0.02,-0.002,0.0,0.436,0.226,0.856,-0.232,0.235,-0.409
1729,-0.006,-0.011,-0.002,0.436,0.228,0.86,-0.232,0.231,-0.408
1730,0.0,-0.014,-0.006,0.437,0.226,0.862,-0.225,0.232,-0.405
1731,-0.009,0.0,-0.002,0.439,0.228,0.863,-0.232,0.243,-0.403
1732,0.006,0.003,0.004,0.442,0.232,0.859,-0.225,0.228,-0.394
1733,0.009,0.0,0.0,0.442,0.23,0.852,-0.231,0.238,-0.402
1734,-0.016,0.0,0.0,0.44,0.229,0.85,-0.231,0.238,-0.402
1735,-0.004,-0.003,0.004,0.437,0.229,0.851,-0.229,0.237,-0.388
1736,0.0,-0.005,-0.001,0.434,0.226,0.856,-0.229,0.237,-0.388
1737,-0.015,-0.003,-0.005,0.432,0.227,0.864,-0.225,0.234,-0.411
1738,-0.002,-0.008,-0.006,0.432,0.227,0.867,-0.217,0.241,-0.4
1739,0.01,0.001,-0.007,0.435,0.225,0.864,-0.22,0.24,-0.403
1740,0.009,0.0,-0.004,0.441,0.229,0.857,-0.223,0.237,-0.411
1741,0.003,-0.009,-0.002,0.444,0.23,0.849,-0.223,0.229,-0.403
1742,-0.018,-0.004,-0.002,0.444,0.23,0.848,-0.219,0.229,-0.414
1743,-0.018,-0.004,-0.002,0.444,0.23,0.848,-0.225,0.243,-0.402
1744,-0.021,-0.001,0.002,0.443,0.234,0.853,-0.232,0.231,-0.399
1745,-0.004,-0.007,0.008,0.441,0.234,0.858,-0.222,0.231,-0.399
1746,0.002,-0.009,0.011,0.437,0.228,0.864,-0.232,0.237,-0.403
1747,0.002,-0.004,0.007,0.432,0.222,0.864,-0.235,0.234,-0.409
1748,-0.003,-0.005,0.0,0.43,0.22,0.86,-0.226,0.234,-0.402
1749,-0.009,-0.006,-0.004,0.433,0.223,0.856,-0.226,0.234,-0.402
1750,-0.005,-0.002,-0.007,0.437,0.227,0.854,-0.229,0.238,-0.397
1751,-0.012,-0.004,-0.01,0.441,0.229,0.854,-0.231,0.237,-0.402
1752,-0.02,0.006,-0.002,0.443,0.235,0.856,-0.22,0.225,-0.42
1753,0.017,-0.004,0.004,0.443,0.235,0.856,-0.229,0.235,-0.399
1754,0.02,-0.004,0.003,0.443,0.228,0.857,-0.231,0.234,-0.406
1755,-0.016,0.0,0.001,0.441,0.224,0.86,-0.232,0.231,-0.406
1756,-0.005,0.008,0.014,0.438,0.229,0.861,-0.217,0.229,-0.406
1757,0.049,-0.002,0.012,0.434,0.229,0.858,-0.232,0.232,-0.396
1758,0.027,0.0,0.003,0.43,0.222,0.856,-0.226,0.232,-0.403
1759,-0.012,-0.005,0.0,0.43,0.224,0.855,-0.226,0.226,-0.408
1760,-0.009,-0.004,-0.002,0.433,0.227,0.855,-0.229,0.231,-0.412
1761,0.012,-0.001,0.006,0.445,0.228,0.859,-0.222,0.232,-0.4
1762,0.002,0.004,0.01,0.444,0.227,0.855,-0.222,0.232,-0.4
1763,-0.007,0.003,0.007,0.437,0.223,0.856,-0.228,0.237,-0.403
1764,-0.016,0.003,0.0,0.431,0.22,0.858,-0.216,0.234,-0.406
1765,-0.014,0.004,-0.004,0.428,0.222,0.86,-0.228,0.24,-0.405
1766,0.0,0.001,-0.002,0.428,0.226,0.861,-0.22,0.225,-0.405
1767,0.01,0.002,-0.002,0.432,0.227,0.861,-0.235,0.238,-0.406
1768,0.003,0.0,-0.002,0.436,0.227,0.861,-0.228,0.244,-0.409
1769,-0.002,-0.012,0.0,0.44,0.228,0.859,-0.222,0.24,-0.408
1770,0.005,-0.005,0.003,0.441,0.228,0.856,-0.229,0.234,-0.405
1771,0.016,-0.001,0.004,0.439,0.226,0.857,-0.229,0.232,-0.411
1772,0.004,-0.011,0.002,0.438,0.225,0.858,-0.223,0.237,-0.406
1773,-0.012,-0.006,0.007,0.437,0.224,0.862,-0.232,0.232,-0.414
1774,0.001,-0.001,0.009,0.434,0.223,0.865,-0.225,0.235,-0.405
1775,0.001,-0.001,0.009,0.434,0.223,0.865,-0.228,0.226,-0.415
1776,0.011,-0.005,0.003,0.433,0.221,0.862,-0.228,0.226,-0.415
1777,-0.005,-0.002,-0.002,0.434,0.219,0.858,-0.223,0.235,-0.412
1778,-0.017,-0.002,-0.004,0.434,0.221,0.854,-0.24,0.237,-0.405
1779,-0.011,-0.004,-0.002,0.435,0.227,0.855,-0.24,0.237,-0.405
1780,-0.004,-0.007,-0.003,0.435,0.227,0.86,-0.229,0.241,-0.412
1781,-0.015,-0.003,-0.004,0.435,0.225,0.864,-0.231,0.241,-0.403
1782,-0.018,-0.003,-0.004,0.438,0.227,0.864,-0.229,0.232,-0.411
1783,-0.009,0.0,0.0,0.44,0.225,0.861,-0.226,0.235,-0.415
1784,-0.007,0.002,-0.002,0.439,0.222,0.859,-0.229,0.237,-0.414
1785,-0.009,-0.002,0.001,0.44,0.227,0.855,-0.231,0.235,-0.414
1786,0.018,-0.004,0.008,0.439,0.229,0.853,-0.217,0.241,-0.409
1787,0.012,0.0,0.007,0.435,0.227,0.857,-0.229,0.231,-0.412
1788,0.0,0.007,0.009,0.433,0.232,0.863,-0.228,0.235,-0.408
1789,0.016,-0.002,0.011,0.432,0.228,0.865,-0.223,0.234,-0.418
1790,0.011,0.008,0.01,0.432,0.219,0.867,-0.223,0.237,-0.408
1791,-0.002,0.011,0.002,0.431,0.217,0.866,-0.223,0.237,-0.408
1792,-0.009,0.002,-0.006,0.433,0.217,0.859,-0.229,0.228,-0.403
1793,-0.009,0.002,-0.006,0.433,0.217,0.859,-0.225,0.235,-0.415
1794,-0.007,0.004,-0.008,0.435,0.221,0.854,-0.238,0.234,-0.406
1795,0.003,0.005,-0.003,0.436,0.227,0.855,-0.226,0.235,-0.421
1796,0.016,0.014,0.002,0.437,0.229,0.859,-0.231,0.232,-0.403
1797,0.004,0.004,0.004,0.436,0.23,0.86,-0.222,0.223,-0.418
1798,-0.018,-0.004,0.014,0.437,0.228,0.862,-0.228,0.228,-0.417
1799,-0.015,0.002,0.013,0.432,0.221,0.864,-0.226,0.235,-0.409
1800,-0.017,0.002,0.004,0.429,0.217,0.863,-0.217,0.238,-0.409
1801,-0.018,0.009,0.004,0.43,0.22,0.863,-0.228,0.235,-0.409
1802,-0.005,0.011,0.001,0.43,0.222,0.863,-0.234,0.235,-0.409
1803,-0.004,0.023,0.0,0.432,0.228,0.862,-0.225,0.243,-0.411
1804,-0.001,0.03,0.006,0.434,0.233,0.865,-0.222,0.235,-0.411
1805,0.0,0.036,0.016,0.437,0.233,0.87,-0.219,0.226,-0.409
1806,-0.019,0.044,0.019,0.439,0.234,0.873,-0.219,0.226,-0.409
1807,-0.04,0.043,0.026,0.435,0.233,0.872,-0.22,0.231,-0.403
1808,-0.048,0.053,0.029,0.434,0.23,0.869,-0.222,0.234,-0.406
1809,-0.047,0.083,0.042,0.433,0.237,0.866,-0.214,0.235,-0.408
1810,-0.066,0.081,0.045,0.427,0.242,0.867,-0.226,0.237,-0.406
1811,-0.066,0.081,0.045,0.427,0.242,0.867,-0.219,0.24,-0.418
1812,-0.097,0.091,0.046,0.422,0.244,0.872,-0.219,0.229,-0.415
1813,-0.091,0.098,0.049,0.415,0.248,0.875,-0.222,0.25,-0.406
1814,-0.071,0.095,0.051,0.405,0.242,0.878,-0.205,0.232,-0.412
1815,-0.09,0.097,0.037,0.397,0.238,0.876,-0.216,0.222,-0.414
1816,-0.107,0.092,0.03,0.39,0.24,0.872,-0.22,0.24,-0.408
1817,-0.109,0.074,0.018,0.384,0.244,0.872,-0.214,0.249,-0.408
1818,-0.092,0.045,0.0,0.383,0.247,0.876,-0.21,0.249,-0.405
1819,-0.097,0.039,-0.012,0.386,0.248,0.874,-0.21,0.238,-0.405
1820,-0.113,0.043,-0.028,0.386,0.252,0.868,-0.207,0.252,-0.409
1821,-0.143,0.017,-0.049,0.376,0.267,0.864,-0.207,0.252,-0.409
1822,-0.206,0.022,-0.182,0.368,0.253,0.893,-0.214,0.244,-0.4
1823,-0.455,0.149,-0.302,0.388,0.225,0.907,-0.219,0.247,-0.393
1824,-0.578,0.242,-0.272,0.389,0.259,0.874,-0.223,0.244,-0.39
1825,-0.494,0.179,-0.231,0.381,0.294,0.845,-0.216,0.253,-0.381
1826,-0.373,0.14,-0.171,0.389,0.307,0.817,-0.22,0.259,-0.378
1827,-0.216,0.059,-0.118,0.386,0.323,0.81,-0.226,0.262,-0.37
1828,-0.099,0.011,-0.093,0.395,0.317,0.826,-0.216,0.247,-0.385
1829,-0.099,0.011,-0.093,0.395,0.317,0.826,-0.222,0.262,-0.387
1830,-0.095,0.05,-0.079,0.4,0.306,0.853,-0.219,0.261,-0.376
1831,-0.201,0.037,-0.074,0.382,0.315,0.89,-0.222,0.262,-0.373
1832,-0.361,-0.064,-0.116,0.384,0.329,0.863,-0.222,0.264,-0.379
1833,-0.373,-0.016,-0.095,0.417,0.335,0.799,-0.226,0.265,-0.355
1834,-0.243,0.013,0.006,0.429,0.36,0.783,-0.223,0.265,-0.367
1835,-0.023,0.016,0.04,0.424,0.377,0.787,-0.225,0.27,-0.364
1836,0.11,-0.004,0.069,0.42,0.345,0.786,-0.225,0.27,-0.364
1837,0.115,-0.086,0.053,0.406,0.31,0.783,-0.219,0.267,-0.37
1838,0.024,-0.297,-0.087,0.388,0.295,0.769,-0.223,0.265,-0.367
1839,-0.024,-0.595,-0.433,0.444,0.281,0.711,-0.229,0.265,-0.361
1840,0.233,-0.565,-0.944,0.625,0.277,0.677,-0.25,0.253,-0.363
1841,0.732,-0.044,-1.277,0.801,0.287,0.697,-0.258,0.25,-0.372
1842,1.217,0.702,-1.267,0.739,0.237,0.717,-0.271,0.226,-0.388
1843,1.234,0.669,-0.772,0.462,0.208,0.825,-0.285,0.204,-0.399
1844,1.09,-0.266,-0.613,0.306,0.243,0.942,-0.279,0.196,-0.414
1845,0.712,-0.73,-0.644,0.318,0.194,0.97,-0.294,0.187,-0.424
1846,0.025,-0.62,-0.903,0.398,0.116,0.931,-0.307,0.181,-0.415
1847,0.025,-0.62,-0.903,0.398,0.116,0.931,-0.324,0.175,-0.424
1848,-0.231,-0.545,-1.106,0.547,0.095,0.837,-0.336,0.163,-0.417
1849,-0.08,-0.569,-0.987,0.602,0.106,0.715,-0.352,0.144,-0.421
1850,0.461,-0.034,-1.029,0.514,0.096,0.668,-0.351,0.139,-0.426
1851,0.848,-0.109,-1.171,0.574,0.049,0.694,-0.351,0.139,-0.426
1852,0.988,-0.204,-0.908,0.717,-0.044,0.733,-0.36,0.103,-0.424
1853,0.94,-0.149,-0.452,0.712,-0.15,0.863,-0.373,0.097,-0.438
1854,0.284,-0.304,-0.111,0.61,-0.188,0.974,-0.375,0.085,-0.429
1855,-0.35,-0.298,-0.108,0.495,-0.146,0.924,-0.364,0.096,-0.427
1856,-0.625,-0.462,-0.279,0.517,-0.108,0.788,-0.378,0.096,-0.417
1857,-0.507,-0.674,-0.175,0.606,-0.092,0.677,-0.391,0.1,-0.411
1858,-0.267,-0.604,0.102,0.637,-0.087,0.665,-0.393,0.097,-0.402
1859,-0.081,0.053,0.288,0.614,-0.071,0.686,-0.391,0.109,-0.403
1860,0.303,0.866,0.279,0.553,-0.064,0.692,-0.39,0.109,-0.412
1861,0.815,1.116,0.177,0.469,-0.135,0.808,-0.367,0.106,-0.415
1862,0.424,0.275,0.055,0.466,-0.159,0.865,-0.373,0.106,-0.43
1863,0.075,-0.247,0.009,0.514,-0.111,0.83,-0.367,0.099,-0.429
1864,-0.013,0.095,0.137,0.536,-0.088,0.84,-0.37,0.102,-0.432
1865,-0.013,0.095,0.137,0.536,-0.088,0.84,-0.357,0.103,-0.432
1866,-0.158,0.534,0.051,0.505,-0.036,0.688,-0.357,0.103,-0.432
1867,0.007,0.825,-0.519,0.463,-0.113,0.687,-0.354,0.097,-0.45
1868,0.295,0.084,-0.354,0.476,-0.218,0.835,-0.355,0.093,-0.453
1869,0.18,0.2,-0.219,0.552,-0.045,0.659,-0.366,0.087,-0.46
1870,-1.327,1.759,-0.763,0.566,0.08,0.523,-0.345,0.097,-0.46
1871,-2.255,2.27,-1.119,0.33,-0.028,1.054,-0.328,0.111,-0.477
1872,-0.27,0.725,-0.506,0.174,-0.026,1.31,-0.315,0.112,-0.474
1873,0.196,0.461,-0.354,0.261,0.078,1.103,-0.309,0.109,-0.49
1874,-0.476,0.105,-0.56,0.264,-0.018,1.111,-0.313,0.102,-0.471
1875,-0.902,-0.088,-0.427,0.147,-0.065,1.047,-0.322,0.096,-0.469
1876,-0.926,0.126,-0.324,0.069,0.04,0.983,-0.316,0.111,-0.456
1877,-1.238,0.234,-0.294,0.016,0.045,0.902,-0.322,0.126,-0.459
1878,-1.588,0.314,0.01,0.024,-0.022,0.834,-0.312,0.147,-0.454
1879,-1.459,0.939,0.616,0.034,0.003,0.799,-0.3,0.157,-0.451
1880,-0.923,1.381,1.009,-0.006,0.088,0.872,-0.274,0.177,-0.447
1881,-0.275,1.21,0.921,0.178,0.346,1.242,-0.274,0.177,-0.447
1882,1.271,0.16,-0.105,0.427,0.417,1.496,-0.262,0.19,-0.46
1883,1.271,0.16,-0.105,0.427,0.417,1.496,-0.253,0.175,-0.471
1884,0.878,-0.361,-0.247,0.423,0.217,1.213,-0.259,0.163,-0.469
1885,-0.151,0.004,-0.217,0.284,0.169,1.012,-0.265,0.162,-0.468
1886,-0.021,0.0,-0.165,0.256,0.104,0.996,-0.264,0.159,-0.466
1887,-0.107,0.315,-0.271,0.271,0.11,0.736,-0.265,0.166,-0.475
1888,-0.504,1.15,-0.367,0.063,0.095,0.857,-0.256,0.165,-0.481
1889,0.221,0.512,0.34,-0.021,-0.011,1.115,-0.249,0.165,-0.483
1890,0.485,0.185,0.541,0.056,0.023,0.973,-0.247,0.162,-0.492
1891,0.478,0.235,0.489,0.047,0.177,0.922,-0.234,0.162,-0.496
1892,0.666,0.285,0.474,0.036,0.203,1.028,-0.223,0.147,-0.505
1893,0.283,0.009,0.507,0.051,0.136,1.077,-0.225,0.15,-0.502
1894,0.189,-0.04,0.561,0.053,0.054,1.03,-0.211,0.16,-0.505
1895,0.084,0.028,0.862,0.028,-0.025,0.995,-0.216,0.156,-0.499
1896,0.023,0.16,1.37,0.0,0.003,0.985,-0.216,0.156,-0.499
1897,-0.165,0.135,1.68,0.018,0.089,1.014,-0.196,0.169,-0.501
1898,-0.148,-0.085,1.453,0.062,0.129,1.035,-0.187,0.178,-0.508
1899,-0.052,-0.248,1.403,0.05,0.106,0.973,-0.165,0.192,-0.504
1900,-0.081,-0.26,1.267,0.087,0.148,0.922,-0.157,0.186,-0.493
1901,-0.081,-0.26,1.267,0.087,0.148,0.922,-0.148,0.187,-0.49
1902,0.176,-0.039,1.065,0.122,0.171,0.92,-0.135,0.193,-0.499
1903,0.212,0.147,0.765,0.093,0.205,0.95,-0.13,0.19,-0.514
1904,0.165,0.263,0.2,0.055,0.224,0.964,-0.133,0.192,-0.511
1905,0.357,0.493,-0.053,0.007,0.126,0.994,-0.112,0.19,-0.514
1906,0.206,0.275,-0.103,-0.071,0.052,1.045,-0.112,0.18,-0.516
1907,0.037,-0.307,-0.289,-0.117,0.082,0.982,-0.129,0.175,-0.51
1908,0.135,-0.448,-0.416,0.065,0.082,0.966,-0.141,0.181,-0.516
1909,0.074,0.337,-0.221,0.166,0.037,0.995,-0.139,0.178,-0.51
1910,0.007,0.322,-0.121,-0.001,0.073,0.988,-0.126,0.175,-0.511
1911,0.051,0.086,-0.234,-0.07,0.114,1.019,-0.129,0.177,-0.516
1912,-0.007,0.095,-0.26,-0.042,0.124,1.018,-0.129,0.177,-0.516
1913,-0.023,0.021,-0.098,-0.034,0.122,0.998,-0.13,0.181,-0.523
1914,-0.002,-0.12,-0.072,-0.061,0.089,1.039,-0.138,0.178,-0.51
1915,-0.207,-0.296,-0.247,-0.094,0.055,1.071,-0.118,0.178,-0.523
1916,-0.324,-0.491,-0.478,0.025,-0.057,1.072,-0.148,0.183,-0.507
1917,-0.661,0.128,-0.926,0.13,-0.07,1.045,-0.159,0.172,-0.507
1918,-0.747,0.436,-1.127,0.123,0.108,0.928,-0.16,0.177,-0.504
1919,-0.747,0.436,-1.127,0.123,0.108,0.928,-0.165,0.202,-0.493
1920,-0.217,0.52,-0.808,0.2,0.157,0.847,-0.165,0.192,-0.493
1921,0.023,0.693,-0.697,0.081,0.185,0.949,-0.165,0.199,-0.504
1922,-0.112,0.066,-0.984,-0.046,0.283,1.073,-0.171,0.178,-0.499
1923,-0.266,-0.189,-0.86,0.042,0.268,1.012,-0.184,0.187,-0.493
1924,-0.175,-0.135,-0.42,0.118,0.225,0.882,-0.192,0.181,-0.496
1925,0.009,0.183,0.209,0.145,0.196,0.945,-0.172,0.198,-0.487
1926,-0.113,0.335,0.625,0.068,0.154,1.092,-0.166,0.195,-0.484
1927,-0.365,0.467,0.407,-0.007,0.106,1.109,-0.166,0.195,-0.484
1928,-0.268,0.281,0.065,-0.027,0.059,1.04,-0.16,0.196,-0.493
1929,0.186,0.023,0.07,-0.073,0.042,0.973,-0.16,0.204,-0.489
1930,0.396,-0.325,0.143,-0.158,0.104,0.997,-0.159,0.208,-0.487
1931,0.271,-0.821,0.032,-0.174,0.227,1.065,-0.157,0.205,-0.492
1932,0.112,-1.087,-0.098,-0.088,0.331,1.116,-0.172,0.187,-0.492
1933,0.106,-1.108,-0.201,0.039,0.363,1.163,-0.181,0.193,-0.493
1934,0.067,-1.122,-0.436,0.103,0.287,1.176,-0.198,0.18,-0.481
1935,0.099,-1.122,-0.542,0.079,0.185,1.098,-0.219,0.174,-0.478
1936,0.195,-1.037,-0.586,0.063,0.173,1.04,-0.232,0.184,-0.481
1937,0.195,-1.037,-0.586,0.063,0.173,1.04,-0.247,0.168,-0.472
1938,0.266,-1.059,-0.702,0.127,0.195,1.046,-0.274,0.156,-0.475
1939,0.316,-0.989,-0.909,0.274,0.082,0.982,-0.298,0.145,-0.462
1940,0.241,-0.935,-1.077,0.316,-0.047,0.912,-0.309,0.142,-0.465
1941,0.021,-0.996,-1.325,0.251,-0.025,0.902,-0.33,0.13,-0.456
1942,-0.156,-0.858,-1.443,0.278,0.028,0.934,-0.33,0.13,-0.456
1943,-0.12,-0.681,-1.371,0.376,-0.04,0.934,-0.348,0.114,-0.438
1944,0.216,-0.656,-1.204,0.414,-0.153,0.857,-0.361,0.105,-0.436
1945,0.575,-0.731,-1.071,0.382,-0.145,0.804,-0.391,0.069,-0.43
1946,0.741,-0.759,-0.919,0.366,-0.124,0.77,-0.391,0.069,-0.43
1947,0.74,-0.831,-0.814,0.372,-0.162,0.707,-0.402,0.054,-0.417
1948,0.578,-0.735,-0.75,0.395,-0.179,0.665,-0.421,0.045,-0.423
1949,0.403,-0.634,-0.749,0.427,-0.186,0.682,-0.432,0.03,-0.412
1950,0.413,-0.559,-0.591,0.462,-0.236,0.677,-0.433,0.015,-0.403
1951,0.492,-0.369,-0.348,0.494,-0.263,0.676,-0.436,0.001,-0.399
1952,0.501,-0.322,-0.277,0.534,-0.265,0.717,-0.442,-0.004,-0.4
1953,0.415,-0.235,-0.21,0.573,-0.297,0.724,-0.453,-0.012,-0.388
1954,0.318,-0.071,-0.113,0.581,-0.306,0.721,-0.448,-0.01,-0.397
1955,0.318,-0.071,-0.113,0.581,-0.306,0.721,-0.45,-0.021,-0.4
1956,0.158,0.148,-0.002,0.56,-0.301,0.733,-0.445,-0.016,-0.394
1957,-0.104,0.144,0.132,0.519,-0.305,0.738,-0.445,-0.016,-0.394
1958,-0.195,0.021,0.2,0.502,-0.286,0.718,-0.442,-0.009,-0.39
1959,-0.037,0.022,0.318,0.516,-0.233,0.75,-0.441,-0.01,-0.4
1960,0.088,-0.158,0.229,0.534,-0.201,0.785,-0.454,-0.013,-0.39
1961,0.037,-0.133,0.09,0.526,-0.21,0.772,-0.454,-0.013,-0.39
