,Gyroscope X (deg/s),Gyroscope Y (deg/s),Gyroscope Z (deg/s),Accelerometer X (g),Accelerometer Y (g),Accelerometer Z (g),Magnetometer X (G),Magnetometer Y (G),Magnetometer Z (G)
1,-1.2,-3.2,0.9,-0.027,-0.025,1.035,0.19,0.025,-0.724
2,-1.2,-3.5,1.0,-0.026,-0.032,1.04,0.189,0.027,-0.726
3,-1.2,-3.5,0.9,-0.025,-0.027,1.037,0.192,0.025,-0.727
4,-1.3,-3.2,1.1,-0.026,-0.029,1.037,0.187,0.024,-0.715
5,-1.2,-3.6,1.0,-0.026,-0.03,1.036,0.189,0.025,-0.732
6,-1.2,-3.5,1.0,-0.023,-0.028,1.037,0.195,0.027,-0.724
7,-1.2,-3.3,1.0,-0.028,-0.03,1.035,0.178,0.027,-0.717
8,-1.1,-3.6,1.0,-0.026,-0.027,1.038,0.181,0.024,-0.729
9,-1.2,-3.3,1.1,-0.024,-0.028,1.035,0.178,0.025,-0.717
10,-1.3,-3.4,1.0,-0.025,-0.029,1.035,0.184,0.031,-0.72
11,-1.2,-3.5,0.9,-0.027,-0.029,1.035,0.192,0.031,-0.727
12,-1.2,-3.3,1.0,-0.024,-0.027,1.036,0.181,0.027,-0.726
13,-1.2,-3.5,1.1,-0.024,-0.027,1.035,0.178,0.028,-0.723
14,-1.1,-3.5,0.9,-0.025,-0.029,1.035,0.181,0.034,-0.724
15,-1.3,-3.2,1.0,-0.029,-0.028,1.034,0.187,0.034,-0.724
16,-1.2,-3.5,1.1,-0.025,-0.029,1.036,0.178,0.025,-0.724
17,-1.1,-3.4,1.0,-0.026,-0.029,1.036,0.183,0.028,-0.723
18,-1.1,-3.4,1.1,-0.027,-0.027,1.035,0.183,0.025,-0.711
19,-1.3,-3.4,1.0,-0.025,-0.03,1.036,0.19,0.028,-0.72
20,-1.2,-3.4,1.0,-0.023,-0.026,1.037,0.193,0.025,-0.729
21,-1.2,-3.4,1.0,-0.027,-0.03,1.036,0.18,0.03,-0.72
22,-1.3,-3.3,0.9,-0.025,-0.027,1.036,0.183,0.018,-0.727
23,-1.3,-3.4,1.0,-0.023,-0.029,1.035,0.183,0.036,-0.724
24,-1.4,-3.3,0.9,-0.026,-0.03,1.037,0.181,0.028,-0.72
25,-1.4,-3.4,0.9,-0.027,-0.027,1.036,0.186,0.03,-0.729
26,-1.3,-3.4,1.1,-0.025,-0.028,1.037,0.184,0.025,-0.727
27,-1.2,-3.5,1.4,-0.023,-0.028,1.038,0.181,0.025,-0.726
28,-1.2,-3.4,1.2,-0.027,-0.028,1.039,0.184,0.033,-0.721
29,-1.3,-3.5,1.1,-0.026,-0.03,1.039,0.183,0.037,-0.72
30,-1.3,-3.4,1.0,-0.024,-0.027,1.039,0.183,0.031,-0.72
31,-1.3,-3.4,0.9,-0.024,-0.031,1.04,0.186,0.027,-0.721
32,-1.2,-3.4,1.1,-0.024,-0.027,1.039,0.184,0.027,-0.729
33,-1.2,-3.4,1.0,-0.026,-0.03,1.041,0.178,0.022,-0.727
34,-1.3,-3.5,2.4,-0.029,-0.031,1.04,0.187,0.03,-0.727
35,-1.3,-3.3,1.1,-0.026,-0.03,1.04,0.187,0.027,-0.721
36,-1.1,-3.3,0.9,-0.025,-0.029,1.039,0.192,0.028,-0.726
37,-1.3,-3.4,1.1,-0.025,-0.025,1.039,0.19,0.033,-0.727
38,-1.7,-3.4,3.8,-0.037,-0.051,1.038,0.184,0.034,-0.729
39,-1.4,-3.4,2.0,-0.017,0.004,1.042,0.189,0.028,-0.723
40,-1.2,-3.7,1.8,0.001,-0.055,1.042,0.189,0.024,-0.727
41,-1.6,-3.6,0.7,-0.017,-0.061,1.045,0.183,0.028,-0.739
42,-1.1,-3.3,2.9,-0.038,0.021,1.041,0.192,0.036,-0.736
43,-1.6,-3.4,-1.5,-0.03,-0.042,1.049,0.174,0.018,-0.736
44,-0.4,-4.0,-3.7,-0.039,0.064,1.024,0.177,0.006,-0.753
45,-1.6,-2.7,-1.8,-0.008,-0.047,1.0,0.166,0.009,-0.753
46,0.3,-4.5,0.8,-0.023,0.001,1.034,0.148,0.013,-0.76
47,-1.8,-3.8,1.2,-0.024,0.015,1.069,0.136,0.007,-0.772
48,-3.2,-2.3,0.6,-0.009,0.033,0.996,0.115,0.007,-0.763
49,-2.0,-1.5,3.0,-0.029,0.016,1.033,0.102,-0.006,-0.756
50,-2.2,-2.8,2.1,-0.088,-0.149,1.013,0.079,-0.013,-0.724
51,-0.7,-3.7,0.7,-0.041,-0.097,1.054,0.081,-0.018,-0.703
52,-1.4,-2.8,0.4,-0.044,-0.152,1.032,0.069,-0.013,-0.673
53,-1.2,-3.4,0.7,-0.022,-0.128,1.048,0.061,-0.018,-0.642
54,-1.1,-3.4,1.0,-0.013,-0.09,1.034,0.06,-0.03,-0.637
55,-1.3,-3.2,0.7,-0.026,-0.03,1.036,0.063,-0.027,-0.639
56,-1.2,-3.2,0.6,-0.025,-0.026,1.037,0.055,-0.027,-0.634
57,-1.3,-3.2,1.1,-0.024,-0.029,1.039,0.055,-0.025,-0.643
58,-1.3,-3.2,1.1,-0.024,-0.026,1.039,0.055,-0.031,-0.648
59,-1.3,-3.3,1.1,-0.027,-0.027,1.038,0.058,-0.037,-0.637
60,-1.3,-3.3,1.1,-0.026,-0.029,1.037,0.06,-0.033,-0.639
61,-1.3,-3.3,0.9,-0.024,-0.028,1.037,0.055,-0.03,-0.643
62,-1.3,-3.2,0.9,-0.025,-0.028,1.039,0.057,-0.03,-0.637
63,-1.4,-3.3,1.0,-0.025,-0.027,1.037,0.055,-0.031,-0.634
64,-1.2,-3.3,1.0,-0.025,-0.028,1.038,0.055,-0.03,-0.649
65,-0.9,-3.5,1.0,-0.022,-0.062,1.037,0.051,-0.034,-0.645
66,-1.0,-3.7,0.8,-0.02,-0.12,1.037,0.06,-0.024,-0.649
67,-1.1,-3.2,0.9,-0.031,-0.084,1.039,0.061,-0.031,-0.657
68,-1.0,-3.6,1.1,-0.015,-0.006,1.044,0.049,-0.024,-0.661
69,6.7,-19.6,0.7,-0.047,-0.043,1.052,0.058,-0.016,-0.679
70,-3.1,-1.4,1.4,-0.081,-0.072,1.044,0.067,-0.028,-0.676
71,-2.7,-2.2,1.5,-0.013,-0.083,1.043,0.061,-0.021,-0.685
72,-0.7,-3.8,-0.2,-0.008,-0.108,1.041,0.066,-0.022,-0.703
73,6.3,-14.5,0.0,-0.022,-0.14,1.048,0.063,-0.018,-0.705
74,-0.5,-3.5,3.0,-0.017,-0.004,1.038,0.063,-0.022,-0.711
75,-4.9,1.0,1.1,-0.015,-0.389,1.037,0.072,-0.019,-0.73
76,-1.1,-3.9,0.9,-0.029,0.153,1.048,0.067,-0.004,-0.73
77,-1.1,-4.0,1.0,-0.03,-0.087,1.033,0.069,-0.006,-0.732
78,-1.0,-3.5,0.7,-0.036,0.101,1.046,0.076,-0.009,-0.747
79,-1.9,-3.4,0.4,-0.017,0.16,1.04,0.079,-0.01,-0.757
80,-1.2,-3.5,1.1,-0.025,-0.026,1.039,0.085,-0.003,-0.748
81,-1.2,-3.5,4.9,-0.022,-0.018,1.037,0.079,0.0,-0.747
82,-1.1,-3.6,10.0,-0.038,0.046,1.024,0.076,-0.012,-0.751
83,-1.2,-3.5,0.4,0.009,0.045,1.013,0.084,-0.003,-0.744
84,-1.6,-3.8,-4.4,-0.018,-0.048,1.03,0.078,-0.006,-0.735
85,0.0,-4.2,-2.7,0.014,-0.063,1.039,0.079,-0.007,-0.717
86,-0.3,-4.4,4.7,-0.05,0.038,1.008,0.075,-0.016,-0.697
87,-0.4,-4.6,-0.7,-0.033,0.006,1.021,0.067,-0.027,-0.673
88,0.0,-2.8,0.2,-0.032,0.031,1.065,0.06,-0.031,-0.624
89,-1.8,-3.6,-0.3,-0.029,-0.017,1.027,0.055,-0.042,-0.57
90,-0.1,-3.7,-5.6,0.01,-0.065,1.065,0.061,-0.054,-0.48
91,-2.0,-1.7,0.7,-0.02,-0.039,1.044,0.04,-0.082,-0.375
92,-2.9,-3.8,0.8,-0.037,-0.052,1.023,0.048,-0.118,-0.27
93,-0.6,-2.8,1.9,-0.054,-0.019,1.055,0.043,-0.142,-0.145
94,-1.6,-2.9,-1.4,-0.007,-0.054,1.001,0.04,-0.171,-0.004
95,-0.7,-2.6,0.7,-0.026,-0.059,1.031,0.037,-0.202,0.121
96,-1.4,-2.5,0.4,-0.016,-0.025,1.039,0.021,-0.238,0.235
97,-1.5,-2.8,0.7,-0.029,-0.038,1.026,-0.004,-0.261,0.333
98,-0.6,-3.2,0.4,-0.017,-0.029,1.01,-0.033,-0.285,0.394
99,0.2,-4.4,1.1,-0.02,-0.015,1.062,-0.052,-0.295,0.426
100,-1.2,-3.0,1.3,-0.041,0.018,1.016,-0.079,-0.295,0.442
101,-0.8,-3.7,0.6,-0.018,-0.023,1.059,-0.112,-0.289,0.424
102,-0.2,-3.9,0.9,-0.023,-0.03,1.071,-0.123,-0.273,0.394
103,-1.0,-2.9,0.7,-0.025,0.0,1.049,-0.139,-0.246,0.333
104,-1.1,-3.6,1.8,-0.021,-0.028,0.999,-0.165,-0.21,0.231
105,-1.6,-3.2,1.6,-0.021,-0.091,1.016,-0.178,-0.18,0.123
106,-0.3,-3.9,0.4,-0.016,-0.024,1.018,-0.184,-0.157,0.013
107,-1.8,-3.2,-0.7,-0.01,-0.042,1.026,-0.175,-0.127,-0.093
108,-0.7,-4.0,0.9,-0.039,-0.072,1.051,-0.183,-0.109,-0.181
109,-1.6,-3.3,1.4,-0.038,-0.023,1.037,-0.166,-0.088,-0.27
110,-0.9,-3.3,0.9,-0.011,-0.039,1.023,-0.162,-0.075,-0.351
111,-0.8,-3.3,1.4,-0.021,-0.047,1.052,-0.157,-0.064,-0.42
112,-1.1,-3.7,1.6,-0.038,-0.047,1.044,-0.16,-0.052,-0.483
113,-0.9,-3.5,1.5,-0.039,-0.028,1.038,-0.148,-0.054,-0.531
114,-0.4,-3.2,2.0,-0.027,-0.035,1.04,-0.147,-0.045,-0.544
115,-1.4,-3.3,0.4,-0.003,0.007,1.041,-0.141,-0.043,-0.574
116,-1.6,-3.5,2.4,-0.039,-0.026,1.04,-0.147,-0.036,-0.597
117,-1.6,-3.3,1.0,-0.016,-0.032,1.048,-0.132,-0.036,-0.627
118,-1.1,-3.5,1.1,-0.022,-0.054,1.048,-0.135,-0.039,-0.654
119,-1.5,-3.5,1.4,-0.013,0.032,1.039,-0.132,-0.034,-0.661
120,-1.1,-3.6,1.5,-0.022,0.016,1.04,-0.126,-0.031,-0.679
121,-1.3,-3.5,0.6,-0.025,-0.052,1.036,-0.13,-0.03,-0.679
122,-1.1,-3.2,0.4,-0.016,-0.025,1.036,-0.13,-0.03,-0.69
123,-1.1,-3.4,1.5,-0.028,-0.043,1.041,-0.133,-0.031,-0.696
124,-0.9,-3.3,0.5,-0.024,-0.031,1.037,-0.13,-0.034,-0.7
125,-1.1,-3.3,-0.2,-0.027,-0.027,1.036,-0.121,-0.028,-0.688
126,-1.8,-3.3,1.0,-0.022,-0.152,1.035,-0.13,-0.027,-0.694
127,-1.8,-3.2,1.1,-0.027,0.081,1.042,-0.133,-0.034,-0.679
128,-1.3,-3.5,1.7,-0.021,-0.017,1.039,-0.129,-0.031,-0.679
129,-1.1,-3.5,1.4,-0.037,-0.005,1.041,-0.127,-0.027,-0.685
130,-1.4,-3.5,5.6,-0.02,0.014,1.055,-0.13,-0.031,-0.697
131,-1.6,-3.5,0.4,-0.061,0.006,1.035,-0.133,-0.021,-0.717
132,-1.8,-3.3,-0.9,-0.03,0.011,1.05,-0.133,-0.025,-0.745
133,-2.3,-3.4,1.8,-0.049,-0.033,1.061,-0.124,-0.028,-0.774
134,-1.1,-3.4,2.5,-0.022,0.014,1.059,-0.127,-0.012,-0.822
135,-1.2,-3.5,-0.2,-0.003,-0.008,1.039,-0.127,-0.019,-0.849
136,-0.7,-3.0,0.0,-0.075,-0.039,1.044,-0.123,-0.019,-0.876
137,-0.6,-3.0,1.1,-0.018,-0.038,1.025,-0.114,-0.012,-0.898
138,-1.6,-4.2,1.0,-0.022,0.021,1.057,-0.118,-0.018,-0.93
139,-1.9,-1.8,0.8,-0.035,-0.015,1.02,-0.124,-0.021,-0.952
140,-0.4,-3.5,0.6,-0.027,0.053,1.038,-0.121,-0.012,-0.97
141,-1.1,-3.9,0.4,-0.006,-0.01,1.006,-0.126,-0.013,-0.991
142,-2.7,-1.1,0.7,-0.021,-0.027,1.007,-0.13,-0.013,-1.011
143,-1.1,-4.3,0.9,0.015,-0.032,0.9,-0.138,-0.012,-1.02
144,-0.9,-4.2,1.0,-0.01,-0.069,1.021,-0.145,-0.024,-1.036
145,-1.6,-2.5,0.6,-0.02,-0.131,1.047,-0.141,-0.015,-1.033
146,-1.5,-3.1,0.9,-0.023,-0.202,1.029,-0.138,-0.025,-1.03
147,-1.9,-2.0,1.1,-0.032,-0.225,1.066,-0.138,-0.015,-1.038
148,-6.7,4.6,1.4,-0.018,-0.268,0.815,-0.142,-0.013,-1.024
149,-8.4,7.5,2.2,-0.02,-0.089,1.016,-0.144,-0.013,-1.002
150,0.1,-5.1,0.9,-0.003,-0.034,0.835,-0.13,-0.015,-0.957
151,-10.0,8.4,1.7,-0.024,0.022,0.95,-0.124,-0.006,-0.918
152,-11.4,11.2,2.0,0.03,0.144,1.042,-0.123,-0.019,-0.844
153,-0.3,-5.4,-1.1,0.0,0.08,1.049,-0.121,-0.022,-0.762
154,-0.4,-3.3,0.8,-0.023,0.153,1.044,-0.117,-0.027,-0.739
155,-1.6,-4.2,24.1,0.163,0.253,1.057,-0.132,-0.027,-0.744
156,-2.4,-3.2,3.3,0.029,0.067,1.048,-0.126,-0.025,-0.795
157,1.0,-6.5,-2.5,-0.01,0.002,0.828,-0.115,-0.021,-0.853
158,-0.8,-5.0,-14.7,-0.036,0.001,0.995,-0.121,-0.01,-0.904
159,-2.3,-2.5,0.9,0.007,-0.011,1.0,-0.121,-0.007,-0.94
160,-3.2,0.6,0.3,-0.022,-0.053,0.98,-0.129,-0.012,-0.969
161,-1.8,-1.6,0.8,-0.025,-0.071,0.958,-0.124,-0.012,-0.988
162,-2.1,-3.2,0.4,0.008,-0.035,0.992,-0.13,-0.015,-1.002
163,-1.8,-2.4,1.1,-0.009,-0.053,0.925,-0.138,-0.012,-1.008
164,-0.9,-4.8,1.1,-0.027,-0.041,1.018,-0.138,-0.016,-1.027
165,0.0,-4.3,0.9,-0.005,-0.047,1.011,-0.142,-0.016,-1.033
166,-1.7,-1.8,1.2,-0.033,-0.066,0.966,-0.145,-0.018,-1.03
167,-0.5,-3.7,0.8,-0.002,-0.022,0.926,-0.136,-0.018,-1.05
168,-1.1,-3.8,1.4,-0.029,-0.044,0.995,-0.139,-0.016,-1.044
169,-0.7,-3.1,0.9,-0.021,-0.027,1.063,-0.153,-0.019,-1.048
170,-0.9,-3.9,1.6,-0.029,-0.029,1.043,-0.156,-0.025,-1.057
171,-1.6,-2.5,1.1,-0.022,-0.014,0.996,-0.16,-0.024,-1.056
172,-1.0,-4.9,0.9,-0.019,-0.029,1.011,-0.156,-0.021,-1.05
173,-0.4,-3.3,1.1,-0.032,-0.052,1.02,-0.166,-0.024,-1.057
174,-0.9,-3.3,0.7,-0.031,-0.074,1.032,-0.157,-0.025,-1.069
175,-0.7,-3.3,0.9,-0.033,0.025,1.024,-0.171,-0.025,-1.065
176,-1.0,-3.5,1.1,-0.016,-0.016,1.041,-0.159,-0.024,-1.078
177,-1.4,-3.5,0.0,-0.015,-0.04,1.034,-0.166,-0.024,-1.066
178,-1.6,-3.5,0.7,-0.038,-0.022,1.03,-0.178,-0.025,-1.074
179,-1.5,-3.5,1.3,-0.026,-0.047,1.033,-0.175,-0.019,-1.063
180,-0.7,-3.3,0.7,-0.021,-0.025,1.02,-0.174,-0.019,-1.08
181,-1.2,-3.4,1.1,-0.025,0.043,1.043,-0.175,-0.021,-1.074
182,-1.6,-3.2,2.0,-0.035,-0.108,1.046,-0.174,-0.021,-1.078
183,-1.2,-3.9,4.9,-0.01,-0.024,1.037,-0.175,-0.021,-1.08
184,-0.7,-3.8,6.1,-0.028,-0.055,1.035,-0.18,-0.022,-1.068
185,-1.0,-3.3,1.0,-0.011,0.011,1.035,-0.181,-0.022,-1.077
186,-0.6,-3.8,13.1,-0.038,-0.059,1.047,-0.181,-0.018,-1.074
187,-1.1,-3.7,7.9,-0.018,-0.037,1.031,-0.18,-0.027,-1.074
188,-1.1,-3.7,4.6,-0.03,-0.04,1.037,-0.178,-0.027,-1.077
189,-1.1,-3.0,-3.9,-0.036,0.039,1.037,-0.177,-0.031,-1.074
190,-0.9,-3.4,4.0,-0.027,0.004,1.026,-0.174,-0.025,-1.084
191,-1.5,-3.7,1.4,-0.023,-0.038,1.037,-0.187,-0.027,-1.083
192,-1.6,-3.2,-3.9,-0.025,-0.041,1.037,-0.192,-0.033,-1.096
193,-1.5,-3.2,-5.3,-0.026,-0.066,1.037,-0.181,-0.024,-1.081
194,-1.7,-2.3,-23.6,-0.02,-0.032,1.034,-0.189,-0.025,-1.086
195,-1.4,-3.2,-2.0,-0.03,-0.057,1.034,-0.19,-0.031,-1.087
196,-1.2,-3.4,1.4,-0.026,-0.025,1.035,-0.192,-0.025,-1.092
197,-1.2,-3.4,1.1,-0.026,-0.027,1.034,-0.181,-0.024,-1.089
198,-1.3,-3.4,0.7,-0.024,0.016,1.037,-0.186,-0.027,-1.092
199,-1.3,-3.6,0.0,-0.027,-0.003,1.038,-0.187,-0.019,-1.081
200,-1.3,-3.3,1.2,-0.026,-0.065,1.036,-0.181,-0.021,-1.092
201,-1.1,-3.4,1.0,-0.025,-0.026,1.037,-0.192,-0.03,-1.087
202,-1.1,-3.5,1.1,-0.025,-0.026,1.039,-0.183,-0.018,-1.084
203,-1.2,-3.4,1.1,-0.025,-0.028,1.039,-0.186,-0.024,-1.087
204,-1.3,-3.4,0.9,-0.028,-0.022,1.038,-0.189,-0.021,-1.083
205,-1.1,-3.5,1.1,-0.025,-0.029,1.039,-0.193,-0.022,-1.093
206,-1.3,-3.4,0.9,-0.023,-0.028,1.039,-0.184,-0.025,-1.089
207,-1.2,-3.4,1.0,-0.028,-0.019,1.038,-0.184,-0.027,-1.084
208,-1.3,-3.3,1.1,-0.027,-0.035,1.038,-0.186,-0.025,-1.084
209,-1.0,-3.6,1.5,-0.026,-0.02,1.039,-0.181,-0.028,-1.078
210,-1.1,-3.4,2.3,-0.024,-0.03,1.039,-0.184,-0.021,-1.083
211,-1.3,-3.4,1.2,-0.027,-0.025,1.04,-0.192,-0.021,-1.081
212,-1.4,-3.4,1.4,-0.024,-0.026,1.045,-0.181,-0.012,-1.089
213,-1.2,-3.3,1.0,-0.023,-0.035,1.036,-0.19,-0.016,-1.083
214,-1.1,-3.3,0.9,-0.034,-0.114,1.038,-0.181,-0.025,-1.084
215,-3.5,-0.4,5.1,-0.034,-0.023,1.047,-0.186,-0.03,-1.086
216,-1.5,-3.1,6.4,-0.035,-0.167,1.045,-0.193,-0.024,-1.078
217,-1.4,-3.2,3.5,-0.025,-0.011,1.041,-0.18,-0.021,-1.089
218,-1.5,-3.2,0.9,-0.026,-0.03,1.039,-0.189,-0.024,-1.093
219,-1.4,-3.1,1.1,-0.028,-0.018,1.041,-0.181,-0.037,-1.089
220,-1.3,-3.2,0.9,-0.024,-0.032,1.041,-0.192,-0.03,-1.093
221,-1.2,-3.2,2.0,-0.027,-0.017,1.039,-0.186,-0.022,-1.083
222,-1.3,-3.2,1.3,-0.028,-0.024,1.039,-0.189,-0.022,-1.087
223,-1.4,-3.2,0.9,-0.024,-0.03,1.04,-0.181,-0.025,-1.08
224,-1.3,-3.2,0.8,-0.026,-0.019,1.04,-0.175,-0.028,-1.084
225,-1.4,-3.2,1.2,-0.026,-0.029,1.041,-0.184,-0.03,-1.077
226,-1.4,-3.7,12.3,-0.026,0.003,1.043,-0.181,-0.024,-1.092
227,-1.3,-3.2,2.9,-0.023,-0.024,1.039,-0.189,-0.031,-1.086
228,-1.4,-3.1,1.5,-0.026,-0.027,1.04,-0.175,-0.024,-1.08
229,-1.4,-3.1,0.9,-0.027,-0.022,1.041,-0.181,-0.024,-1.084
230,-1.5,-3.1,-3.0,-0.024,-0.088,1.039,-0.186,-0.027,-1.086
231,-1.5,-2.7,-8.1,-0.026,-0.017,1.041,-0.184,-0.03,-1.089
232,-1.4,-3.2,0.7,-0.026,-0.029,1.041,-0.192,-0.022,-1.083
233,-1.5,-3.2,1.1,-0.028,-0.022,1.042,-0.181,-0.033,-1.08
234,-1.4,-3.3,1.1,-0.024,-0.025,1.04,-0.19,-0.033,-1.093
235,-1.4,-3.2,1.0,-0.026,-0.025,1.042,-0.184,-0.027,-1.083
236,-1.5,-3.2,1.1,-0.027,-0.022,1.039,-0.19,-0.025,-1.084
237,-1.4,-3.1,0.9,-0.025,-0.029,1.041,-0.177,-0.028,-1.09
238,-1.4,-3.1,0.8,-0.024,-0.023,1.04,-0.19,-0.034,-1.084
239,-1.2,-3.2,0.3,-0.026,-0.026,1.041,-0.19,-0.028,-1.086
240,-0.9,-3.2,0.2,-0.027,-0.019,1.042,-0.186,-0.019,-1.084
241,-1.6,-3.0,0.9,-0.025,-0.024,1.041,-0.183,-0.03,-1.081
242,-1.8,-3.0,1.5,-0.025,-0.028,1.039,-0.186,-0.025,-1.078
243,-1.4,-2.9,0.4,-0.027,-0.023,1.041,-0.187,-0.028,-1.089
244,-1.3,-3.0,0.7,-0.025,-0.028,1.04,-0.181,-0.03,-1.083
245,-1.2,-3.0,0.1,-0.024,-0.03,1.041,-0.189,-0.036,-1.089
246,-1.7,-3.0,1.2,-0.025,-0.025,1.04,-0.183,-0.031,-1.089
247,-1.6,-3.0,1.4,-0.028,-0.024,1.039,-0.184,-0.022,-1.086
248,-1.6,-3.0,1.2,-0.026,-0.022,1.04,-0.183,-0.024,-1.084
249,-1.6,-2.9,1.0,-0.025,-0.027,1.04,-0.186,-0.03,-1.087
250,-1.5,-3.0,0.8,-0.027,-0.022,1.04,-0.187,-0.015,-1.084
251,-1.3,-3.0,0.8,-0.025,-0.026,1.042,-0.187,-0.027,-1.077
252,-1.4,-3.0,1.1,-0.025,-0.023,1.04,-0.178,-0.031,-1.086
253,-1.6,-3.0,1.3,-0.025,-0.025,1.04,-0.184,-0.028,-1.087
254,-1.6,-3.0,1.3,-0.026,-0.027,1.039,-0.186,-0.025,-1.08
255,-1.4,-3.0,0.9,-0.023,-0.023,1.039,-0.184,-0.027,-1.081
256,-1.6,-3.0,1.1,-0.025,-0.027,1.04,-0.186,-0.033,-1.087
257,-1.6,-3.0,1.3,-0.026,-0.023,1.041,-0.184,-0.03,-1.084
258,-1.5,-3.0,1.1,-0.026,-0.025,1.041,-0.189,-0.024,-1.081
259,-1.5,-3.0,0.9,-0.024,-0.027,1.039,-0.189,-0.034,-1.086
260,-1.4,-3.0,0.8,-0.027,-0.023,1.041,-0.187,-0.025,-1.089
261,-1.5,-3.0,0.9,-0.025,-0.027,1.04,-0.184,-0.03,-1.077
262,-1.6,-3.0,1.0,-0.025,-0.022,1.041,-0.178,-0.028,-1.092
263,-1.4,-3.0,0.9,-0.024,-0.027,1.039,-0.183,-0.022,-1.089
264,-1.5,-3.0,1.0,-0.028,-0.026,1.04,-0.175,-0.03,-1.08
265,-1.4,-3.0,1.0,-0.025,-0.024,1.041,-0.187,-0.025,-1.087
266,-1.6,-3.0,1.1,-0.024,-0.026,1.041,-0.192,-0.024,-1.083
267,-1.5,-3.0,1.0,-0.026,-0.022,1.041,-0.186,-0.033,-1.08
268,-1.6,-3.0,1.1,-0.028,-0.026,1.04,-0.195,-0.027,-1.084
269,-1.6,-3.0,1.0,-0.023,-0.026,1.04,-0.186,-0.021,-1.086
270,-1.5,-3.0,1.0,-0.025,-0.024,1.041,-0.181,-0.024,-1.08
271,-1.5,-3.1,1.1,-0.027,-0.026,1.041,-0.177,-0.031,-1.08
272,-1.6,-3.0,1.2,-0.025,-0.024,1.039,-0.177,-0.028,-1.087
273,-1.5,-3.0,1.1,-0.023,-0.025,1.039,-0.175,-0.025,-1.089
274,-1.6,-3.0,1.1,-0.025,-0.026,1.04,-0.181,-0.031,-1.084
275,-1.4,-3.0,0.7,-0.026,-0.025,1.041,-0.192,-0.021,-1.077
276,-1.5,-3.0,0.9,-0.023,-0.025,1.04,-0.184,-0.024,-1.084
277,-1.4,-3.0,0.9,-0.025,-0.024,1.039,-0.186,-0.016,-1.081
278,-1.5,-3.0,1.0,-0.027,-0.026,1.041,-0.184,-0.028,-1.092
279,-1.5,-3.0,1.0,-0.027,-0.024,1.04,-0.193,-0.021,-1.077
280,-1.5,-3.0,1.1,-0.025,-0.026,1.039,-0.192,-0.024,-1.08
281,-1.5,-3.0,1.1,-0.027,-0.024,1.038,-0.19,-0.027,-1.075
282,-1.5,-3.0,1.0,-0.026,-0.026,1.038,-0.181,-0.025,-1.087
283,-1.5,-3.1,0.9,-0.025,-0.024,1.039,-0.181,-0.024,-1.087
284,-1.5,-3.1,1.0,-0.025,-0.025,1.039,-0.184,-0.028,-1.081
285,-1.4,-3.1,0.9,-0.025,-0.025,1.038,-0.187,-0.022,-1.087
286,-1.4,-3.1,1.0,-0.026,-0.024,1.038,-0.181,-0.027,-1.087
287,-1.4,-3.1,0.9,-0.026,-0.026,1.038,-0.19,-0.024,-1.092
288,-1.5,-3.1,1.0,-0.024,-0.025,1.039,-0.187,-0.019,-1.084
289,-1.6,-3.1,1.1,-0.026,-0.025,1.038,-0.183,-0.022,-1.08
290,-1.3,-3.1,0.9,-0.025,-0.024,1.037,-0.18,-0.024,-1.081
291,-1.6,-3.1,1.2,-0.025,-0.026,1.038,-0.187,-0.03,-1.075
292,-1.5,-3.1,1.1,-0.027,-0.025,1.038,-0.183,-0.028,-1.08
293,-1.5,-3.1,1.0,-0.025,-0.024,1.036,-0.181,-0.024,-1.08
294,-1.5,-3.1,1.1,-0.026,-0.024,1.035,-0.181,-0.021,-1.086
295,-1.5,-3.1,1.0,-0.025,-0.025,1.035,-0.184,-0.018,-1.092
296,-1.4,-3.1,0.9,-0.027,-0.024,1.035,-0.193,-0.028,-1.084
297,-1.5,-3.1,1.1,-0.025,-0.025,1.035,-0.186,-0.022,-1.084
298,-1.5,-3.1,1.1,-0.025,-0.025,1.036,-0.195,-0.034,-1.08
299,-1.4,-3.0,1.0,-0.025,-0.026,1.035,-0.186,-0.022,-1.072
300,-1.5,-3.2,1.1,-0.027,-0.024,1.036,-0.186,-0.027,-1.081
301,-1.5,-3.1,1.0,-0.024,-0.024,1.034,-0.187,-0.019,-1.075
302,-1.6,-3.1,1.2,-0.026,-0.024,1.035,-0.189,-0.027,-1.092
303,-1.5,-3.0,1.0,-0.025,-0.025,1.035,-0.186,-0.036,-1.092
304,-1.4,-3.1,0.9,-0.027,-0.025,1.035,-0.189,-0.034,-1.077
305,-1.5,-3.1,0.9,-0.024,-0.025,1.033,-0.186,-0.025,-1.078
306,-1.5,-3.0,1.0,-0.024,-0.026,1.034,-0.186,-0.037,-1.089
307,-1.4,-3.1,0.9,-0.026,-0.024,1.034,-0.184,-0.024,-1.084
308,-1.5,-3.1,1.1,-0.025,-0.025,1.033,-0.18,-0.024,-1.093
309,-1.6,-3.1,1.1,-0.025,-0.026,1.034,-0.183,-0.025,-1.092
310,-1.4,-3.0,1.0,-0.025,-0.025,1.034,-0.187,-0.031,-1.084
