,Gyroscope X (deg/s),Gyroscope Y (deg/s),Gyroscope Z (deg/s),Accelerometer X (g),Accelerometer Y (g),Accelerometer Z (g),Magnetometer X (G),Magnetometer Y (G),Magnetometer Z (G)
1,-1.1,-3.6,1.0,-0.029,-0.031,1.04,0.198,0.036,-0.687
2,-1.1,-3.5,1.1,-0.024,-0.016,1.036,0.205,0.036,-0.694
3,-1.1,-3.5,1.2,-0.033,-0.035,1.038,0.216,0.03,-0.706
4,-1.2,-3.6,0.9,-0.032,-0.025,1.036,0.201,0.033,-0.699
5,-1.1,-3.2,1.1,-0.029,-0.027,1.038,0.196,0.031,-0.699
6,-1.1,-3.7,1.0,-0.03,-0.034,1.04,0.201,0.034,-0.694
7,-1.1,-3.5,0.9,-0.032,-0.023,1.04,0.202,0.033,-0.693
8,-1.1,-3.2,1.1,-0.034,-0.034,1.036,0.19,0.028,-0.693
9,-1.2,-3.5,1.0,-0.027,-0.025,1.037,0.207,0.031,-0.699
10,-1.1,-3.5,0.9,-0.031,-0.029,1.038,0.201,0.028,-0.7
11,-1.1,-3.5,1.0,-0.034,-0.029,1.038,0.193,0.028,-0.694
12,-1.1,-3.5,1.1,-0.03,-0.026,1.037,0.193,0.03,-0.7
13,-1.1,-3.5,1.1,-0.03,-0.032,1.039,0.205,0.025,-0.694
14,-1.2,-3.7,1.0,-0.029,-0.026,1.04,0.198,0.034,-0.696
15,-1.1,-3.7,1.1,-0.035,-0.03,1.038,0.199,0.025,-0.697
16,-1.2,-3.5,0.9,-0.031,-0.029,1.039,0.199,0.036,-0.699
17,-1.1,-3.5,1.0,-0.028,-0.026,1.036,0.204,0.03,-0.696
18,-1.1,-3.4,1.1,-0.031,-0.031,1.036,0.205,0.027,-0.69
19,-1.1,-3.5,1.0,-0.033,-0.026,1.038,0.204,0.037,-0.693
20,-1.1,-3.5,1.0,-0.027,-0.029,1.039,0.193,0.031,-0.697
21,-1.2,-3.5,1.1,-0.03,-0.027,1.036,0.202,0.031,-0.703
22,-1.1,-3.5,1.1,-0.033,-0.028,1.039,0.198,0.033,-0.694
23,-1.1,-3.5,1.0,-0.03,-0.029,1.037,0.201,0.033,-0.697
24,-1.1,-3.2,1.1,-0.027,-0.027,1.036,0.202,0.034,-0.702
25,-1.1,-3.4,1.0,-0.033,-0.03,1.038,0.207,0.031,-0.7
26,-1.2,-3.6,1.0,-0.032,-0.028,1.039,0.196,0.03,-0.699
27,-1.1,-3.5,1.1,-0.028,-0.028,1.039,0.204,0.034,-0.7
28,-1.1,-3.7,1.1,-0.029,-0.029,1.04,0.21,0.033,-0.699
29,-1.1,-3.6,1.0,-0.032,-0.029,1.041,0.198,0.027,-0.699
30,-1.1,-3.5,1.0,-0.031,-0.029,1.038,0.207,0.027,-0.697
31,-1.1,-3.6,1.0,-0.028,-0.028,1.04,0.208,0.025,-0.699
32,-1.1,-3.6,1.1,-0.032,-0.029,1.039,0.201,0.042,-0.69
33,-1.2,-3.4,1.1,-0.031,-0.028,1.038,0.205,0.034,-0.696
34,-1.1,-3.5,1.0,-0.028,-0.029,1.037,0.204,0.028,-0.696
35,-1.1,-3.5,1.0,-0.03,-0.028,1.04,0.208,0.036,-0.699
36,-1.1,-3.5,1.0,-0.035,-0.028,1.04,0.207,0.028,-0.684
37,-1.1,-3.5,0.9,-0.029,-0.029,1.039,0.198,0.036,-0.694
38,-1.1,-3.4,1.0,-0.029,-0.027,1.037,0.211,0.031,-0.694
39,-1.1,-3.5,1.1,-0.033,-0.029,1.038,0.201,0.033,-0.69
40,-1.1,-3.5,0.9,-0.031,-0.027,1.037,0.199,0.033,-0.693
41,-1.1,-3.5,1.1,-0.028,-0.028,1.039,0.202,0.033,-0.69
42,-1.1,-3.5,1.1,-0.032,-0.029,1.039,0.196,0.027,-0.696
43,-1.1,-3.5,1.0,-0.032,-0.027,1.04,0.201,0.039,-0.702
44,-1.1,-3.4,1.0,-0.028,-0.028,1.038,0.199,0.031,-0.696
45,-1.1,-3.7,1.1,-0.029,-0.027,1.04,0.201,0.028,-0.7
46,-1.1,-3.4,0.9,-0.033,-0.029,1.039,0.202,0.037,-0.703
47,-1.1,-3.5,1.0,-0.031,-0.028,1.039,0.199,0.03,-0.7
48,-1.2,-3.7,1.1,-0.029,-0.029,1.039,0.196,0.03,-0.705
49,-1.1,-3.5,0.9,-0.031,-0.029,1.039,0.199,0.036,-0.696
50,-1.1,-3.4,0.9,-0.03,-0.027,1.039,0.202,0.036,-0.694
51,-1.1,-3.5,1.0,-0.031,-0.028,1.039,0.205,0.033,-0.696
52,-1.2,-3.5,1.1,-0.031,-0.028,1.039,0.201,0.036,-0.696
53,-1.1,-3.4,1.0,-0.031,-0.028,1.036,0.199,0.027,-0.702
54,-1.1,-3.2,0.9,-0.027,-0.028,1.038,0.198,0.033,-0.699
55,-1.1,-3.4,0.9,-0.033,-0.029,1.039,0.202,0.028,-0.702
56,-1.1,-3.6,1.0,-0.033,-0.029,1.04,0.199,0.033,-0.699
57,-1.1,-3.5,1.1,-0.029,-0.028,1.037,0.198,0.027,-0.699
58,-1.1,-3.6,1.1,-0.03,-0.029,1.04,0.204,0.027,-0.697
59,-1.1,-3.5,1.0,-0.032,-0.028,1.038,0.204,0.025,-0.7
60,-1.1,-3.5,1.1,-0.03,-0.029,1.039,0.201,0.031,-0.696
61,-1.1,-3.6,1.0,-0.029,-0.028,1.038,0.202,0.025,-0.697
62,-1.1,-3.4,1.0,-0.03,-0.028,1.038,0.201,0.03,-0.696
63,-1.1,-3.5,1.0,-0.032,-0.03,1.039,0.207,0.028,-0.699
64,-1.1,-3.5,1.0,-0.03,-0.026,1.037,0.204,0.028,-0.697
65,-1.1,-3.5,1.1,-0.03,-0.031,1.038,0.193,0.031,-0.694
66,-1.1,-3.5,1.0,-0.033,-0.028,1.037,0.201,0.027,-0.709
67,-1.1,-3.6,0.8,-0.03,-0.03,1.039,0.196,0.022,-0.697
68,-0.9,-4.7,1.0,-0.027,-0.027,1.041,0.207,0.031,-0.702
69,-1.3,-3.5,1.0,-0.031,-0.029,1.032,0.205,0.028,-0.705
70,-1.4,-3.3,1.8,-0.029,-0.025,1.038,0.192,0.034,-0.691
71,-1.2,-3.5,1.3,-0.028,-0.029,1.038,0.199,0.027,-0.69
72,-1.1,-3.5,1.0,-0.03,-0.029,1.036,0.205,0.034,-0.706
73,-1.3,-3.5,1.2,-0.03,-0.027,1.038,0.205,0.027,-0.702
74,-1.4,-3.3,1.4,-0.03,-0.031,1.035,0.21,0.03,-0.697
75,-1.1,-3.5,0.7,-0.029,-0.029,1.037,0.204,0.034,-0.706
76,-1.1,-3.5,1.0,-0.029,-0.026,1.039,0.201,0.028,-0.697
77,-1.1,-3.4,0.7,-0.029,-0.032,1.039,0.201,0.037,-0.697
78,-1.1,-3.4,0.6,-0.027,-0.024,1.04,0.196,0.034,-0.697
79,-1.1,-3.4,1.1,-0.029,-0.029,1.039,0.196,0.033,-0.7
80,-1.2,-3.4,0.9,-0.029,-0.028,1.039,0.199,0.034,-0.694
81,-1.1,-3.5,1.0,-0.028,-0.027,1.038,0.202,0.036,-0.693
82,-1.1,-3.5,1.0,-0.033,-0.033,1.037,0.204,0.031,-0.697
83,-1.1,-3.5,1.1,-0.028,-0.024,1.036,0.202,0.034,-0.688
84,-1.2,-3.5,1.1,-0.028,-0.032,1.039,0.201,0.033,-0.697
85,-1.2,-3.4,1.0,-0.03,-0.027,1.038,0.196,0.025,-0.696
86,-1.2,-3.4,1.1,-0.031,-0.028,1.038,0.207,0.028,-0.696
87,-1.2,-3.5,1.1,-0.028,-0.03,1.037,0.205,0.034,-0.7
88,-1.2,-3.4,1.0,-0.025,-0.025,1.037,0.205,0.025,-0.699
89,-1.2,-3.5,1.2,-0.031,-0.031,1.037,0.202,0.024,-0.69
90,-1.3,-3.5,1.1,-0.03,-0.026,1.039,0.204,0.03,-0.702
91,-1.1,-3.5,1.0,-0.027,-0.028,1.039,0.196,0.034,-0.693
92,-1.2,-3.5,1.0,-0.027,-0.03,1.039,0.207,0.031,-0.696
93,-1.1,-3.5,1.1,-0.032,-0.026,1.038,0.195,0.034,-0.699
94,-1.1,-3.4,0.9,-0.028,-0.031,1.039,0.201,0.027,-0.699
95,-1.1,-3.4,0.9,-0.026,-0.027,1.038,0.211,0.03,-0.699
96,-1.1,-3.3,-3.2,-0.036,-0.04,1.038,0.201,0.028,-0.693
97,-1.2,-3.5,1.9,-0.032,-0.026,1.039,0.207,0.03,-0.693
98,-1.1,-3.5,1.0,-0.029,-0.036,1.037,0.201,0.022,-0.696
99,-1.3,-3.6,1.0,-0.027,-0.022,1.037,0.21,0.031,-0.7
100,-1.1,-3.5,1.3,-0.031,-0.031,1.036,0.207,0.036,-0.706
101,-1.1,-3.5,1.1,-0.029,-0.031,1.037,0.199,0.033,-0.694
102,-1.1,-3.5,0.9,-0.027,-0.022,1.036,0.204,0.033,-0.7
103,-1.1,-3.5,1.1,-0.03,-0.033,1.038,0.196,0.028,-0.702
104,-1.1,-3.5,1.2,-0.027,-0.022,1.036,0.193,0.037,-0.697
105,-1.1,-3.5,2.7,-0.03,-0.032,1.038,0.193,0.027,-0.709
106,-1.4,-3.5,2.4,-0.026,-0.025,1.038,0.205,0.03,-0.696
107,-1.2,-3.5,1.1,-0.028,-0.028,1.039,0.204,0.028,-0.702
108,-1.2,-3.5,1.4,-0.027,-0.026,1.039,0.198,0.03,-0.702
109,-1.1,-2.9,1.1,0.001,-0.009,1.038,0.208,0.031,-0.697
110,-1.6,-3.5,0.0,-0.063,0.034,1.033,0.201,0.031,-0.708
111,-0.9,-3.3,0.7,-0.027,-0.021,1.032,0.196,0.03,-0.714
112,-1.7,-2.9,1.3,-0.045,0.007,1.029,0.192,0.027,-0.714
113,-1.8,-2.9,0.8,-0.002,0.009,1.05,0.184,0.025,-0.727
114,-0.4,-4.4,-1.5,-0.031,0.02,1.021,0.181,0.018,-0.741
115,-0.7,-3.8,0.5,-0.048,0.036,1.054,0.16,0.019,-0.754
116,-2.4,-1.8,2.2,-0.042,0.056,0.983,0.156,0.022,-0.763
117,-0.5,-4.0,1.7,-0.011,0.009,0.969,0.142,0.016,-0.766
118,0.2,-5.4,0.4,-0.062,0.014,0.989,0.118,-0.001,-0.772
119,-2.1,-1.6,0.5,-0.004,0.043,0.997,0.106,0.003,-0.757
120,-0.4,-2.9,1.8,-0.02,0.066,0.956,0.09,-0.015,-0.742
121,2.7,-7.4,0.2,0.002,0.024,0.935,0.079,-0.019,-0.708
122,1.1,-7.2,2.7,-0.026,0.009,0.966,0.064,-0.036,-0.633
123,-3.0,-0.8,0.1,0.01,-0.038,0.767,0.06,-0.052,-0.523
124,-6.7,2.4,0.4,-0.005,0.012,0.908,0.055,-0.087,-0.342
125,-6.5,3.2,2.7,-0.019,0.026,0.861,0.049,-0.144,-0.105
126,-6.7,3.9,0.2,0.022,-0.014,0.908,0.04,-0.234,0.198
127,2.7,-8.0,0.7,-0.043,-0.017,0.927,0.007,-0.301,0.429
128,-0.8,-3.0,1.0,-0.009,-0.004,0.943,-0.069,-0.273,0.376
129,3.5,-10.8,0.2,-0.003,0.05,0.879,-0.142,-0.18,0.082
130,-2.0,-1.0,1.8,-0.01,-0.032,0.926,-0.175,-0.097,-0.277
131,-6.4,3.7,2.2,-0.038,-0.049,0.844,-0.166,-0.043,-0.552
132,2.5,-6.5,1.2,0.0,-0.065,0.826,-0.144,-0.03,-0.729
133,-2.1,-1.8,2.9,0.003,-0.058,0.801,-0.127,-0.015,-0.841
134,10.7,-19.4,0.7,-0.005,0.03,0.937,-0.124,-0.016,-0.918
135,-1.4,-2.5,0.5,-0.022,-0.009,0.916,-0.126,-0.013,-0.949
136,-2.8,-1.6,0.4,-0.005,-0.047,0.875,-0.129,-0.01,-0.984
137,-5.9,1.6,0.9,-0.004,-0.02,0.966,-0.136,-0.013,-1.003
138,-0.9,-4.0,0.8,-0.016,-0.06,1.002,-0.13,-0.013,-1.02
139,-1.8,-2.6,0.9,-0.033,0.01,0.942,-0.141,-0.015,-1.041
140,1.5,-7.1,1.1,0.012,0.015,0.967,-0.141,-0.024,-1.03
141,-5.3,2.2,1.8,-0.029,-0.038,1.037,-0.148,-0.021,-1.042
142,-0.4,-3.5,0.5,-0.029,-0.014,1.023,-0.15,-0.021,-1.053
143,-1.2,-3.7,1.5,0.0,-0.042,0.978,-0.157,-0.021,-1.051
144,-0.7,-5.1,1.0,-0.023,-0.096,1.012,-0.16,-0.021,-1.06
145,-1.1,-3.2,1.1,-0.042,-0.029,1.072,-0.169,-0.021,-1.053
146,-0.7,-3.7,1.1,-0.021,-0.092,1.048,-0.165,-0.019,-1.053
147,-0.6,-3.6,0.5,-0.029,-0.022,1.048,-0.165,-0.018,-1.06
148,-1.0,-3.7,0.9,-0.027,0.002,1.066,-0.168,-0.025,-1.063
149,-1.6,-3.1,1.4,-0.027,-0.04,1.042,-0.168,-0.019,-1.063
150,-1.4,-3.7,1.4,-0.027,-0.007,1.042,-0.174,-0.024,-1.075
151,-1.3,-3.1,0.7,-0.02,-0.061,1.056,-0.166,-0.021,-1.066
152,-0.7,-3.4,1.1,-0.032,-0.154,1.041,-0.175,-0.025,-1.074
153,-1.2,-3.4,1.6,-0.032,-0.033,1.037,-0.174,-0.03,-1.071
154,-1.1,-3.4,0.9,-0.029,-0.026,1.037,-0.175,-0.03,-1.074
155,-1.1,-3.3,0.9,-0.029,-0.025,1.038,-0.171,-0.024,-1.072
156,-1.2,-3.4,1.1,-0.03,-0.027,1.037,-0.168,-0.015,-1.069
157,-1.2,-3.3,1.0,-0.03,-0.025,1.038,-0.178,-0.022,-1.063
158,-1.1,-3.4,1.6,-0.027,-0.024,1.037,-0.186,-0.025,-1.077
159,-1.4,-3.5,9.1,-0.037,-0.027,1.034,-0.168,-0.024,-1.075
160,-1.1,-3.4,1.8,-0.029,0.013,1.038,-0.18,-0.033,-1.08
161,-1.1,-3.4,-2.4,-0.024,-0.051,1.03,-0.186,-0.013,-1.069
162,-1.1,-3.5,0.8,-0.023,0.028,1.046,-0.174,-0.024,-1.071
163,-1.4,-3.4,0.2,-0.012,0.03,1.04,-0.186,-0.019,-1.08
164,-1.1,-3.7,3.8,-0.036,-0.005,1.033,-0.175,-0.025,-1.077
165,-0.6,-3.4,0.8,-0.024,-0.061,1.027,-0.178,-0.018,-1.078
166,-1.4,-3.5,1.3,-0.028,-0.061,1.034,-0.181,-0.018,-1.074
167,-1.2,-3.5,0.8,-0.03,-0.027,1.036,-0.171,-0.028,-1.065
168,-1.1,-3.4,0.5,-0.029,-0.026,1.038,-0.168,-0.021,-1.075
169,-1.1,-3.5,0.4,-0.028,-0.031,1.037,-0.177,-0.024,-1.077
170,-1.2,-3.4,1.0,-0.029,-0.026,1.038,-0.174,-0.019,-1.078
171,-1.2,-3.3,1.0,-0.03,-0.028,1.038,-0.178,-0.03,-1.081
172,-1.2,-3.3,1.0,-0.029,-0.025,1.037,-0.177,-0.033,-1.075
173,-1.3,-3.2,1.1,-0.029,-0.026,1.04,-0.181,-0.031,-1.062
174,-1.3,-3.2,1.0,-0.029,-0.027,1.038,-0.181,-0.028,-1.072
175,-1.4,-3.3,0.9,-0.033,-0.025,1.039,-0.183,-0.024,-1.072
176,-1.3,-3.2,1.1,-0.03,-0.026,1.038,-0.184,-0.021,-1.069
177,-1.3,-3.3,1.0,-0.026,-0.025,1.039,-0.174,-0.016,-1.075
178,-1.4,-3.2,0.7,-0.03,-0.028,1.037,-0.183,-0.027,-1.074
179,-1.1,-3.4,0.9,-0.031,-0.022,1.041,-0.184,-0.024,-1.08
180,-1.1,-3.5,1.1,-0.029,-0.027,1.04,-0.181,-0.027,-1.077
181,-1.1,-3.5,0.9,-0.028,-0.027,1.039,-0.189,-0.025,-1.083
182,-1.1,-3.5,1.0,-0.032,-0.022,1.038,-0.186,-0.03,-1.078
183,-1.1,-3.5,0.9,-0.029,-0.032,1.038,-0.189,-0.027,-1.078
184,-1.1,-3.5,1.0,-0.028,-0.021,1.037,-0.174,-0.024,-1.072
185,-1.1,-3.5,1.1,-0.029,-0.028,1.039,-0.187,-0.019,-1.08
186,-1.2,-3.5,1.1,-0.032,-0.025,1.038,-0.174,-0.021,-1.068
187,-1.1,-3.5,1.1,-0.029,-0.024,1.038,-0.184,-0.022,-1.068
188,-1.2,-3.5,1.1,-0.028,-0.03,1.034,-0.181,-0.021,-1.077
189,-1.1,-3.5,1.0,-0.032,-0.022,1.036,-0.177,-0.018,-1.081
190,-1.1,-3.5,1.1,-0.031,-0.03,1.037,-0.181,-0.019,-1.068
191,-1.1,-3.5,1.1,-0.027,-0.024,1.037,-0.18,-0.022,-1.066
192,-1.1,-3.5,1.0,-0.029,-0.027,1.035,-0.169,-0.028,-1.068
193,-1.1,-3.5,0.9,-0.031,-0.027,1.036,-0.18,-0.01,-1.069
194,-1.1,-3.5,1.0,-0.03,-0.023,1.038,-0.187,-0.022,-1.089
195,-1.1,-3.5,1.0,-0.027,-0.03,1.038,-0.186,-0.022,-1.069
196,-1.1,-3.5,1.0,-0.03,-0.023,1.037,-0.177,-0.021,-1.066
197,-1.1,-3.5,0.9,-0.031,-0.027,1.037,-0.183,-0.025,-1.081
198,-1.1,-3.4,1.0,-0.028,-0.025,1.038,-0.187,-0.024,-1.069
199,-1.1,-3.5,1.0,-0.031,-0.025,1.038,-0.19,-0.03,-1.072
200,-1.2,-3.5,1.0,-0.029,-0.028,1.039,-0.178,-0.016,-1.068
201,-1.2,-3.5,0.9,-0.03,-0.022,1.039,-0.174,-0.027,-1.077
202,-1.2,-3.5,1.1,-0.028,-0.028,1.039,-0.18,-0.016,-1.072
203,-1.1,-3.4,1.0,-0.031,-0.026,1.04,-0.178,-0.025,-1.074
204,-1.1,-3.5,0.8,-0.029,-0.026,1.042,-0.18,-0.021,-1.071
205,-1.2,-3.5,0.8,-0.029,-0.026,1.041,-0.178,-0.03,-1.074
206,-1.1,-3.4,1.0,-0.029,-0.025,1.041,-0.175,-0.019,-1.071
207,-1.3,-3.4,1.1,-0.031,-0.027,1.043,-0.18,-0.024,-1.068
208,-1.3,-3.4,1.1,-0.028,-0.025,1.042,-0.181,-0.025,-1.071
209,-1.2,-3.5,1.3,-0.027,-0.024,1.042,-0.181,-0.025,-1.062
210,-1.2,-3.3,0.8,-0.03,-0.028,1.044,-0.184,-0.028,-1.074
211,-1.8,-3.5,1.6,-0.033,-0.024,1.043,-0.18,-0.012,-1.075
212,-1.3,-3.3,1.1,-0.028,-0.027,1.041,-0.172,-0.022,-1.083
213,-1.4,-3.2,1.0,-0.029,-0.024,1.043,-0.181,-0.027,-1.074
214,-1.4,-3.2,1.0,-0.032,-0.025,1.042,-0.177,-0.013,-1.069
215,-1.3,-3.3,1.0,-0.028,-0.027,1.042,-0.174,-0.018,-1.083
216,-1.3,-3.2,1.0,-0.029,-0.023,1.044,-0.184,-0.033,-1.074
217,-1.4,-3.2,1.1,-0.03,-0.027,1.043,-0.183,-0.025,-1.071
218,-1.4,-3.2,1.0,-0.03,-0.025,1.04,-0.172,-0.025,-1.078
219,-1.3,-3.3,1.0,-0.028,-0.027,1.04,-0.187,-0.024,-1.069
220,-1.4,-3.3,1.1,-0.029,-0.025,1.041,-0.177,-0.021,-1.071
221,-1.4,-3.2,1.0,-0.03,-0.026,1.04,-0.175,-0.016,-1.077
222,-1.3,-3.3,1.0,-0.029,-0.025,1.042,-0.184,-0.022,-1.075
223,-1.4,-3.3,1.0,-0.028,-0.025,1.04,-0.186,-0.027,-1.072
224,-1.4,-3.4,1.0,-0.03,-0.026,1.041,-0.18,-0.028,-1.077
225,-1.3,-3.4,1.0,-0.03,-0.026,1.041,-0.18,-0.028,-1.063
226,-1.3,-3.4,1.0,-0.03,-0.026,1.038,-0.184,-0.016,-1.072
227,-1.3,-3.3,1.0,-0.029,-0.025,1.039,-0.184,-0.018,-1.069
228,-1.2,-3.4,1.0,-0.031,-0.026,1.039,-0.18,-0.022,-1.068
229,-1.3,-3.3,0.9,-0.03,-0.026,1.042,-0.175,-0.019,-1.075
230,-1.3,-3.3,1.0,-0.03,-0.025,1.041,-0.175,-0.015,-1.078
231,-1.3,-3.3,1.0,-0.03,-0.027,1.041,-0.186,-0.025,-1.066
232,-1.3,-3.3,1.0,-0.029,-0.025,1.04,-0.169,-0.024,-1.072
233,-1.3,-3.3,1.1,-0.029,-0.025,1.039,-0.178,-0.024,-1.063
234,-1.4,-3.3,1.0,-0.03,-0.026,1.042,-0.178,-0.022,-1.074
235,-1.3,-3.3,0.9,-0.03,-0.024,1.041,-0.183,-0.027,-1.065
236,-1.3,-3.3,1.0,-0.029,-0.026,1.041,-0.175,-0.021,-1.066
237,-1.2,-3.4,1.0,-0.031,-0.025,1.041,-0.172,-0.027,-1.075
238,-1.2,-3.4,1.0,-0.03,-0.026,1.042,-0.18,-0.025,-1.069
239,-1.2,-3.4,1.0,-0.031,-0.025,1.042,-0.172,-0.025,-1.072
240,-1.2,-3.4,1.1,-0.029,-0.026,1.043,-0.175,-0.019,-1.075
241,-1.3,-3.4,1.0,-0.03,-0.026,1.042,-0.184,-0.01,-1.075
242,-1.3,-3.4,0.9,-0.03,-0.025,1.042,-0.178,-0.019,-1.075
243,-1.3,-3.3,1.0,-0.029,-0.024,1.042,-0.18,-0.024,-1.075
244,-1.3,-3.4,1.0,-0.029,-0.027,1.041,-0.181,-0.03,-1.077
245,-1.3,-3.3,1.0,-0.03,-0.025,1.041,-0.184,-0.025,-1.08
246,-1.3,-3.4,1.1,-0.029,-0.025,1.042,-0.19,-0.022,-1.078
247,-1.2,-3.3,0.9,-0.027,-0.026,1.041,-0.178,-0.022,-1.084
248,-1.3,-3.4,1.1,-0.03,-0.024,1.041,-0.178,-0.028,-1.081
249,-1.2,-3.4,1.0,-0.029,-0.027,1.042,-0.175,-0.027,-1.068
250,-1.3,-3.5,0.9,-0.03,-0.025,1.041,-0.177,-0.027,-1.089
251,-1.2,-3.4,1.1,-0.031,-0.025,1.042,-0.178,-0.028,-1.084
252,-1.3,-3.4,1.0,-0.028,-0.027,1.041,-0.184,-0.03,-1.072
253,-1.2,-3.4,1.0,-0.029,-0.025,1.043,-0.18,-0.024,-1.075
254,-1.3,-3.4,1.0,-0.03,-0.025,1.042,-0.183,-0.018,-1.075
255,-1.2,-3.4,1.0,-0.029,-0.025,1.042,-0.181,-0.028,-1.077
256,-1.3,-3.4,1.0,-0.031,-0.025,1.041,-0.175,-0.022,-1.072
257,-1.3,-3.5,0.9,-0.028,-0.027,1.04,-0.186,-0.022,-1.08
258,-1.2,-3.3,1.0,-0.03,-0.024,1.041,-0.18,-0.03,-1.074
259,-1.3,-3.4,1.0,-0.03,-0.026,1.042,-0.181,-0.025,-1.071
260,-1.3,-3.4,1.0,-0.03,-0.026,1.041,-0.183,-0.022,-1.062
261,-1.2,-3.3,1.0,-0.027,-0.026,1.041,-0.175,-0.022,-1.077
262,-1.2,-3.4,1.0,-0.03,-0.026,1.043,-0.18,-0.021,-1.074
263,-1.2,-3.4,0.9,-0.03,-0.025,1.042,-0.174,-0.022,-1.081
264,-1.2,-3.3,0.9,-0.03,-0.026,1.041,-0.183,-0.021,-1.071
265,-1.3,-3.4,1.1,-0.029,-0.025,1.042,-0.175,-0.015,-1.08
266,-1.4,-3.4,1.1,-0.031,-0.025,1.042,-0.184,-0.028,-1.078
267,-1.2,-3.5,1.1,-0.03,-0.026,1.041,-0.178,-0.021,-1.075
268,-1.2,-3.4,0.9,-0.029,-0.026,1.04,-0.172,-0.027,-1.071
269,-1.2,-3.4,0.9,-0.031,-0.025,1.041,-0.172,-0.022,-1.084
270,-1.2,-3.4,1.0,-0.032,-0.025,1.042,-0.189,-0.027,-1.077
271,-1.3,-3.5,1.1,-0.028,-0.026,1.042,-0.184,-0.022,-1.066
272,-1.3,-3.4,1.0,-0.03,-0.026,1.041,-0.189,-0.027,-1.072
273,-1.2,-3.4,1.0,-0.032,-0.025,1.043,-0.186,-0.024,-1.072
274,-1.3,-3.4,0.9,-0.029,-0.026,1.043,-0.174,-0.022,-1.074
275,-1.2,-3.4,0.9,-0.028,-0.025,1.04,-0.184,-0.03,-1.069
276,-1.2,-3.4,1.0,-0.029,-0.026,1.041,-0.18,-0.022,-1.08
277,-1.3,-3.4,1.0,-0.031,-0.025,1.043,-0.184,-0.022,-1.068
278,-1.3,-3.4,1.0,-0.027,-0.026,1.041,-0.184,-0.025,-1.066
279,-1.2,-3.4,1.0,-0.029,-0.025,1.041,-0.175,-0.015,-1.066
280,-1.2,-3.4,1.0,-0.03,-0.026,1.042,-0.18,-0.019,-1.075
281,-1.3,-3.4,1.1,-0.031,-0.025,1.042,-0.183,-0.015,-1.069
282,-1.3,-3.4,1.0,-0.028,-0.026,1.043,-0.178,-0.025,-1.072
