,Gyroscope X (deg/s),Gyroscope Y (deg/s),Gyroscope Z (deg/s),Accelerometer X (g),Accelerometer Y (g),Accelerometer Z (g),Magnetometer X (G),Magnetometer Y (G),Magnetometer Z (G)
0,0.002,0.0,-0.009,-0.006,-0.04,0.998,0.331,0.03,-0.615
1,0.002,0.0,-0.009,-0.006,-0.04,0.998,0.327,0.022,-0.619
2,0.002,0.0,-0.009,-0.006,-0.04,0.998,0.327,0.022,-0.619
3,0.002,0.0,-0.009,-0.006,-0.04,0.998,0.327,0.022,-0.619
4,0.002,0.0,-0.009,-0.006,-0.04,0.998,0.327,0.022,-0.619
5,0.002,0.0,-0.009,-0.006,-0.04,0.998,0.327,0.022,-0.619
6,0.002,0.0,-0.009,-0.006,-0.04,0.998,0.327,0.022,-0.619
7,0.002,0.0,-0.009,-0.006,-0.04,0.998,0.327,0.022,-0.619
8,0.002,0.0,-0.009,-0.006,-0.04,0.998,0.327,0.022,-0.619
9,0.002,0.0,-0.009,-0.006,-0.04,0.998,0.327,0.022,-0.619
10,0.002,0.0,-0.009,-0.006,-0.04,0.998,0.327,0.022,-0.619
11,0.002,0.0,-0.009,-0.006,-0.04,0.998,0.327,0.022,-0.619
12,0.002,0.0,-0.009,-0.006,-0.04,0.998,0.327,0.022,-0.619
13,0.002,0.0,-0.009,-0.006,-0.04,0.998,0.327,0.022,-0.619
14,0.002,0.0,-0.009,-0.006,-0.04,0.998,0.327,0.022,-0.619
15,0.002,0.0,-0.009,-0.006,-0.04,0.998,0.327,0.022,-0.619
16,0.002,0.0,-0.009,-0.006,-0.04,0.998,0.327,0.022,-0.619
17,0.002,0.0,-0.009,-0.006,-0.04,0.998,0.327,0.022,-0.619
18,0.002,0.0,-0.009,-0.006,-0.04,0.998,0.327,0.022,-0.619
19,0.002,0.0,-0.009,-0.006,-0.04,0.998,0.327,0.022,-0.619
20,0.002,0.0,-0.009,-0.006,-0.04,0.998,0.327,0.022,-0.619
21,0.002,0.0,-0.009,-0.006,-0.04,0.998,0.327,0.022,-0.619
22,0.002,0.0,-0.009,-0.006,-0.04,0.998,0.327,0.022,-0.619
23,0.002,0.0,-0.009,-0.006,-0.04,0.998,0.327,0.022,-0.619
24,0.002,0.0,-0.009,-0.006,-0.04,0.998,0.327,0.022,-0.619
25,0.002,0.0,-0.009,-0.006,-0.04,0.998,0.327,0.022,-0.619
26,0.002,0.0,-0.009,-0.006,-0.04,0.998,0.327,0.022,-0.619
27,0.002,0.0,-0.009,-0.006,-0.04,0.998,0.327,0.022,-0.619
28,0.002,0.0,-0.009,-0.006,-0.04,0.998,0.327,0.022,-0.619
29,0.002,0.0,-0.009,-0.006,-0.04,0.998,0.327,0.022,-0.619
30,0.002,0.0,-0.009,-0.006,-0.04,0.998,0.327,0.022,-0.619
31,0.002,0.0,-0.009,-0.006,-0.04,0.998,0.327,0.022,-0.619
32,0.002,0.0,-0.009,-0.006,-0.04,0.998,0.327,0.022,-0.619
33,0.002,0.0,-0.009,-0.006,-0.04,0.998,0.327,0.022,-0.619
34,0.002,0.0,-0.009,-0.006,-0.04,0.998,0.327,0.022,-0.619
35,0.002,0.0,-0.009,-0.006,-0.04,0.998,0.327,0.022,-0.619
36,0.002,0.0,-0.009,-0.006,-0.04,0.998,0.327,0.022,-0.619
37,0.002,0.0,-0.009,-0.006,-0.04,0.998,0.327,0.022,-0.619
38,0.002,0.0,-0.009,-0.006,-0.04,0.998,0.327,0.022,-0.619
39,0.002,0.0,-0.009,-0.006,-0.04,0.998,0.327,0.022,-0.619
40,0.002,0.0,-0.009,-0.006,-0.04,0.998,0.327,0.022,-0.619
41,0.002,0.0,-0.009,-0.006,-0.04,0.998,0.327,0.022,-0.619
42,0.002,0.0,-0.009,-0.006,-0.04,0.998,0.327,0.022,-0.619
43,0.002,0.0,-0.009,-0.006,-0.04,0.998,0.327,0.022,-0.619
44,0.002,0.0,-0.009,-0.006,-0.04,0.998,0.327,0.022,-0.619
45,0.002,0.0,-0.009,-0.006,-0.04,0.998,0.327,0.022,-0.619
46,0.002,0.0,-0.009,-0.006,-0.04,0.998,0.327,0.022,-0.619
47,0.002,0.0,-0.009,-0.006,-0.04,0.998,0.327,0.022,-0.619
48,0.002,0.0,-0.009,-0.006,-0.04,0.998,0.327,0.022,-0.619
49,0.002,0.0,-0.009,-0.006,-0.04,0.998,0.327,0.022,-0.619
50,0.002,0.0,-0.009,-0.006,-0.04,0.998,0.327,0.022,-0.619
51,0.002,0.0,-0.009,-0.006,-0.04,0.998,0.327,0.022,-0.619
52,0.002,0.0,-0.009,-0.006,-0.04,0.998,0.327,0.022,-0.619
53,0.002,0.0,-0.009,-0.006,-0.04,0.998,0.327,0.022,-0.619
54,0.002,0.0,-0.009,-0.006,-0.04,0.998,0.327,0.022,-0.619
55,0.002,0.0,-0.009,-0.006,-0.04,0.998,0.327,0.022,-0.619
56,0.002,0.0,-0.009,-0.006,-0.04,0.998,0.327,0.022,-0.619
57,0.002,0.0,-0.009,-0.006,-0.04,0.998,0.327,0.022,-0.619
58,0.002,0.0,-0.009,-0.006,-0.04,0.998,0.327,0.022,-0.619
59,0.002,0.0,-0.009,-0.006,-0.04,0.998,0.327,0.022,-0.619
60,0.002,0.0,-0.009,-0.006,-0.04,0.998,0.327,0.022,-0.619
61,0.002,0.0,-0.009,-0.006,-0.04,0.998,0.327,0.022,-0.619
62,0.002,0.0,-0.009,-0.006,-0.04,0.998,0.327,0.022,-0.619
63,0.002,0.0,-0.009,-0.006,-0.04,0.998,0.327,0.022,-0.619
64,0.002,0.0,-0.009,-0.006,-0.04,0.998,0.327,0.022,-0.619
65,0.002,0.0,-0.009,-0.006,-0.04,0.998,0.327,0.022,-0.619
66,0.002,0.0,-0.009,-0.006,-0.04,0.998,0.327,0.022,-0.619
67,0.002,0.0,-0.009,-0.006,-0.04,0.998,0.327,0.022,-0.619
68,0.002,0.0,-0.009,-0.006,-0.04,0.998,0.327,0.022,-0.619
69,0.002,0.0,-0.009,-0.006,-0.04,0.998,0.327,0.022,-0.619
70,0.002,0.0,-0.009,-0.006,-0.04,0.998,0.327,0.022,-0.619
71,0.002,0.0,-0.009,-0.006,-0.04,0.998,0.327,0.022,-0.619
72,0.002,0.0,-0.009,-0.006,-0.04,0.998,0.327,0.022,-0.619
73,0.002,0.0,-0.009,-0.006,-0.04,0.998,0.327,0.022,-0.619
74,0.002,0.0,-0.009,-0.006,-0.04,0.998,0.327,0.022,-0.619
75,0.002,0.0,-0.009,-0.006,-0.04,0.998,0.327,0.022,-0.619
76,0.002,0.0,-0.009,-0.006,-0.04,0.998,0.327,0.022,-0.619
77,0.002,0.0,-0.009,-0.006,-0.04,0.998,0.327,0.022,-0.619
78,0.002,0.0,-0.009,-0.006,-0.04,0.998,0.327,0.022,-0.619
79,0.002,0.0,-0.009,-0.006,-0.04,0.998,0.327,0.022,-0.619
80,0.002,0.0,-0.009,-0.006,-0.04,0.998,0.327,0.022,-0.619
81,0.002,0.0,-0.009,-0.006,-0.04,0.998,0.327,0.022,-0.619
82,0.002,0.0,-0.009,-0.006,-0.04,0.998,0.327,0.022,-0.619
83,0.002,0.0,-0.009,-0.006,-0.04,0.998,0.327,0.022,-0.619
84,0.002,0.0,-0.009,-0.006,-0.04,0.998,0.327,0.022,-0.619
85,0.002,0.0,-0.009,-0.006,-0.04,0.998,0.327,0.022,-0.619
86,0.002,0.0,-0.009,-0.006,-0.04,0.998,0.327,0.022,-0.619
87,0.002,0.0,-0.009,-0.006,-0.04,0.998,0.327,0.022,-0.619
88,0.002,0.0,-0.009,-0.006,-0.04,0.998,0.327,0.022,-0.619
89,0.002,0.0,-0.009,-0.006,-0.04,0.998,0.327,0.022,-0.619
90,0.002,0.0,-0.009,-0.006,-0.04,0.998,0.327,0.022,-0.619
91,0.002,0.0,-0.009,-0.006,-0.04,0.998,0.327,0.022,-0.619
92,0.002,0.0,-0.009,-0.006,-0.04,0.998,0.327,0.022,-0.619
93,0.002,0.0,-0.009,-0.006,-0.04,0.998,0.327,0.022,-0.619
94,0.002,0.0,-0.009,-0.006,-0.04,0.998,0.327,0.022,-0.619
95,0.002,0.0,-0.009,-0.006,-0.04,0.998,0.327,0.022,-0.619
96,0.002,0.0,-0.009,-0.006,-0.04,0.998,0.327,0.022,-0.619
97,0.002,0.0,-0.009,-0.006,-0.04,0.998,0.327,0.022,-0.619
98,0.002,0.0,-0.009,-0.006,-0.04,0.998,0.327,0.022,-0.619
99,0.002,0.0,-0.009,-0.006,-0.04,0.998,0.327,0.022,-0.619
100,0.002,0.0,-0.009,-0.006,-0.04,0.998,0.327,0.022,-0.619
101,0.002,0.0,-0.009,-0.006,-0.04,0.998,0.327,0.022,-0.619
102,0.002,0.0,-0.009,-0.006,-0.04,0.998,0.327,0.022,-0.619
103,0.002,0.0,-0.009,-0.006,-0.04,0.998,0.327,0.022,-0.619
104,0.002,0.0,-0.009,-0.006,-0.04,0.998,0.327,0.022,-0.619
105,0.002,0.0,-0.009,-0.006,-0.04,0.998,0.327,0.022,-0.619
106,0.002,0.0,-0.009,-0.006,-0.04,0.998,0.327,0.022,-0.619
107,0.002,0.0,-0.009,-0.006,-0.04,0.998,0.327,0.022,-0.619
108,0.002,0.0,-0.009,-0.006,-0.04,0.998,0.327,0.022,-0.619
109,0.002,0.0,-0.009,-0.006,-0.04,0.998,0.327,0.022,-0.619
110,0.002,0.0,-0.009,-0.006,-0.04,0.998,0.327,0.022,-0.619
111,0.002,0.0,-0.009,-0.006,-0.04,0.998,0.327,0.022,-0.619
112,0.002,0.0,-0.009,-0.006,-0.04,0.998,0.327,0.022,-0.619
113,0.002,0.0,-0.009,-0.006,-0.04,0.998,0.327,0.022,-0.619
114,0.002,0.0,-0.009,-0.006,-0.04,0.998,0.327,0.022,-0.619
115,0.002,0.0,-0.009,-0.006,-0.04,0.998,0.327,0.022,-0.619
116,0.002,0.0,-0.009,-0.006,-0.04,0.998,0.327,0.022,-0.619
117,0.002,0.0,-0.009,-0.006,-0.04,0.998,0.327,0.022,-0.619
118,0.002,0.0,-0.009,-0.006,-0.04,0.998,0.327,0.022,-0.619
119,0.0,-0.001,-0.009,-0.005,-0.042,0.998,0.327,0.022,-0.619
120,0.001,-0.001,-0.01,-0.005,-0.04,0.998,0.304,0.034,-0.597
121,0.0,-0.002,-0.01,-0.005,-0.04,0.998,0.294,0.037,-0.604
122,0.002,-0.002,-0.01,-0.005,-0.041,0.997,0.306,0.025,-0.6
123,0.001,-0.001,-0.009,-0.006,-0.04,0.997,0.3,0.031,-0.604
124,0.001,0.0,-0.01,-0.005,-0.038,1.001,0.307,0.033,-0.6
125,0.0,0.0,-0.01,-0.005,-0.038,0.999,0.312,0.036,-0.598
126,0.001,0.0,-0.009,-0.005,-0.038,0.997,0.312,0.036,-0.598
127,0.001,0.0,-0.01,-0.004,-0.039,0.998,0.304,0.022,-0.612
128,0.0,-0.001,-0.009,-0.009,-0.042,0.999,0.319,0.024,-0.598
129,0.001,-0.002,-0.009,-0.007,-0.041,0.998,0.328,0.036,-0.615
130,0.0,-0.001,-0.009,-0.007,-0.041,0.998,0.331,0.046,-0.619
131,0.0,-0.001,-0.009,-0.005,-0.04,0.998,0.321,0.019,-0.597
132,0.0,-0.001,-0.01,-0.004,-0.04,0.999,0.321,0.019,-0.597
133,0.0,-0.001,-0.009,-0.006,-0.04,1.0,0.318,0.034,-0.582
134,0.0,-0.002,-0.009,-0.007,-0.041,0.999,0.328,0.022,-0.6
135,0.0,0.0,-0.009,-0.006,-0.043,0.999,0.321,0.054,-0.595
136,0.0,-0.006,-0.008,-0.006,-0.041,1.0,0.309,0.03,-0.579
137,0.0,-0.002,-0.009,-0.006,-0.039,0.999,0.318,0.04,-0.594
138,0.002,0.0,-0.009,-0.004,-0.041,1.0,0.318,0.016,-0.585
139,0.001,-0.001,-0.009,-0.005,-0.044,0.999,0.301,0.022,-0.585
140,0.001,0.0,-0.009,-0.008,-0.042,0.997,0.301,0.022,-0.585
141,0.001,0.0,-0.009,-0.009,-0.039,1.0,0.319,0.034,-0.594
142,0.0,0.0,-0.009,-0.006,-0.04,0.999,0.312,0.027,-0.582
143,0.0,0.001,-0.009,-0.003,-0.039,0.998,0.312,0.027,-0.582
144,0.001,0.002,-0.01,-0.004,-0.038,0.999,0.325,0.033,-0.604
145,0.001,0.0,-0.009,-0.004,-0.038,0.999,0.322,0.033,-0.603
146,0.001,-0.002,-0.009,-0.007,-0.04,0.999,0.31,0.036,-0.598
147,0.002,-0.001,-0.009,-0.007,-0.041,0.999,0.31,0.036,-0.598
148,0.001,0.0,-0.009,-0.007,-0.04,1.0,0.313,0.024,-0.609
149,0.002,0.005,-0.011,-0.008,-0.041,0.998,0.31,0.024,-0.6
150,0.0,0.001,-0.01,-0.006,-0.041,0.998,0.298,0.039,-0.601
151,0.0,0.001,-0.01,-0.006,-0.042,0.999,0.321,0.033,-0.604
152,0.0,0.0,-0.009,-0.006,-0.041,0.998,0.309,0.045,-0.609
153,0.0,-0.001,-0.01,-0.005,-0.037,0.997,0.312,0.036,-0.592
154,0.003,0.0,-0.009,-0.005,-0.038,0.997,0.312,0.036,-0.592
155,0.001,0.0,-0.009,-0.005,-0.04,0.998,0.328,0.031,-0.618
156,0.002,0.002,-0.01,-0.005,-0.042,0.998,0.312,0.049,-0.589
157,0.001,0.0,-0.01,-0.005,-0.042,0.996,0.313,0.022,-0.595
158,0.002,0.0,-0.009,-0.006,-0.04,0.998,0.31,0.052,-0.615
159,0.001,-0.001,-0.009,-0.007,-0.041,1.0,0.319,0.03,-0.591
160,0.0,-0.002,-0.009,-0.005,-0.041,0.999,0.307,0.034,-0.595
161,0.0,0.0,-0.009,-0.004,-0.039,0.999,0.307,0.034,-0.595
162,0.0,-0.001,-0.009,-0.004,-0.039,0.999,0.315,0.033,-0.597
163,0.0,-0.005,-0.009,-0.006,-0.041,0.998,0.303,0.022,-0.592
164,0.0,0.0,-0.009,-0.004,-0.04,1.0,0.303,0.022,-0.592
165,0.0,0.0,-0.009,-0.002,-0.039,0.999,0.309,0.036,-0.589
166,0.001,0.0,-0.009,-0.002,-0.039,0.999,0.334,0.048,-0.595
167,0.0,-0.002,-0.009,-0.005,-0.039,0.998,0.328,0.042,-0.613
168,0.0,-0.002,-0.009,-0.005,-0.039,0.999,0.328,0.042,-0.613
169,0.001,-0.002,-0.009,-0.004,-0.039,1.0,0.316,0.031,-0.6
170,0.002,-0.001,-0.01,-0.007,-0.038,0.999,0.31,0.048,-0.604
171,0.002,-0.001,-0.01,-0.007,-0.039,1.0,0.319,0.024,-0.58
172,0.001,0.0,-0.009,-0.006,-0.04,1.0,0.328,0.025,-0.607
173,0.002,0.0,-0.009,-0.005,-0.04,0.998,0.307,0.028,-0.619
174,0.001,-0.001,-0.009,-0.007,-0.041,0.998,0.331,0.034,-0.604
175,0.0,-0.001,-0.009,-0.007,-0.041,0.999,0.331,0.034,-0.604
176,0.0,0.0,-0.009,-0.006,-0.038,1.0,0.315,0.015,-0.6
177,0.004,0.006,-0.011,-0.006,-0.039,0.998,0.318,0.033,-0.592
178,0.003,0.002,-0.01,-0.004,-0.039,0.998,0.318,0.033,-0.592
179,0.002,0.0,-0.01,-0.003,-0.038,0.999,0.322,0.025,-0.612
180,0.0,0.0,-0.009,-0.006,-0.04,0.999,0.324,0.022,-0.6
181,0.0,-0.001,-0.009,-0.006,-0.041,0.998,0.325,0.024,-0.609
182,0.001,-0.001,-0.009,-0.005,-0.04,0.998,0.325,0.024,-0.609
183,0.001,0.0,-0.01,-0.004,-0.038,0.999,0.328,0.019,-0.607
184,0.0,0.003,-0.01,-0.006,-0.038,0.998,0.333,0.046,-0.607
185,0.0,-0.002,-0.009,-0.008,-0.039,0.996,0.307,0.033,-0.595
186,0.001,-0.002,-0.009,-0.008,-0.039,0.996,0.328,0.028,-0.613
187,0.002,0.0,-0.009,-0.006,-0.038,0.998,0.318,0.025,-0.598
188,0.002,0.0,-0.01,-0.005,-0.039,0.999,0.313,0.024,-0.61
189,0.002,0.0,-0.01,-0.004,-0.039,0.998,0.313,0.024,-0.61
190,0.001,-0.002,-0.009,-0.003,-0.038,0.998,0.334,0.028,-0.609
191,0.001,-0.001,-0.009,-0.003,-0.039,0.998,0.298,0.034,-0.597
192,0.0,-0.002,-0.009,-0.003,-0.04,0.999,0.31,0.036,-0.616
193,0.0,-0.002,-0.009,-0.004,-0.038,0.999,0.294,0.039,-0.594
194,0.0,-0.002,-0.009,-0.006,-0.038,1.0,0.319,0.039,-0.616
195,0.002,0.0,-0.009,-0.005,-0.04,1.001,0.31,0.042,-0.616
196,0.0,-0.002,-0.009,-0.006,-0.04,1.0,0.31,0.042,-0.616
197,0.0,-0.002,-0.009,-0.006,-0.04,1.0,0.321,0.04,-0.591
198,0.0,-0.005,-0.009,-0.006,-0.041,0.998,0.309,0.036,-0.591
199,0.0,-0.004,-0.009,-0.004,-0.042,0.998,0.309,0.036,-0.591
200,0.002,0.0,-0.009,-0.003,-0.041,0.998,0.291,0.048,-0.618
201,0.001,0.0,-0.009,-0.006,-0.038,0.997,0.325,0.027,-0.6
202,0.0,0.0,-0.009,-0.007,-0.037,0.998,0.301,0.036,-0.592
203,0.0,0.0,-0.009,-0.006,-0.038,1.0,0.301,0.036,-0.592
204,0.001,-0.002,-0.009,-0.006,-0.04,0.999,0.321,0.031,-0.591
205,0.002,0.006,-0.011,-0.006,-0.041,0.998,0.319,0.049,-0.598
206,0.0,-0.004,-0.009,-0.007,-0.041,0.998,0.316,0.024,-0.603
207,0.0,-0.002,-0.009,-0.007,-0.041,0.998,0.313,0.03,-0.612
208,0.002,0.0,-0.009,-0.007,-0.042,0.998,0.318,0.025,-0.616
209,0.002,0.0,-0.009,-0.007,-0.04,0.998,0.327,0.03,-0.616
210,0.002,0.0,-0.009,-0.007,-0.04,1.0,0.327,0.03,-0.616
211,0.0,0.0,-0.009,-0.006,-0.041,1.0,0.31,0.027,-0.613
212,0.0,-0.001,-0.009,-0.006,-0.04,1.0,0.301,0.031,-0.58
213,0.0,-0.002,-0.009,-0.006,-0.04,1.0,0.301,0.031,-0.58
214,0.0,-0.002,-0.009,-0.005,-0.042,1.0,0.31,0.04,-0.606
215,0.0,-0.002,-0.009,-0.005,-0.042,1.001,0.312,0.025,-0.604
216,0.002,0.0,-0.009,-0.004,-0.038,1.0,0.298,0.025,-0.606
217,0.002,0.0,-0.009,-0.005,-0.039,0.998,0.319,0.007,-0.606
218,0.0,0.0,-0.009,-0.006,-0.039,0.997,0.319,0.007,-0.606
219,0.004,0.0,-0.011,-0.005,-0.039,0.998,0.325,0.018,-0.607
220,0.003,0.002,-0.011,-0.006,-0.041,1.0,0.315,0.039,-0.598
221,0.001,0.0,-0.009,-0.005,-0.04,0.998,0.322,0.028,-0.609
222,0.001,-0.001,-0.009,-0.005,-0.04,0.998,0.316,0.034,-0.606
223,0.002,-0.001,-0.009,-0.006,-0.042,0.999,0.316,0.028,-0.594
224,0.001,-0.002,-0.009,-0.007,-0.041,0.998,0.318,0.018,-0.607
225,0.001,-0.001,-0.009,-0.008,-0.04,0.998,0.318,0.018,-0.607
226,0.0,-0.003,-0.009,-0.008,-0.04,0.998,0.306,0.03,-0.577
227,0.001,-0.001,-0.009,-0.007,-0.04,0.999,0.306,0.03,-0.577
228,0.001,-0.001,-0.009,-0.008,-0.04,1.0,0.319,0.018,-0.616
229,0.0,-0.002,-0.009,-0.009,-0.04,1.002,0.319,0.042,-0.621
230,0.0,-0.002,-0.009,-0.006,-0.039,1.001,0.324,0.048,-0.606
231,0.0,-0.002,-0.009,-0.004,-0.039,1.0,0.312,0.048,-0.61
232,0.002,-0.002,-0.009,-0.004,-0.041,1.0,0.312,0.048,-0.61
233,0.001,0.004,-0.01,-0.006,-0.042,0.999,0.304,0.033,-0.589
234,0.0,0.0,-0.009,-0.008,-0.039,1.001,0.304,0.033,-0.589
235,0.0,0.0,-0.009,-0.008,-0.039,1.0,0.315,0.034,-0.613
236,0.001,0.0,-0.009,-0.007,-0.041,0.998,0.33,0.043,-0.615
237,0.002,0.0,-0.009,-0.006,-0.041,0.997,0.33,0.037,-0.603
238,0.002,0.0,-0.01,-0.006,-0.038,0.999,0.33,0.037,-0.603
239,0.001,0.0,-0.01,-0.008,-0.038,1.001,0.33,0.021,-0.586
240,0.0,0.002,-0.01,-0.011,-0.042,1.001,0.337,0.037,-0.606
241,0.0,0.001,-0.01,-0.007,-0.041,0.999,0.322,0.03,-0.6
242,0.002,0.001,-0.01,-0.006,-0.039,0.998,0.316,0.031,-0.61
243,0.001,0.0,-0.009,-0.009,-0.04,0.998,0.325,0.054,-0.612
244,0.001,-0.001,-0.009,-0.007,-0.041,0.998,0.319,0.051,-0.615
245,0.001,-0.001,-0.009,-0.007,-0.041,0.998,0.319,0.051,-0.615
246,0.001,-0.002,-0.009,-0.005,-0.042,0.999,0.318,0.022,-0.613
247,0.001,0.002,-0.009,-0.007,-0.041,1.0,0.315,0.036,-0.6
248,0.001,0.0,-0.009,-0.006,-0.04,1.0,0.315,0.036,-0.6
249,0.002,-0.001,-0.01,-0.005,-0.04,0.999,0.307,0.015,-0.618
250,0.002,-0.001,-0.01,-0.005,-0.04,1.0,0.346,0.034,-0.603
251,0.002,0.0,-0.01,-0.006,-0.041,1.0,0.328,0.042,-0.594
252,0.002,-0.001,-0.009,-0.007,-0.04,0.999,0.328,0.042,-0.594
253,0.001,-0.002,-0.009,-0.006,-0.041,1.0,0.316,0.042,-0.618
254,0.0,-0.002,-0.009,-0.006,-0.041,0.999,0.313,0.048,-0.595
255,0.001,-0.002,-0.009,-0.006,-0.039,0.998,0.327,0.03,-0.604
256,0.0,-0.002,-0.009,-0.005,-0.039,0.997,0.322,0.04,-0.619
257,0.001,-0.001,-0.009,-0.005,-0.04,0.998,0.315,0.043,-0.613
258,0.001,0.0,-0.009,-0.005,-0.041,1.0,0.313,0.016,-0.615
259,0.002,0.0,-0.009,-0.005,-0.041,1.0,0.313,0.016,-0.615
260,0.002,0.0,-0.009,-0.005,-0.04,1.0,0.336,0.022,-0.615
261,0.002,0.007,-0.011,-0.007,-0.041,0.998,0.33,0.028,-0.591
262,0.0,0.003,-0.01,-0.007,-0.042,0.997,0.33,0.028,-0.591
263,0.0,-0.001,-0.009,-0.006,-0.042,0.996,0.316,0.039,-0.61
264,0.002,0.0,-0.009,-0.006,-0.042,0.996,0.333,0.024,-0.613
265,0.002,0.0,-0.009,-0.006,-0.042,0.998,0.336,0.031,-0.616
266,0.001,-0.002,-0.009,-0.004,-0.042,1.001,0.336,0.031,-0.616
267,0.0,-0.001,-0.008,-0.004,-0.04,0.999,0.316,0.015,-0.616
268,0.0,-0.001,-0.009,-0.007,-0.038,0.997,0.316,0.024,-0.618
269,0.0,-0.002,-0.009,-0.007,-0.037,0.998,0.292,0.034,-0.58
270,0.0,-0.002,-0.009,-0.004,-0.04,0.998,0.315,0.028,-0.604
271,0.001,-0.001,-0.009,-0.004,-0.041,0.998,0.327,0.022,-0.609
272,0.001,-0.001,-0.009,-0.007,-0.04,0.999,0.318,0.025,-0.627
273,0.002,0.0,-0.009,-0.008,-0.041,0.998,0.318,0.025,-0.627
274,0.002,0.0,-0.01,-0.007,-0.042,0.998,0.312,0.028,-0.6
275,0.002,0.0,-0.009,-0.007,-0.042,0.996,0.333,0.007,-0.627
276,0.001,-0.001,-0.01,-0.007,-0.043,0.996,0.321,0.003,-0.624
277,0.0,-0.002,-0.009,-0.007,-0.043,1.0,0.307,0.015,-0.615
278,0.001,-0.003,-0.009,-0.005,-0.041,1.002,0.315,0.04,-0.604
279,0.002,0.0,-0.009,-0.003,-0.04,1.0,0.318,0.037,-0.603
280,0.002,0.002,-0.009,-0.007,-0.039,0.998,0.318,0.037,-0.603
281,0.001,-0.003,-0.009,-0.008,-0.04,0.998,0.342,0.045,-0.603
282,0.002,0.002,-0.011,-0.004,-0.041,0.998,0.303,0.022,-0.618
283,0.001,0.002,-0.009,-0.004,-0.042,0.998,0.303,0.022,-0.618
284,0.002,0.0,-0.009,-0.006,-0.042,1.0,0.324,0.025,-0.604
285,0.001,-0.002,-0.009,-0.006,-0.042,1.0,0.325,0.027,-0.615
286,0.0,0.0,-0.009,-0.006,-0.04,0.997,0.313,0.022,-0.594
287,0.001,0.0,-0.01,-0.006,-0.04,0.994,0.322,0.025,-0.595
288,0.001,0.0,-0.01,-0.006,-0.041,0.999,0.322,0.025,-0.595
289,0.001,0.0,-0.009,-0.005,-0.041,1.001,0.31,0.028,-0.615
290,0.001,0.0,-0.009,-0.004,-0.04,0.997,0.327,0.033,-0.612
291,0.001,0.0,-0.01,-0.007,-0.039,0.997,0.31,0.04,-0.613
292,0.0,-0.003,-0.009,-0.007,-0.041,0.998,0.315,0.034,-0.615
293,0.0,-0.002,-0.009,-0.005,-0.042,0.999,0.321,0.037,-0.601
294,0.0,0.0,-0.009,-0.005,-0.042,1.0,0.3,0.031,-0.613
295,0.001,0.0,-0.009,-0.006,-0.042,1.0,0.3,0.031,-0.613
296,0.001,-0.007,-0.009,-0.007,-0.042,0.997,0.325,0.028,-0.616
297,0.001,0.0,-0.009,-0.006,-0.041,0.997,0.325,0.028,-0.616
298,0.002,0.0,-0.009,-0.007,-0.04,0.997,0.316,0.022,-0.604
299,0.001,-0.002,-0.009,-0.006,-0.04,0.997,0.327,0.036,-0.631
300,0.0,0.0,-0.009,-0.005,-0.039,0.999,0.337,0.037,-0.625
301,0.0,0.0,-0.009,-0.005,-0.039,0.998,0.333,0.013,-0.622
302,0.002,-0.001,-0.009,-0.005,-0.042,0.997,0.31,0.01,-0.613
303,0.0,0.001,-0.009,-0.006,-0.042,0.997,0.31,0.01,-0.613
304,0.001,0.005,-0.01,-0.006,-0.041,0.998,0.322,0.015,-0.606
305,0.002,-0.002,-0.009,-0.006,-0.041,0.998,0.315,0.031,-0.615
306,0.001,-0.003,-0.009,-0.008,-0.039,1.001,0.298,0.031,-0.597
307,0.001,0.0,-0.01,-0.007,-0.038,1.0,0.31,0.022,-0.604
308,0.0,-0.004,-0.007,-0.005,-0.041,0.999,0.322,0.021,-0.609
309,0.0,-0.004,-0.007,-0.007,-0.041,1.01,0.33,0.021,-0.607
310,0.001,-0.006,-0.011,-0.005,-0.037,0.998,0.33,0.021,-0.607
311,0.004,-0.002,-0.007,-0.007,-0.036,0.975,0.306,0.031,-0.594
312,-0.001,-0.003,-0.01,-0.01,-0.044,0.979,0.318,0.007,-0.625
313,-0.002,-0.004,-0.007,-0.01,-0.042,0.99,0.322,0.018,-0.621
314,0.003,0.0,-0.011,-0.007,-0.039,0.997,0.319,0.018,-0.616
315,0.002,0.0,-0.009,-0.007,-0.042,0.994,0.324,0.019,-0.618
316,-0.001,-0.001,-0.009,-0.007,-0.043,0.991,0.334,0.024,-0.621
317,0.0,0.0,-0.008,-0.004,-0.041,0.991,0.334,0.024,-0.621
318,0.001,0.0,-0.009,-0.006,-0.039,0.996,0.325,0.012,-0.618
319,0.001,-0.002,-0.009,-0.008,-0.042,0.999,0.306,0.025,-0.624
320,0.001,0.0,-0.009,-0.007,-0.041,0.997,0.301,0.019,-0.613
321,0.002,0.002,-0.009,-0.006,-0.038,0.997,0.322,0.015,-0.603
322,0.002,-0.001,-0.008,-0.005,-0.04,1.0,0.319,0.028,-0.609
323,0.0,-0.004,-0.009,-0.005,-0.041,0.999,0.319,0.028,-0.609
324,0.0,-0.002,-0.009,-0.005,-0.041,0.999,0.3,0.046,-0.598
325,0.0,0.0,-0.01,-0.007,-0.04,0.998,0.318,0.033,-0.598
326,0.001,-0.001,-0.009,-0.007,-0.04,0.999,0.309,0.013,-0.603
327,0.001,0.0,-0.01,-0.006,-0.04,0.998,0.319,0.028,-0.613
328,0.0,0.0,-0.009,-0.006,-0.039,0.999,0.309,0.016,-0.621
329,0.0,0.0,-0.009,-0.007,-0.039,1.001,0.306,0.034,-0.613
330,0.0,-0.002,-0.01,-0.006,-0.042,1.001,0.312,0.016,-0.627
331,0.001,-0.004,-0.009,-0.005,-0.042,0.999,0.312,0.016,-0.627
332,0.001,0.0,-0.009,-0.005,-0.039,0.999,0.301,0.021,-0.598
333,0.001,-0.002,-0.009,-0.006,-0.04,0.999,0.322,0.049,-0.597
334,0.001,-0.001,-0.009,-0.006,-0.042,0.999,0.31,0.028,-0.621
335,0.001,-0.001,-0.009,-0.006,-0.042,0.999,0.319,0.043,-0.624
336,0.0,0.0,-0.009,-0.004,-0.042,0.998,0.33,0.024,-0.622
337,0.0,-0.001,-0.009,-0.003,-0.042,0.998,0.31,0.031,-0.612
338,0.0,0.005,-0.01,-0.006,-0.04,0.999,0.31,0.031,-0.612
339,0.001,0.003,-0.01,-0.004,-0.041,0.999,0.31,0.03,-0.612
340,0.0,0.0,-0.009,-0.003,-0.04,0.999,0.316,0.037,-0.618
341,0.001,-0.004,-0.009,-0.006,-0.04,1.003,0.304,0.025,-0.618
342,0.0,-0.005,-0.009,-0.008,-0.042,0.999,0.315,0.018,-0.621
343,0.002,-0.002,-0.009,-0.008,-0.042,0.999,0.324,0.024,-0.609
344,0.002,-0.001,-0.01,-0.01,-0.042,0.993,0.319,0.03,-0.606
345,-0.002,-0.01,-0.008,-0.008,-0.042,0.994,0.319,0.03,-0.606
346,0.0,0.0,-0.011,-0.007,-0.04,0.994,0.307,0.01,-0.598
347,0.004,0.003,-0.011,-0.004,-0.04,1.0,0.31,0.031,-0.606
348,0.002,-0.002,-0.009,-0.003,-0.038,1.0,0.3,0.024,-0.621
349,0.002,-0.002,-0.009,-0.004,-0.039,1.002,0.328,0.021,-0.604
350,0.0,-0.004,-0.009,-0.005,-0.041,1.0,0.313,0.028,-0.612
351,0.002,0.001,-0.009,-0.003,-0.04,0.989,0.313,0.028,-0.612
352,0.004,-0.003,-0.008,-0.005,-0.04,0.991,0.31,0.027,-0.604
353,-0.002,0.006,-0.009,-0.004,-0.041,0.987,0.31,0.027,-0.604
354,0.0,0.009,-0.009,-0.006,-0.04,0.991,0.342,0.034,-0.619
355,0.002,-0.004,-0.011,-0.009,-0.037,1.007,0.315,0.018,-0.628
356,0.002,-0.007,-0.007,-0.002,-0.039,1.005,0.3,0.022,-0.616
357,0.002,0.011,-0.011,-0.001,-0.041,0.993,0.312,0.034,-0.595
358,0.0,0.009,-0.009,-0.011,-0.039,0.996,0.312,0.034,-0.595
359,0.002,-0.009,-0.009,-0.013,-0.038,1.007,0.315,0.025,-0.604
360,0.002,-0.003,-0.009,-0.001,-0.039,0.997,0.312,0.021,-0.618
361,0.003,0.011,-0.011,-0.003,-0.041,0.994,0.34,0.022,-0.612
362,0.0,-0.002,-0.009,-0.011,-0.043,1.003,0.324,0.019,-0.615
363,-0.001,-0.008,-0.009,-0.011,-0.043,1.003,0.334,0.025,-0.633
364,0.002,0.002,-0.01,-0.007,-0.041,1.0,0.324,0.033,-0.627
365,0.002,0.001,-0.009,-0.004,-0.038,0.994,0.324,0.033,-0.627
366,0.0,-0.005,-0.009,-0.009,-0.038,1.001,0.294,0.031,-0.583
367,0.0,0.001,-0.009,-0.009,-0.038,1.003,0.294,0.031,-0.583
368,0.002,0.001,-0.009,-0.004,-0.035,0.997,0.322,0.022,-0.607
369,0.002,0.001,-0.009,-0.006,-0.037,1.0,0.319,0.004,-0.609
370,0.0,-0.004,-0.008,-0.008,-0.04,0.997,0.324,0.021,-0.625
371,-0.001,0.0,-0.009,-0.003,-0.039,0.99,0.31,0.018,-0.61
372,0.0,0.002,-0.009,-0.005,-0.038,0.995,0.319,0.025,-0.613
373,0.0,-0.007,-0.009,-0.009,-0.039,1.004,0.319,0.025,-0.613
374,0.002,-0.006,-0.009,-0.005,-0.039,1.0,0.318,0.021,-0.609
375,0.002,0.003,-0.009,-0.003,-0.04,0.997,0.307,0.016,-0.615
376,0.0,0.0,-0.009,-0.007,-0.042,1.0,0.312,0.015,-0.606
377,0.0,-0.004,-0.008,-0.005,-0.041,1.002,0.33,0.009,-0.616
378,0.001,0.0,-0.009,-0.005,-0.04,0.998,0.301,0.027,-0.627
379,0.0,0.0,-0.009,-0.006,-0.042,0.998,0.322,0.036,-0.615
380,0.002,0.011,-0.011,-0.007,-0.042,1.0,0.322,0.036,-0.615
381,0.001,0.001,-0.009,-0.005,-0.04,0.999,0.3,0.025,-0.597
382,0.0,0.0,-0.01,-0.004,-0.04,0.999,0.316,0.01,-0.621
383,0.001,0.0,-0.009,-0.006,-0.042,1.0,0.33,0.036,-0.607
384,0.0,-0.001,-0.009,-0.006,-0.042,1.0,0.328,0.04,-0.615
385,0.0,0.0,-0.008,-0.007,-0.04,0.999,0.303,0.007,-0.616
386,0.001,-0.001,-0.009,-0.007,-0.039,0.998,0.303,0.027,-0.61
387,0.001,-0.001,-0.009,-0.008,-0.039,0.999,0.303,0.027,-0.61
388,0.002,0.0,-0.01,-0.008,-0.04,0.999,0.315,0.027,-0.595
389,0.002,0.0,-0.01,-0.007,-0.042,0.997,0.319,0.015,-0.613
390,0.001,-0.002,-0.009,-0.007,-0.041,0.998,0.31,0.024,-0.619
391,0.001,0.0,-0.009,-0.007,-0.043,0.998,0.316,0.018,-0.618
392,0.001,0.0,-0.009,-0.005,-0.042,0.998,0.321,0.022,-0.606
393,0.001,0.0,-0.009,-0.005,-0.039,1.0,0.309,0.012,-0.592
394,0.0,0.001,-0.01,-0.005,-0.039,0.999,0.309,0.012,-0.592
395,0.0,-0.001,-0.009,-0.005,-0.039,0.996,0.321,0.012,-0.622
396,0.0,-0.001,-0.009,-0.006,-0.04,0.997,0.313,0.012,-0.607
397,0.0,-0.003,-0.009,-0.006,-0.04,1.0,0.313,0.033,-0.616
398,0.001,-0.002,-0.009,-0.004,-0.04,0.999,0.322,0.039,-0.634
399,0.002,0.0,-0.009,-0.005,-0.04,0.997,0.309,0.031,-0.613
400,0.002,0.0,-0.009,-0.007,-0.042,0.998,0.315,0.046,-0.61
401,0.0,0.0,-0.009,-0.007,-0.043,0.998,0.315,0.046,-0.61
402,0.002,0.0,-0.009,-0.006,-0.041,0.996,0.319,0.033,-0.6
403,0.002,0.0,-0.009,-0.007,-0.04,0.998,0.303,0.028,-0.594
404,0.001,-0.001,-0.009,-0.007,-0.04,0.998,0.328,0.034,-0.603
405,0.001,-0.001,-0.009,-0.005,-0.042,1.0,0.315,0.024,-0.607
406,0.002,0.002,-0.009,-0.005,-0.041,0.998,0.316,0.024,-0.613
407,0.002,0.0,-0.01,-0.006,-0.04,0.998,0.316,0.021,-0.616
408,0.002,0.0,-0.01,-0.006,-0.041,0.999,0.316,0.021,-0.616
409,0.001,-0.001,-0.009,-0.005,-0.041,0.996,0.316,0.021,-0.607
410,0.001,0.001,-0.009,-0.006,-0.04,0.997,0.325,0.037,-0.607
411,0.001,0.0,-0.009,-0.008,-0.038,0.999,0.312,0.034,-0.625
412,0.001,-0.001,-0.01,-0.007,-0.038,0.998,0.313,0.015,-0.619
413,0.002,0.0,-0.009,-0.007,-0.04,0.998,0.307,0.019,-0.622
414,0.001,0.0,-0.009,-0.006,-0.042,0.999,0.31,0.031,-0.61
415,0.0,-0.004,-0.009,-0.005,-0.039,0.999,0.31,0.031,-0.61
416,0.0,-0.004,-0.009,-0.005,-0.038,0.998,0.288,0.025,-0.609
417,0.001,-0.002,-0.009,-0.006,-0.04,0.998,0.313,0.004,-0.621
418,0.002,0.0,-0.009,-0.005,-0.041,0.999,0.315,0.03,-0.609
419,0.002,0.001,-0.009,-0.004,-0.042,0.998,0.321,0.019,-0.597
420,0.001,0.0,-0.009,-0.005,-0.04,0.998,0.327,0.034,-0.622
421,0.0,0.0,-0.01,-0.005,-0.039,0.999,0.327,0.034,-0.622
422,0.005,0.007,-0.011,-0.005,-0.038,0.999,0.319,0.039,-0.592
423,0.002,0.0,-0.009,-0.006,-0.039,1.0,0.319,0.039,-0.592
424,0.001,-0.002,-0.009,-0.006,-0.039,1.0,0.327,0.033,-0.627
425,0.002,0.0,-0.009,-0.006,-0.041,0.999,0.328,0.034,-0.622
426,0.002,0.0,-0.009,-0.005,-0.04,0.999,0.331,0.03,-0.615
427,0.002,0.0,-0.009,-0.006,-0.039,1.001,0.321,0.028,-0.61
428,0.002,0.0,-0.009,-0.006,-0.04,0.998,0.321,0.028,-0.61
429,0.001,-0.001,-0.009,-0.005,-0.043,0.998,0.31,0.033,-0.606
430,0.001,-0.002,-0.009,-0.006,-0.042,1.0,0.307,0.024,-0.61
431,0.0,0.0,-0.009,-0.007,-0.041,0.999,0.313,0.03,-0.598
432,0.001,0.0,-0.01,-0.006,-0.039,0.998,0.319,0.021,-0.618
433,0.001,-0.001,-0.009,-0.006,-0.039,1.0,0.315,0.027,-0.624
434,0.002,-0.002,-0.009,-0.006,-0.041,1.0,0.303,0.022,-0.609
435,0.001,-0.002,-0.009,-0.005,-0.04,0.999,0.303,0.022,-0.609
436,0.001,-0.001,-0.009,-0.007,-0.04,1.0,0.306,0.01,-0.597
437,0.002,0.0,-0.01,-0.006,-0.039,0.999,0.306,0.01,-0.597
438,0.002,0.0,-0.009,-0.004,-0.038,0.998,0.318,0.006,-0.603
439,0.0,0.0,-0.009,-0.005,-0.04,0.998,0.316,0.019,-0.619
440,0.0,0.0,-0.01,-0.008,-0.04,0.997,0.31,0.042,-0.598
441,0.0,0.0,-0.01,-0.009,-0.039,0.998,0.313,0.03,-0.601
442,0.001,-0.002,-0.009,-0.006,-0.039,0.998,0.313,0.03,-0.601
443,0.001,0.0,-0.009,-0.006,-0.039,0.998,0.327,0.028,-0.6
444,0.002,0.002,-0.01,-0.006,-0.038,0.999,0.307,0.024,-0.603
445,0.001,0.002,-0.01,-0.005,-0.038,0.999,0.306,0.025,-0.598
446,0.0,-0.001,-0.009,-0.005,-0.041,1.0,0.316,0.04,-0.618
447,0.0,-0.001,-0.009,-0.007,-0.041,1.0,0.303,0.039,-0.598
448,0.0,-0.001,-0.009,-0.005,-0.039,0.999,0.303,0.039,-0.598
449,0.001,0.0,-0.009,-0.003,-0.038,0.999,0.327,0.03,-0.606
450,0.002,0.0,-0.009,-0.003,-0.041,0.999,0.316,0.004,-0.6
451,0.001,-0.001,-0.009,-0.004,-0.042,0.997,0.309,0.013,-0.592
452,0.001,0.0,-0.01,-0.007,-0.041,0.999,0.31,0.018,-0.598
453,0.002,0.0,-0.01,-0.007,-0.04,1.0,0.327,0.012,-0.613
454,0.0,0.0,-0.009,-0.006,-0.04,1.0,0.324,0.024,-0.592
455,0.0,0.0,-0.009,-0.004,-0.043,0.999,0.324,0.024,-0.592
456,0.001,0.0,-0.009,-0.005,-0.042,0.995,0.322,0.037,-0.609
457,0.002,-0.009,-0.007,-0.007,-0.039,0.99,0.309,0.039,-0.588
458,0.0,-0.001,-0.009,-0.009,-0.043,0.99,0.309,0.039,-0.588
459,0.0,0.0,-0.009,-0.01,-0.041,0.995,0.325,0.03,-0.604
460,0.002,0.0,-0.01,-0.007,-0.039,0.999,0.319,0.025,-0.609
461,0.002,0.0,-0.009,-0.005,-0.038,0.999,0.318,0.019,-0.624
462,0.0,0.0,-0.009,-0.005,-0.036,0.996,0.315,0.051,-0.613
463,0.002,0.0,-0.009,-0.005,-0.036,0.996,0.315,0.051,-0.613
464,0.003,0.001,-0.009,-0.004,-0.038,0.997,0.306,0.018,-0.603
465,0.002,0.002,-0.011,-0.004,-0.039,0.999,0.306,0.037,-0.595
466,0.0,0.001,-0.009,-0.005,-0.039,0.999,0.316,0.019,-0.6
467,0.0,-0.001,-0.009,-0.005,-0.041,0.997,0.328,0.039,-0.619
468,0.0,-0.001,-0.009,-0.007,-0.044,0.998,0.309,0.034,-0.604
469,0.0,-0.001,-0.009,-0.007,-0.043,1.0,0.319,0.045,-0.607
470,0.0,0.0,-0.009,-0.004,-0.041,0.998,0.319,0.045,-0.607
471,0.001,0.004,-0.01,-0.005,-0.04,0.998,0.313,0.033,-0.598
472,0.0,0.0,-0.009,-0.006,-0.038,0.997,0.313,0.033,-0.598
473,-0.005,0.009,-0.006,0.0,-0.051,0.989,0.303,0.019,-0.619
474,-0.053,0.001,0.002,-0.01,-0.046,1.0,0.313,0.034,-0.616
475,-0.033,-0.003,-0.001,-0.008,-0.03,0.991,0.304,0.046,-0.612
476,-0.006,0.0,0.0,-0.007,-0.033,0.986,0.309,0.016,-0.616
477,-0.004,-0.007,-0.007,-0.013,-0.036,0.999,0.316,0.03,-0.601
478,0.0,0.009,-0.006,-0.004,-0.037,0.996,0.316,0.03,-0.601
479,0.005,0.016,-0.014,-0.004,-0.038,1.0,0.325,0.024,-0.624
480,0.007,0.024,-0.016,-0.006,-0.038,1.0,0.319,0.018,-0.6
481,0.011,0.023,-0.016,-0.009,-0.038,1.0,0.306,0.006,-0.61
482,0.007,0.021,-0.021,-0.013,-0.036,1.005,0.301,0.0,-0.619
483,0.008,0.016,-0.032,-0.013,-0.036,1.005,0.31,0.021,-0.598
484,0.014,0.023,-0.041,-0.009,-0.035,1.003,0.303,0.021,-0.616
485,0.011,0.03,-0.05,-0.013,-0.035,1.005,0.303,0.021,-0.616
486,0.014,0.039,-0.07,-0.017,-0.036,1.007,0.304,0.024,-0.6
487,0.0,0.058,-0.059,-0.018,-0.035,0.998,0.324,0.028,-0.597
488,0.0,0.058,-0.059,-0.015,-0.037,1.0,0.334,0.033,-0.6
489,-0.004,0.04,-0.033,-0.001,-0.055,1.008,0.319,0.039,-0.619
490,-0.009,0.003,-0.011,0.006,-0.063,0.995,0.316,0.036,-0.619
491,-0.014,0.011,-0.008,0.0,-0.047,0.987,0.316,0.036,-0.619
492,-0.008,0.031,-0.009,-0.009,-0.037,0.995,0.306,0.027,-0.61
493,-0.013,0.026,-0.004,-0.011,-0.043,1.001,0.306,0.027,-0.61
494,-0.016,0.015,0.005,-0.013,-0.041,0.999,0.319,0.024,-0.606
495,-0.021,-0.002,0.01,0.013,-0.031,0.998,0.3,0.034,-0.622
496,0.0,0.016,0.035,0.014,-0.031,0.997,0.318,0.031,-0.619
497,-0.011,0.028,0.023,-0.01,-0.045,0.995,0.316,0.022,-0.607
498,-0.011,0.026,0.025,-0.02,-0.041,0.996,0.316,0.022,-0.607
499,-0.014,0.023,-0.01,-0.027,-0.035,0.998,0.309,0.034,-0.615
500,-0.033,0.017,-0.035,-0.004,-0.044,0.997,0.309,0.034,-0.616
501,-0.019,0.023,-0.005,-0.01,-0.035,1.001,0.328,0.027,-0.618
502,-0.014,-0.005,-0.002,-0.035,-0.028,1.008,0.321,0.027,-0.613
503,-0.018,-0.014,-0.014,-0.035,-0.028,1.008,0.325,0.03,-0.631
504,-0.022,-0.015,-0.009,-0.032,-0.033,1.003,0.319,0.025,-0.606
505,-0.023,-0.022,0.005,-0.019,-0.036,0.998,0.319,0.025,-0.606
506,-0.021,-0.04,0.025,-0.009,-0.041,1.004,0.327,0.046,-0.588
507,-0.018,-0.049,0.03,-0.01,-0.036,1.005,0.327,0.046,-0.588
508,-0.018,-0.049,0.03,-0.015,-0.029,0.997,0.315,0.027,-0.61
509,-0.015,-0.039,0.012,-0.017,-0.027,0.996,0.316,0.04,-0.618
510,-0.009,-0.024,-0.004,-0.01,-0.03,0.996,0.31,0.03,-0.603
511,-0.002,-0.016,-0.011,-0.007,-0.032,0.998,0.313,0.022,-0.622
512,0.0,-0.021,-0.016,-0.013,-0.028,1.001,0.313,0.022,-0.622
513,-0.015,-0.017,-0.041,-0.013,-0.025,0.996,0.333,0.025,-0.606
514,-0.004,-0.002,-0.033,-0.017,-0.028,0.994,0.324,0.007,-0.616
515,-0.002,-0.018,-0.038,-0.016,-0.037,0.995,0.327,0.019,-0.591
516,-0.001,-0.018,-0.035,-0.007,-0.034,0.996,0.312,0.01,-0.61
517,0.0,-0.02,-0.037,-0.009,-0.03,0.999,0.318,0.036,-0.631
518,0.001,-0.028,-0.024,-0.012,-0.033,0.997,0.318,0.036,-0.631
519,0.001,-0.032,-0.014,-0.012,-0.036,1.0,0.324,0.031,-0.621
520,0.0,-0.046,-0.006,-0.01,-0.035,1.001,0.313,0.031,-0.604
521,0.002,-0.043,-0.004,-0.004,-0.031,0.997,0.33,0.024,-0.613
522,0.006,-0.023,0.002,-0.008,-0.029,0.999,0.315,0.033,-0.612
523,0.002,-0.015,-0.011,-0.008,-0.029,0.999,0.312,0.025,-0.622
524,-0.002,0.0,-0.024,-0.01,-0.029,1.0,0.318,0.022,-0.63
525,0.0,-0.007,-0.035,-0.005,-0.03,1.0,0.318,0.022,-0.63
526,0.0,-0.03,-0.025,-0.014,-0.033,1.006,0.322,0.024,-0.616
527,0.0,-0.03,-0.025,-0.012,-0.035,1.007,0.312,0.019,-0.597
528,-0.009,-0.056,-0.015,0.007,-0.04,0.988,0.312,0.019,-0.597
529,0.0,-0.065,0.014,0.021,-0.046,0.991,0.328,0.03,-0.607
530,-0.009,-0.071,0.054,0.005,-0.033,1.007,0.321,0.025,-0.634
531,-0.018,-0.051,0.077,-0.006,-0.029,0.991,0.318,0.034,-0.606
532,-0.016,-0.033,0.053,-0.019,-0.034,0.993,0.318,0.034,-0.606
533,-0.017,0.003,0.019,-0.019,-0.026,0.993,0.322,0.033,-0.621
534,-0.013,0.016,-0.005,-0.003,-0.023,0.981,0.309,0.027,-0.597
535,-0.004,0.028,-0.046,-0.005,-0.019,1.002,0.325,0.033,-0.585
536,-0.004,0.025,-0.078,0.005,-0.02,0.997,0.318,0.024,-0.618
537,-0.007,0.044,-0.102,-0.002,-0.024,0.986,0.304,0.034,-0.604
538,-0.005,0.03,-0.076,-0.012,-0.031,1.001,0.309,0.019,-0.607
539,-0.004,0.01,-0.051,-0.008,-0.032,1.004,0.309,0.019,-0.607
540,-0.002,0.007,-0.046,-0.008,-0.023,0.995,0.315,0.016,-0.609
541,0.002,0.01,-0.039,-0.008,-0.023,0.995,0.315,0.033,-0.606
542,0.002,0.011,-0.032,-0.009,-0.034,1.001,0.315,0.033,-0.606
543,0.002,0.009,-0.021,-0.009,-0.034,1.001,0.312,0.028,-0.609
544,0.002,0.011,-0.016,-0.005,-0.033,0.998,0.315,0.004,-0.612
545,0.001,0.008,-0.017,-0.006,-0.031,1.001,0.318,0.03,-0.627
546,0.001,0.008,-0.017,-0.006,-0.033,1.0,0.318,0.03,-0.627
547,0.0,0.004,-0.016,-0.004,-0.033,0.998,0.318,0.034,-0.619
548,0.0,0.005,-0.011,-0.005,-0.03,0.998,0.31,0.027,-0.604
549,-0.004,-0.003,-0.006,-0.008,-0.03,0.998,0.298,0.021,-0.622
550,-0.004,-0.007,-0.004,-0.007,-0.031,0.996,0.315,0.022,-0.613
551,-0.002,-0.007,-0.006,-0.007,-0.029,0.997,0.336,0.031,-0.622
552,0.001,-0.003,-0.004,-0.008,-0.028,0.998,0.343,0.025,-0.609
553,0.005,0.001,-0.007,-0.005,-0.03,0.995,0.343,0.025,-0.609
554,0.008,0.009,-0.007,-0.003,-0.03,0.997,0.307,0.031,-0.601
555,0.014,0.014,-0.007,-0.005,-0.03,1.001,0.328,0.033,-0.604
556,0.014,0.009,-0.002,-0.002,-0.031,0.997,0.316,0.04,-0.6
557,0.018,0.009,0.0,-0.003,-0.029,0.997,0.336,0.021,-0.624
558,0.022,0.007,0.002,-0.011,-0.021,1.003,0.333,0.015,-0.61
559,0.029,0.007,0.004,-0.008,-0.02,1.006,0.298,0.024,-0.609
560,0.032,0.01,0.006,-0.001,-0.024,1.001,0.298,0.024,-0.609
561,0.037,0.011,0.049,0.001,0.003,1.007,0.328,0.016,-0.612
562,0.057,0.02,0.059,0.001,0.003,1.007,0.319,0.036,-0.6
563,-0.022,-0.04,0.172,0.0,0.018,1.012,0.319,0.036,-0.6
564,-0.023,0.0,0.203,0.024,0.052,0.985,0.331,0.031,-0.613
565,0.004,-0.084,0.126,-0.061,0.149,0.932,0.33,0.016,-0.615
566,0.004,-0.084,0.126,-0.102,0.073,0.89,0.291,0.037,-0.609
567,0.021,-0.069,0.148,-0.026,0.02,0.937,0.291,0.037,-0.609
568,0.029,0.004,0.192,0.019,0.103,1.019,0.315,0.036,-0.61
569,-0.023,-0.008,0.195,0.018,0.169,1.059,0.328,0.031,-0.624
570,0.089,0.128,-0.058,-0.028,0.077,1.114,0.319,0.039,-0.622
571,0.054,0.037,-0.183,-0.023,0.036,1.103,0.313,0.031,-0.61
572,0.06,-0.028,-0.141,0.025,0.105,0.982,0.313,0.028,-0.595
573,-0.03,0.064,-0.305,0.01,0.161,1.012,0.319,0.036,-0.601
574,0.006,0.102,-0.344,-0.04,0.18,1.189,0.319,0.036,-0.601
575,0.047,0.107,-0.378,0.003,0.015,1.129,0.315,0.021,-0.633
576,-0.35,-0.055,-0.375,-0.072,0.159,0.85,0.316,0.025,-0.603
577,-0.475,0.063,-0.551,-0.136,0.245,0.881,0.316,0.025,-0.603
578,-0.777,-0.02,-0.72,-0.01,0.044,0.789,0.33,0.028,-0.622
579,-0.291,0.343,-0.623,0.118,-0.108,0.93,0.333,0.027,-0.615
580,-0.08,0.116,-0.235,0.139,0.012,1.208,0.328,0.024,-0.612
581,-0.131,0.004,-0.133,0.034,0.212,1.058,0.328,0.024,-0.612
582,-0.168,-0.023,-0.328,0.034,0.212,1.058,0.342,0.04,-0.616
583,-0.126,-0.072,-0.458,-0.054,0.199,0.961,0.322,0.019,-0.615
584,-0.17,-0.018,-0.466,-0.061,0.143,1.01,0.316,0.027,-0.607
585,-0.116,-0.019,-0.375,-0.019,0.103,1.01,0.318,0.036,-0.618
586,-0.109,-0.08,-0.32,-0.011,0.1,0.931,0.315,0.033,-0.618
587,-0.109,-0.08,-0.32,-0.04,0.108,0.947,0.331,0.028,-0.607
588,-0.072,-0.056,-0.314,-0.034,0.113,0.974,0.331,0.028,-0.607
589,-0.071,-0.086,-0.294,0.005,0.104,1.016,0.343,0.027,-0.619
590,0.032,-0.105,-0.205,0.033,0.096,0.977,0.321,0.019,-0.601
591,0.056,-0.079,-0.177,0.034,0.067,1.012,0.33,0.018,-0.597
592,-0.044,-0.123,-0.198,0.031,0.102,1.0,0.318,0.015,-0.604
593,-0.038,0.01,-0.174,0.047,0.099,1.051,0.33,0.034,-0.61
594,0.035,0.021,-0.137,0.06,0.078,1.056,0.318,0.009,-0.621
595,0.042,0.03,-0.093,0.009,0.084,0.957,0.318,0.009,-0.621
596,0.01,0.03,-0.058,-0.045,0.07,1.016,0.339,0.027,-0.627
597,-0.016,0.041,-0.036,-0.06,0.105,0.997,0.327,0.012,-0.586
598,0.013,0.016,-0.034,-0.045,0.127,0.934,0.327,0.012,-0.586
599,0.037,0.031,-0.074,-0.016,0.116,0.959,0.33,0.037,-0.619
600,0.046,0.063,-0.14,0.01,0.113,0.99,0.33,0.022,-0.619
601,-0.016,0.014,-0.149,0.045,0.122,0.991,0.322,0.016,-0.613
602,-0.035,-0.033,-0.132,0.045,0.122,0.991,0.322,0.016,-0.613
603,-0.023,-0.007,-0.028,0.102,0.121,1.007,0.328,0.004,-0.606
604,-0.063,-0.048,0.13,0.139,0.1,1.005,0.324,0.024,-0.604
605,-0.129,0.04,0.241,0.089,0.102,0.98,0.336,0.031,-0.603
606,-0.035,-0.01,0.257,-0.015,0.104,0.994,0.337,0.022,-0.613
607,-0.035,-0.01,0.257,-0.076,0.076,0.999,0.334,0.024,-0.604
608,0.093,0.054,0.209,-0.075,0.063,1.076,0.334,0.024,-0.604
609,0.014,0.06,0.13,-0.024,0.095,1.05,0.325,0.045,-0.613
610,0.005,-0.014,0.043,0.004,0.123,0.969,0.328,0.03,-0.612
611,0.024,0.002,-0.041,0.015,0.126,0.954,0.322,0.016,-0.591
612,-0.011,0.032,-0.11,0.024,0.13,0.955,0.328,0.028,-0.622
613,0.051,0.016,-0.158,-0.01,0.06,1.052,0.333,0.019,-0.613
614,-0.029,0.03,-0.214,-0.048,0.046,1.064,0.328,0.024,-0.624
615,-0.018,0.059,-0.204,-0.065,0.058,0.997,0.328,0.024,-0.624
616,0.004,-0.03,-0.177,-0.066,0.009,0.961,0.328,0.039,-0.618
617,-0.004,-0.013,-0.169,-0.066,-0.014,1.047,0.316,0.043,-0.625
618,0.016,-0.043,-0.112,-0.028,-0.094,1.134,0.324,0.004,-0.603
619,-0.102,-0.099,0.008,-0.01,-0.066,0.99,0.331,0.045,-0.63
620,-0.082,0.014,0.079,-0.018,-0.026,0.94,0.34,0.036,-0.621
621,-0.106,-0.055,0.143,-0.022,-0.017,0.942,0.339,0.024,-0.603
622,0.037,-0.06,0.21,-0.022,-0.017,0.942,0.339,0.024,-0.603
623,0.027,-0.082,0.168,-0.037,-0.036,1.042,0.331,0.022,-0.606
624,-0.012,-0.064,0.062,-0.037,-0.064,1.094,0.331,0.037,-0.598
625,0.019,-0.05,-0.051,-0.041,-0.055,1.023,0.313,0.045,-0.577
626,0.019,-0.05,-0.051,-0.036,-0.09,1.068,0.33,0.01,-0.595
627,-0.021,-0.005,-0.113,-0.029,-0.089,1.04,0.325,0.036,-0.622
628,0.033,-0.051,-0.142,-0.013,-0.095,0.886,0.324,0.045,-0.625
629,0.044,-0.012,-0.11,-0.011,-0.141,0.913,0.324,0.045,-0.625
630,0.056,-0.023,-0.087,-0.032,-0.179,1.0,0.325,0.025,-0.604
631,0.042,-0.03,-0.107,-0.066,-0.202,0.976,0.333,0.045,-0.606
632,-0.013,-0.055,-0.169,-0.096,-0.214,0.999,0.309,0.037,-0.585
633,-0.016,-0.045,-0.2,-0.087,-0.208,0.976,0.309,0.037,-0.585
634,-0.049,-0.047,-0.195,-0.068,-0.225,0.973,0.334,0.027,-0.61
635,-0.031,-0.011,-0.193,-0.054,-0.21,0.929,0.331,0.019,-0.6
636,-0.009,0.079,-0.175,-0.037,-0.196,0.931,0.331,0.019,-0.6
637,0.062,0.095,-0.133,-0.026,-0.236,1.055,0.321,0.049,-0.589
638,-0.007,0.03,-0.147,-0.045,-0.234,1.056,0.331,0.049,-0.588
639,-0.037,0.03,-0.199,-0.057,-0.184,0.923,0.319,0.043,-0.609
640,-0.01,0.051,-0.224,-0.024,-0.169,0.941,0.334,0.028,-0.589
641,0.0,0.047,-0.205,-0.024,-0.169,0.941,0.349,0.025,-0.588
642,0.08,0.039,-0.199,0.009,-0.185,1.006,0.325,0.024,-0.588
643,-0.081,0.032,-0.151,0.008,-0.258,1.038,0.325,0.024,-0.588
644,-0.102,0.04,-0.055,0.018,-0.187,1.042,0.346,0.028,-0.604
645,-0.035,0.07,-0.015,0.067,-0.109,0.947,0.331,0.03,-0.622
646,-0.035,0.07,-0.015,0.045,-0.204,0.972,0.333,0.042,-0.591
647,-0.023,0.024,0.025,-0.042,-0.224,1.051,0.351,0.031,-0.579
648,-0.023,-0.003,0.114,-0.057,-0.201,1.007,0.351,0.037,-0.613
649,-0.009,0.01,0.131,-0.043,-0.161,1.006,0.324,0.019,-0.616
650,-0.052,0.006,0.066,-0.023,-0.045,1.01,0.324,0.019,-0.616
651,-0.038,0.004,0.095,0.021,0.003,0.999,0.337,0.03,-0.604
652,-0.022,-0.023,0.219,0.082,-0.028,0.999,0.33,0.042,-0.598
653,-0.005,0.015,0.301,0.066,-0.021,0.986,0.328,0.019,-0.615
654,0.004,0.025,0.389,0.019,-0.012,0.976,0.316,0.018,-0.598
655,0.009,0.015,0.449,0.018,-0.005,0.975,0.336,0.031,-0.604
656,0.035,0.021,0.438,-0.001,-0.003,0.973,0.315,0.016,-0.612
657,0.021,0.025,0.392,-0.019,0.015,0.991,0.315,0.016,-0.612
658,-0.011,0.025,0.338,-0.038,0.056,0.987,0.33,0.052,-0.607
659,-0.002,0.029,0.291,-0.03,0.06,0.971,0.331,0.037,-0.606
660,-0.014,0.0,0.254,-0.015,0.031,0.971,0.33,0.037,-0.589
661,-0.008,0.035,0.197,-0.015,0.031,0.971,0.336,0.043,-0.598
662,-0.004,0.054,0.142,-0.037,0.031,0.973,0.33,0.039,-0.612
663,-0.004,0.034,0.095,-0.064,0.063,0.989,0.325,0.051,-0.613
664,-0.009,0.048,0.038,-0.061,0.055,0.985,0.325,0.051,-0.613
665,-0.005,0.036,-0.006,-0.063,0.045,0.991,0.33,0.042,-0.615
666,-0.005,0.036,-0.006,-0.06,0.045,0.988,0.327,0.042,-0.613
667,-0.002,0.044,-0.015,-0.059,0.047,0.985,0.328,0.034,-0.585
668,0.007,0.032,-0.012,-0.052,0.044,1.004,0.309,0.034,-0.585
669,0.011,0.013,-0.007,-0.024,0.026,1.005,0.327,0.045,-0.619
670,0.011,0.006,-0.007,-0.02,0.026,1.0,0.316,0.046,-0.603
671,0.015,0.008,-0.009,-0.02,0.028,0.998,0.316,0.046,-0.603
672,0.016,0.009,-0.009,-0.022,0.02,1.004,0.322,0.06,-0.592
673,0.013,0.009,-0.01,-0.02,0.019,1.005,0.324,0.045,-0.597
674,0.006,0.018,-0.011,-0.022,0.02,1.006,0.336,0.036,-0.604
675,0.0,0.0,-0.01,-0.026,0.021,1.009,0.319,0.037,-0.612
676,-0.002,-0.008,-0.008,-0.023,0.024,1.003,0.312,0.051,-0.625
677,-0.006,-0.011,-0.007,-0.022,0.022,1.0,0.339,0.039,-0.595
678,-0.006,-0.005,-0.006,-0.023,0.025,0.999,0.339,0.039,-0.595
679,-0.007,-0.007,-0.004,-0.025,0.027,1.003,0.327,0.054,-0.601
680,0.013,0.019,0.002,0.116,0.015,0.799,0.343,0.057,-0.613
681,0.068,0.089,0.236,0.116,0.015,0.799,0.307,0.045,-0.588
682,0.021,0.073,0.23,0.096,-0.03,0.848,0.307,0.045,-0.588
683,0.009,0.038,0.116,-0.067,-0.001,1.01,0.333,0.036,-0.613
684,-0.022,-0.116,-0.025,-0.101,0.069,0.982,0.325,0.051,-0.613
685,-0.022,-0.116,-0.025,0.053,-0.007,0.891,0.325,0.051,-0.613
686,0.004,0.032,-0.03,0.133,-0.066,0.867,0.316,0.051,-0.6
687,0.0,0.032,-0.014,-0.018,-0.005,1.008,0.321,0.052,-0.604
688,0.008,-0.032,-0.011,-0.034,0.028,1.002,0.336,0.045,-0.607
689,0.015,0.011,-0.011,-0.007,0.021,0.987,0.321,0.058,-0.604
690,0.009,0.034,-0.009,-0.023,0.02,0.999,0.315,0.055,-0.603
691,0.004,0.007,-0.007,-0.031,0.023,1.002,0.336,0.048,-0.597
692,0.004,0.018,-0.002,-0.018,0.019,0.997,0.336,0.048,-0.597
693,0.0,0.021,0.004,-0.018,0.016,1.006,0.334,0.054,-0.604
694,-0.016,0.005,0.104,0.0,0.021,1.013,0.328,0.06,-0.607
695,-0.017,-0.02,0.119,-0.048,0.028,1.031,0.33,0.036,-0.586
696,-0.02,-0.109,0.189,-0.053,0.027,1.043,0.309,0.046,-0.597
697,-0.019,-0.066,0.075,-0.029,0.044,0.994,0.313,0.048,-0.618
698,-0.004,-0.049,0.006,-0.044,0.038,0.989,0.339,0.043,-0.597
699,-0.033,0.255,-0.018,0.101,0.006,0.962,0.339,0.043,-0.597
700,-0.009,0.624,-0.056,0.089,0.019,0.95,0.318,0.039,-0.616
701,0.006,0.594,-0.067,0.089,0.019,0.95,0.319,0.058,-0.607
702,0.0,0.365,-0.041,-0.128,0.028,1.021,0.336,0.034,-0.588
703,0.001,0.063,-0.013,-0.128,0.028,1.021,0.336,0.034,-0.588
704,-0.002,-0.206,0.004,-0.144,0.041,1.019,0.321,0.046,-0.607
705,-0.002,-0.206,0.004,-0.115,0.024,1.02,0.321,0.046,-0.607
706,-0.021,-0.303,0.025,-0.056,0.014,1.013,0.319,0.039,-0.63
707,-0.021,-0.212,0.015,0.004,0.021,0.983,0.345,0.06,-0.619
708,0.0,0.0,-0.009,0.028,0.022,0.965,0.345,0.042,-0.622
709,0.016,0.154,-0.025,-0.012,0.026,0.981,0.33,0.043,-0.616
710,0.015,0.143,-0.03,-0.06,0.025,1.004,0.331,0.055,-0.606
711,0.004,0.035,-0.016,-0.08,0.02,1.015,0.331,0.055,-0.606
712,-0.004,-0.076,-0.004,-0.074,0.023,1.015,0.331,0.045,-0.616
713,-0.011,-0.107,0.0,-0.041,0.022,1.002,0.343,0.058,-0.607
714,-0.009,-0.046,-0.004,-0.016,0.024,0.988,0.318,0.057,-0.619
715,0.001,0.033,-0.011,-0.021,0.028,0.986,0.331,0.043,-0.618
716,0.004,0.048,-0.014,-0.043,0.025,0.997,0.327,0.06,-0.597
717,0.002,0.014,-0.011,-0.056,0.022,1.006,0.321,0.024,-0.615
718,-0.002,-0.03,-0.007,-0.05,0.025,1.005,0.321,0.024,-0.615
719,-0.005,-0.035,-0.007,-0.036,0.027,1.001,0.337,0.04,-0.604
720,-0.002,-0.006,-0.009,-0.03,0.028,0.996,0.337,0.049,-0.609
721,0.002,0.015,-0.01,-0.03,0.028,0.996,0.348,0.042,-0.601
722,0.002,0.01,-0.01,-0.038,0.027,0.994,0.321,0.025,-0.612
723,-0.002,-0.016,-0.008,-0.048,0.025,1.004,0.306,0.073,-0.606
724,-0.002,-0.016,-0.008,-0.043,0.024,1.001,0.306,0.073,-0.606
725,0.0,-0.005,-0.009,-0.039,0.025,0.997,0.33,0.054,-0.607
726,0.0,0.003,-0.01,-0.039,0.025,0.996,0.331,0.049,-0.627
727,0.0,0.004,-0.01,-0.043,0.024,0.998,0.316,0.063,-0.613
728,0.0,-0.004,-0.008,-0.046,0.023,0.999,0.361,0.054,-0.61
729,0.0,-0.007,-0.009,-0.042,0.025,0.998,0.328,0.046,-0.618
730,0.0,-0.002,-0.009,-0.04,0.025,0.999,0.315,0.058,-0.606
731,0.0,0.001,-0.01,-0.039,0.027,0.999,0.315,0.058,-0.606
732,0.0,0.0,-0.01,-0.04,0.026,0.999,0.321,0.057,-0.607
733,0.0,-0.002,-0.009,-0.042,0.024,1.0,0.327,0.057,-0.601
734,0.001,-0.005,-0.009,-0.042,0.024,1.001,0.331,0.048,-0.622
735,0.0,-0.006,-0.009,-0.041,0.023,0.999,0.339,0.06,-0.612
736,0.001,-0.002,-0.009,-0.041,0.026,0.998,0.325,0.049,-0.597
737,0.0,-0.01,-0.008,-0.041,0.027,0.998,0.306,0.069,-0.616
738,0.0,-0.004,-0.009,-0.042,0.026,0.998,0.306,0.069,-0.616
739,0.0,-0.003,-0.008,-0.04,0.026,0.998,0.342,0.049,-0.604
740,0.0,-0.004,-0.009,-0.04,0.026,0.998,0.328,0.064,-0.598
741,0.001,-0.002,-0.009,-0.04,0.023,0.997,0.334,0.043,-0.619
742,0.0,-0.001,-0.009,-0.041,0.022,1.001,0.334,0.046,-0.61
743,0.0,-0.001,-0.009,-0.041,0.025,1.002,0.334,0.048,-0.595
744,0.0,-0.001,-0.009,-0.041,0.027,0.999,0.328,0.049,-0.588
745,0.0,-0.004,-0.009,-0.04,0.027,1.0,0.325,0.051,-0.61
746,0.0,-0.003,-0.009,-0.042,0.025,1.001,0.325,0.051,-0.61
747,0.0,-0.002,-0.009,-0.043,0.024,1.0,0.322,0.055,-0.612
748,0.0,-0.002,-0.009,-0.041,0.024,1.0,0.339,0.043,-0.625
749,0.0,-0.003,-0.009,-0.04,0.024,0.999,0.333,0.051,-0.621
750,0.001,-0.002,-0.009,-0.04,0.025,0.997,0.339,0.045,-0.609
751,0.004,0.002,-0.01,-0.039,0.026,0.998,0.324,0.052,-0.589
752,0.003,0.002,-0.01,-0.04,0.024,0.999,0.327,0.048,-0.598
753,0.002,0.0,-0.009,-0.041,0.024,0.998,0.327,0.048,-0.598
754,0.0,-0.003,-0.009,-0.041,0.025,0.998,0.312,0.049,-0.625
755,0.0,-0.002,-0.009,-0.041,0.025,0.999,0.342,0.043,-0.616
756,0.001,-0.001,-0.01,-0.041,0.024,0.999,0.333,0.048,-0.603
757,0.0,-0.002,-0.009,-0.038,0.025,0.998,0.337,0.055,-0.604
758,-0.001,-0.008,-0.008,-0.038,0.025,0.998,0.334,0.037,-0.618
759,0.0,-0.006,-0.009,-0.038,0.025,0.998,0.318,0.052,-0.612
760,0.002,-0.002,-0.009,-0.04,0.025,0.996,0.318,0.052,-0.612
761,0.002,0.0,-0.009,-0.042,0.025,0.997,0.33,0.048,-0.619
762,0.001,0.0,-0.009,-0.041,0.024,0.998,0.337,0.051,-0.612
763,0.001,-0.004,-0.009,-0.042,0.024,1.0,0.328,0.051,-0.631
764,0.001,-0.004,-0.009,-0.042,0.027,1.001,0.355,0.055,-0.595
765,0.0,-0.003,-0.009,-0.039,0.027,1.001,0.331,0.048,-0.592
766,0.0,-0.002,-0.009,-0.038,0.027,0.998,0.337,0.055,-0.612
767,0.001,0.0,-0.01,-0.039,0.028,0.997,0.337,0.055,-0.612
768,0.001,-0.003,-0.01,-0.041,0.028,0.999,0.316,0.057,-0.609
769,0.0,-0.004,-0.009,-0.04,0.027,1.0,0.316,0.036,-0.61
770,0.001,-0.001,-0.009,-0.039,0.025,1.0,0.342,0.045,-0.607
771,0.002,0.0,-0.009,-0.038,0.024,0.998,0.327,0.04,-0.624
772,0.003,-0.002,-0.009,-0.038,0.025,0.998,0.336,0.055,-0.613
773,0.002,-0.001,-0.009,-0.041,0.026,0.999,0.333,0.051,-0.595
774,0.002,-0.002,-0.009,-0.042,0.027,0.999,0.333,0.051,-0.595
775,0.0,-0.002,-0.009,-0.04,0.027,0.999,0.312,0.051,-0.601
776,0.001,0.0,-0.01,-0.04,0.027,1.0,0.334,0.04,-0.624
777,0.002,0.0,-0.009,-0.041,0.026,1.0,0.348,0.064,-0.613
778,0.002,-0.001,-0.009,-0.041,0.026,0.999,0.313,0.043,-0.603
779,0.0,0.003,-0.01,-0.04,0.027,0.999,0.334,0.073,-0.591
780,0.0,-0.001,-0.01,-0.04,0.027,0.999,0.313,0.046,-0.618
781,0.001,-0.002,-0.009,-0.04,0.028,1.0,0.313,0.046,-0.618
782,0.002,0.0,-0.009,-0.04,0.027,1.0,0.333,0.051,-0.618
783,0.001,-0.001,-0.009,-0.04,0.026,1.0,0.331,0.06,-0.61
784,0.001,-0.001,-0.009,-0.039,0.026,1.0,0.336,0.072,-0.622
785,0.0,-0.002,-0.009,-0.039,0.026,1.001,0.337,0.043,-0.601
786,0.0,-0.001,-0.009,-0.039,0.024,1.001,0.312,0.057,-0.607
787,0.0,-0.002,-0.008,-0.042,0.024,1.0,0.322,0.061,-0.613
788,0.0,-0.001,-0.01,-0.042,0.025,1.0,0.322,0.061,-0.613
789,0.001,0.0,-0.01,-0.04,0.026,0.999,0.342,0.061,-0.619
790,0.0,-0.001,-0.009,-0.04,0.026,0.997,0.325,0.046,-0.604
791,0.001,-0.001,-0.01,-0.04,0.026,0.997,0.33,0.064,-0.607
792,0.0,-0.001,-0.01,-0.041,0.025,0.999,0.33,0.033,-0.61
793,0.0,-0.001,-0.009,-0.041,0.025,0.998,0.324,0.057,-0.61
794,0.0,-0.003,-0.009,-0.041,0.024,0.997,0.324,0.057,-0.61
795,0.002,0.0,-0.009,-0.042,0.025,0.998,0.327,0.042,-0.618
796,0.002,0.0,-0.01,-0.042,0.028,0.998,0.319,0.058,-0.6
797,0.001,0.0,-0.009,-0.04,0.025,0.998,0.331,0.039,-0.612
798,0.002,-0.001,-0.009,-0.041,0.024,0.999,0.337,0.039,-0.607
799,0.0,-0.002,-0.009,-0.041,0.024,0.999,0.33,0.049,-0.618
800,0.0,-0.014,-0.007,-0.042,0.026,1.0,0.321,0.042,-0.594
801,0.0,-0.007,-0.009,-0.041,0.024,1.0,0.321,0.042,-0.594
802,0.001,-0.003,-0.009,-0.041,0.025,0.999,0.324,0.033,-0.622
803,0.001,0.0,-0.01,-0.04,0.026,0.998,0.325,0.04,-0.589
804,0.001,0.0,-0.01,-0.041,0.026,0.998,0.342,0.049,-0.61
805,0.001,0.0,-0.009,-0.04,0.024,0.999,0.333,0.048,-0.61
806,0.001,-0.002,-0.009,-0.036,0.024,1.0,0.325,0.054,-0.612
807,0.001,-0.002,-0.01,-0.038,0.027,1.001,0.322,0.039,-0.586
808,0.001,0.0,-0.01,-0.04,0.028,1.0,0.322,0.039,-0.586
809,0.001,0.001,-0.009,-0.042,0.027,1.0,0.322,0.061,-0.615
810,0.001,0.0,-0.009,-0.043,0.025,0.998,0.322,0.037,-0.613
811,0.002,0.0,-0.009,-0.041,0.027,0.997,0.34,0.045,-0.606
812,0.002,0.0,-0.009,-0.043,0.028,0.999,0.325,0.055,-0.592
813,0.001,-0.001,-0.009,-0.043,0.026,0.999,0.327,0.054,-0.612
814,-0.002,-0.009,-0.008,-0.042,0.027,0.999,0.327,0.054,-0.612
815,0.0,-0.002,-0.009,-0.042,0.028,1.0,0.313,0.046,-0.612
816,0.002,-0.002,-0.009,-0.04,0.027,0.999,0.313,0.046,-0.612
817,0.001,-0.003,-0.009,-0.041,0.027,0.999,0.337,0.051,-0.622
818,0.001,-0.002,-0.009,-0.04,0.025,1.0,0.321,0.048,-0.612
819,0.001,0.0,-0.01,-0.04,0.025,1.0,0.325,0.039,-0.613
820,0.002,0.0,-0.009,-0.038,0.025,0.999,0.327,0.067,-0.616
821,0.0,0.001,-0.01,-0.038,0.026,0.999,0.327,0.051,-0.613
822,0.002,0.0,-0.01,-0.04,0.025,1.0,0.319,0.054,-0.612
823,0.002,0.0,-0.01,-0.042,0.026,1.001,0.319,0.054,-0.612
824,0.0,-0.002,-0.009,-0.04,0.027,1.0,0.324,0.064,-0.612
825,0.001,-0.001,-0.009,-0.038,0.026,0.998,0.331,0.063,-0.63
826,0.001,-0.002,-0.009,-0.038,0.025,0.998,0.33,0.043,-0.597
827,0.001,-0.002,-0.009,-0.041,0.025,1.0,0.345,0.055,-0.618
828,0.0,-0.002,-0.009,-0.041,0.026,1.0,0.318,0.054,-0.609
829,0.001,0.0,-0.009,-0.039,0.027,0.999,0.337,0.049,-0.624
830,0.0,-0.001,-0.009,-0.04,0.026,0.999,0.337,0.049,-0.624
831,0.001,0.0,-0.009,-0.04,0.027,1.0,0.339,0.034,-0.609
832,0.002,0.0,-0.009,-0.041,0.026,1.001,0.325,0.055,-0.613
833,0.002,-0.002,-0.009,-0.041,0.025,1.0,0.345,0.045,-0.61
834,0.001,0.0,-0.01,-0.04,0.026,0.998,0.336,0.063,-0.616
835,0.002,0.002,-0.01,-0.041,0.026,0.998,0.307,0.049,-0.597
836,0.001,0.0,-0.009,-0.042,0.026,0.999,0.328,0.033,-0.624
837,0.001,-0.001,-0.009,-0.041,0.025,0.999,0.328,0.033,-0.624
838,0.001,-0.001,-0.011,-0.039,0.026,0.999,0.321,0.04,-0.639
839,0.001,0.0,-0.01,-0.039,0.026,0.999,0.363,0.07,-0.624
840,0.0,-0.001,-0.011,-0.04,0.027,1.001,0.331,0.054,-0.613
841,0.001,-0.002,-0.01,-0.041,0.027,1.0,0.322,0.057,-0.618
842,0.002,-0.002,-0.009,-0.039,0.025,0.998,0.343,0.036,-0.618
843,0.002,-0.002,-0.009,-0.04,0.025,0.999,0.328,0.034,-0.612
844,0.0,-0.004,-0.009,-0.04,0.026,0.998,0.328,0.034,-0.612
845,0.0,-0.002,-0.009,-0.041,0.025,0.998,0.324,0.058,-0.61
846,0.0,-0.003,-0.009,-0.043,0.026,1.0,0.333,0.058,-0.613
847,0.002,-0.002,-0.009,-0.04,0.028,0.999,0.333,0.043,-0.606
848,0.001,-0.001,-0.009,-0.038,0.028,0.998,0.328,0.06,-0.604
849,0.002,0.001,-0.01,-0.039,0.025,0.997,0.328,0.051,-0.589
850,0.001,0.0,-0.009,-0.04,0.025,0.999,0.355,0.06,-0.604
851,0.001,0.0,-0.009,-0.04,0.024,1.0,0.355,0.06,-0.604
852,0.001,0.0,-0.009,-0.04,0.025,0.998,0.336,0.046,-0.633
853,0.0,-0.001,-0.009,-0.04,0.026,0.998,0.319,0.036,-0.6
854,0.001,0.0,-0.009,-0.04,0.026,0.999,0.321,0.045,-0.619
855,0.001,0.0,-0.009,-0.041,0.026,0.998,0.339,0.034,-0.616
856,0.001,0.012,-0.011,-0.039,0.027,0.998,0.33,0.061,-0.583
857,0.002,0.004,-0.01,-0.04,0.026,0.998,0.337,0.057,-0.621
858,0.001,-0.001,-0.009,-0.039,0.024,0.998,0.337,0.057,-0.621
859,0.001,-0.002,-0.009,-0.039,0.024,0.998,0.324,0.04,-0.624
860,0.0,-0.002,-0.009,-0.041,0.026,0.998,0.342,0.048,-0.616
861,0.0,-0.001,-0.009,-0.042,0.026,0.999,0.312,0.06,-0.616
862,0.001,-0.001,-0.009,-0.04,0.026,1.0,0.327,0.057,-0.619
863,0.001,-0.001,-0.009,-0.041,0.028,1.0,0.339,0.052,-0.61
864,0.002,0.0,-0.009,-0.041,0.026,0.999,0.339,0.052,-0.61
865,0.0,0.0,-0.009,-0.041,0.025,0.999,0.33,0.04,-0.612
866,0.0,-0.001,-0.009,-0.038,0.025,0.999,0.312,0.042,-0.618
867,0.001,-0.001,-0.01,-0.037,0.024,0.998,0.351,0.054,-0.622
868,0.0,-0.001,-0.009,-0.039,0.024,1.001,0.351,0.036,-0.606
869,0.002,0.0,-0.01,-0.04,0.024,1.002,0.33,0.045,-0.625
870,0.002,-0.003,-0.009,-0.041,0.024,1.0,0.324,0.034,-0.61
871,0.002,0.001,-0.009,-0.041,0.024,0.999,0.324,0.034,-0.61
872,0.001,-0.001,-0.009,-0.04,0.026,0.999,0.337,0.061,-0.612
873,0.0,-0.002,-0.01,-0.037,0.027,0.999,0.357,0.054,-0.616
874,0.001,-0.001,-0.009,-0.04,0.027,1.0,0.316,0.051,-0.609
875,0.002,0.0,-0.009,-0.042,0.027,0.999,0.325,0.061,-0.618
876,0.0,0.0,-0.009,-0.039,0.025,0.998,0.324,0.052,-0.592
877,-0.004,-0.018,-0.007,-0.039,0.025,0.998,0.319,0.033,-0.606
878,0.0,-0.009,-0.009,-0.039,0.025,0.998,0.319,0.033,-0.606
879,0.0,-0.002,-0.01,-0.041,0.025,0.997,0.324,0.052,-0.621
880,0.0,0.0,-0.009,-0.039,0.025,0.997,0.346,0.034,-0.63
881,0.001,-0.002,-0.009,-0.038,0.027,1.0,0.342,0.052,-0.63
882,0.001,-0.001,-0.009,-0.04,0.027,1.0,0.324,0.051,-0.601
883,0.001,-0.001,-0.009,-0.04,0.025,0.998,0.321,0.055,-0.621
884,0.0,-0.001,-0.009,-0.04,0.024,0.998,0.325,0.042,-0.597
885,0.001,0.0,-0.009,-0.04,0.026,0.997,0.336,0.055,-0.616
886,0.001,-0.002,-0.009,-0.039,0.026,0.998,0.336,0.055,-0.616
887,0.001,-0.002,-0.008,-0.038,0.025,1.001,0.331,0.057,-0.607
888,0.002,-0.001,-0.009,-0.036,0.023,0.999,0.336,0.069,-0.624
889,0.001,-0.001,-0.01,-0.038,0.026,0.998,0.318,0.055,-0.615
890,0.0,-0.002,-0.009,-0.041,0.027,0.999,0.333,0.061,-0.604
891,0.002,-0.002,-0.009,-0.04,0.026,0.999,0.331,0.045,-0.592
892,0.002,-0.002,-0.009,-0.04,0.025,1.0,0.328,0.054,-0.612
893,0.0,0.0,-0.01,-0.043,0.024,0.999,0.328,0.054,-0.612
894,0.002,0.0,-0.009,-0.042,0.026,0.998,0.33,0.048,-0.621
895,0.002,-0.001,-0.01,-0.039,0.027,0.997,0.327,0.06,-0.603
896,0.002,-0.002,-0.01,-0.039,0.026,0.997,0.331,0.045,-0.6
897,0.002,0.0,-0.009,-0.039,0.026,0.997,0.325,0.057,-0.616
898,0.001,-0.002,-0.009,-0.04,0.025,0.998,0.33,0.052,-0.619
899,0.0,-0.004,-0.009,-0.04,0.025,0.998,0.328,0.051,-0.594
900,0.001,-0.002,-0.008,-0.04,0.026,1.0,0.328,0.051,-0.594
901,0.001,0.0,-0.01,-0.04,0.026,0.999,0.346,0.043,-0.603
902,0.001,-0.001,-0.009,-0.04,0.026,1.0,0.345,0.052,-0.609
903,0.001,-0.001,-0.009,-0.04,0.026,1.0,0.346,0.036,-0.607
904,0.001,0.0,-0.009,-0.041,0.026,1.001,0.336,0.04,-0.615
905,0.002,0.0,-0.009,-0.04,0.024,0.999,0.322,0.061,-0.598
906,0.002,-0.001,-0.009,-0.04,0.024,0.999,0.331,0.063,-0.613
907,0.0,0.0,-0.009,-0.039,0.025,1.0,0.331,0.063,-0.613
908,0.001,-0.001,-0.01,-0.04,0.025,1.0,0.337,0.043,-0.615
909,0.002,-0.002,-0.009,-0.04,0.025,1.0,0.342,0.06,-0.621
910,0.001,-0.002,-0.009,-0.039,0.025,1.0,0.343,0.04,-0.616
911,0.001,-0.002,-0.009,-0.04,0.026,0.998,0.337,0.042,-0.603
912,0.0,-0.001,-0.009,-0.04,0.028,0.997,0.328,0.039,-0.61
913,0.0,-0.003,-0.01,-0.04,0.028,0.997,0.322,0.052,-0.609
914,0.0,-0.001,-0.009,-0.04,0.025,0.998,0.322,0.052,-0.609
915,0.001,0.0,-0.009,-0.039,0.025,0.998,0.303,0.048,-0.583
916,0.0,0.0,-0.009,-0.04,0.025,0.998,0.325,0.054,-0.613
917,0.0,-0.001,-0.009,-0.04,0.026,0.998,0.331,0.043,-0.6
918,0.0,0.0,-0.009,-0.04,0.026,0.998,0.327,0.048,-0.609
919,0.002,0.0,-0.011,-0.039,0.024,1.0,0.327,0.054,-0.601
920,0.002,0.0,-0.01,-0.038,0.023,0.999,0.316,0.054,-0.624
921,0.002,0.0,-0.01,-0.039,0.025,0.998,0.316,0.054,-0.624
922,0.002,0.0,-0.009,-0.043,0.025,0.999,0.331,0.049,-0.606
923,0.002,0.0,-0.009,-0.043,0.027,0.999,0.321,0.049,-0.606
924,0.001,0.0,-0.01,-0.041,0.027,0.998,0.34,0.04,-0.607
925,0.0,0.0,-0.009,-0.042,0.026,0.998,0.33,0.061,-0.603
926,0.001,0.002,-0.01,-0.043,0.025,0.998,0.34,0.057,-0.601
927,0.001,-0.002,-0.01,-0.04,0.026,1.001,0.336,0.061,-0.615
928,0.002,-0.002,-0.009,-0.037,0.027,1.0,0.336,0.061,-0.615
929,0.0,0.0,-0.009,-0.037,0.026,1.0,0.345,0.049,-0.622
930,0.001,0.0,-0.009,-0.04,0.024,0.998,0.304,0.033,-0.619
931,0.001,0.0,-0.009,-0.042,0.025,0.999,0.337,0.036,-0.616
932,0.0,0.0,-0.01,-0.043,0.026,1.001,0.339,0.04,-0.598
933,0.004,0.005,-0.011,-0.04,0.027,0.998,0.34,0.048,-0.625
934,0.002,0.0,-0.009,-0.038,0.026,0.998,0.34,0.048,-0.625
935,0.002,-0.001,-0.01,-0.041,0.026,0.998,0.328,0.06,-0.603
936,0.001,0.0,-0.009,-0.04,0.026,0.998,0.351,0.037,-0.597
937,0.0,0.0,-0.01,-0.038,0.027,0.997,0.322,0.061,-0.613
938,0.0,-0.002,-0.009,-0.038,0.027,0.997,0.348,0.052,-0.621
939,0.001,0.0,-0.009,-0.04,0.027,0.996,0.33,0.048,-0.618
940,0.0,-0.015,-0.007,-0.04,0.027,0.999,0.315,0.067,-0.591
941,0.0,-0.006,-0.008,-0.041,0.029,0.998,0.328,0.043,-0.604
942,0.001,-0.002,-0.009,-0.04,0.027,0.999,0.331,0.052,-0.618
943,0.001,-0.002,-0.009,-0.037,0.026,0.999,0.337,0.043,-0.598
944,0.0,0.0,-0.009,-0.037,0.024,0.999,0.336,0.048,-0.619
945,0.001,0.0,-0.009,-0.039,0.024,0.998,0.342,0.037,-0.601
946,0.001,-0.001,-0.009,-0.041,0.026,1.0,0.334,0.048,-0.597
947,0.001,-0.002,-0.009,-0.041,0.027,0.997,0.33,0.066,-0.613
948,0.001,-0.001,-0.009,-0.041,0.03,0.997,0.319,0.046,-0.615
949,0.001,-0.001,-0.009,-0.043,0.028,0.998,0.319,0.046,-0.615
950,0.001,0.0,-0.009,-0.042,0.025,0.998,0.327,0.045,-0.604
951,0.002,-0.002,-0.009,-0.04,0.026,0.997,0.324,0.048,-0.609
952,0.0,-0.003,-0.009,-0.04,0.027,0.999,0.325,0.04,-0.618
953,0.0,-0.002,-0.009,-0.04,0.026,0.998,0.336,0.043,-0.618
954,0.0,-0.004,-0.009,-0.042,0.024,0.998,0.325,0.042,-0.606
955,0.001,-0.002,-0.009,-0.042,0.025,1.0,0.321,0.052,-0.604
956,0.0,0.0,-0.009,-0.04,0.027,0.998,0.321,0.052,-0.604
957,0.0,-0.002,-0.009,-0.039,0.025,0.997,0.33,0.067,-0.6
958,0.001,-0.002,-0.009,-0.039,0.025,0.999,0.33,0.063,-0.63
959,0.001,0.0,-0.01,-0.039,0.027,0.999,0.339,0.033,-0.606
960,0.002,0.001,-0.011,-0.041,0.027,0.999,0.322,0.051,-0.622
961,0.0,0.002,-0.009,-0.041,0.024,1.0,0.315,0.037,-0.598
962,0.001,-0.001,-0.009,-0.041,0.024,1.001,0.328,0.045,-0.607
963,0.002,-0.001,-0.01,-0.041,0.025,1.002,0.328,0.045,-0.607
964,0.001,0.0,-0.01,-0.041,0.025,1.002,0.34,0.043,-0.606
965,0.002,0.0,-0.009,-0.04,0.024,1.002,0.334,0.048,-0.606
966,0.001,-0.002,-0.009,-0.041,0.024,0.999,0.33,0.051,-0.618
967,0.001,-0.002,-0.008,-0.042,0.027,0.998,0.333,0.049,-0.634
968,0.002,0.0,-0.009,-0.04,0.028,0.999,0.328,0.049,-0.601
969,0.002,0.0,-0.009,-0.04,0.027,0.999,0.337,0.048,-0.609
970,0.0,-0.002,-0.009,-0.041,0.027,1.0,0.337,0.048,-0.609
971,0.002,0.0,-0.009,-0.04,0.027,1.0,0.33,0.046,-0.612
972,0.002,-0.002,-0.009,-0.042,0.028,0.999,0.313,0.055,-0.63
973,0.0,-0.003,-0.009,-0.042,0.027,0.998,0.324,0.048,-0.613
974,0.0,-0.002,-0.009,-0.04,0.026,0.999,0.345,0.028,-0.615
975,0.0,-0.003,-0.008,-0.04,0.026,0.999,0.315,0.063,-0.597
976,0.0,-0.004,-0.009,-0.04,0.027,0.998,0.343,0.058,-0.613
977,0.001,-0.003,-0.009,-0.041,0.027,0.999,0.343,0.058,-0.613
978,0.0,-0.002,-0.009,-0.04,0.027,0.999,0.33,0.064,-0.619
979,0.0,0.0,-0.009,-0.038,0.026,1.0,0.349,0.049,-0.627
980,0.0,0.0,-0.01,-0.041,0.026,0.997,0.34,0.042,-0.606
981,0.001,-0.001,-0.009,-0.04,0.025,0.999,0.324,0.043,-0.615
982,0.001,-0.007,-0.009,-0.04,0.026,1.001,0.315,0.042,-0.603
983,0.001,-0.003,-0.009,-0.04,0.026,1.0,0.339,0.046,-0.627
984,0.0,0.0,-0.009,-0.04,0.026,1.0,0.339,0.046,-0.627
985,0.001,0.0,-0.009,-0.038,0.029,1.001,0.337,0.057,-0.609
986,0.001,-0.002,-0.01,-0.041,0.029,1.001,0.315,0.063,-0.613
987,0.0,-0.003,-0.009,-0.041,0.026,0.999,0.316,0.046,-0.619
988,0.0,-0.003,-0.009,-0.039,0.026,0.999,0.33,0.03,-0.61
989,0.0,-0.003,-0.009,-0.039,0.025,0.999,0.343,0.045,-0.604
990,0.001,-0.001,-0.009,-0.04,0.025,1.001,0.343,0.045,-0.604
991,0.001,0.0,-0.009,-0.04,0.025,1.0,0.334,0.043,-0.607
992,0.0,0.0,-0.009,-0.04,0.024,0.997,0.349,0.072,-0.618
993,0.0,-0.001,-0.008,-0.041,0.025,0.999,0.324,0.03,-0.616
994,0.001,0.0,-0.009,-0.04,0.028,1.001,0.331,0.049,-0.615
995,0.001,-0.001,-0.009,-0.041,0.027,0.999,0.334,0.057,-0.618
996,0.0,-0.002,-0.009,-0.042,0.025,0.999,0.327,0.055,-0.6
997,0.0,0.0,-0.009,-0.042,0.027,0.999,0.327,0.055,-0.6
998,0.0,0.0,-0.009,-0.043,0.027,0.998,0.334,0.063,-0.594
999,0.0,-0.002,-0.009,-0.042,0.027,0.998,0.31,0.06,-0.613
1000,0.0,-0.003,-0.009,-0.039,0.028,0.996,0.328,0.046,-0.606
1001,0.0,-0.001,-0.009,-0.04,0.027,0.998,0.324,0.049,-0.613
1002,0.001,0.0,-0.009,-0.041,0.025,1.0,0.328,0.055,-0.607
1003,0.0,-0.01,-0.008,-0.041,0.025,1.0,0.313,0.054,-0.621
1004,0.0,-0.002,-0.009,-0.039,0.024,0.997,0.313,0.054,-0.621
1005,0.002,0.0,-0.009,-0.039,0.025,0.998,0.339,0.058,-0.624
1006,0.001,0.0,-0.01,-0.04,0.025,1.0,0.306,0.036,-0.61
1007,0.001,-0.003,-0.009,-0.042,0.024,1.0,0.342,0.057,-0.601
1008,0.001,-0.002,-0.009,-0.041,0.025,1.0,0.322,0.049,-0.621
1009,0.001,-0.002,-0.009,-0.041,0.024,0.999,0.331,0.049,-0.612
1010,0.001,-0.002,-0.009,-0.04,0.024,1.0,0.316,0.066,-0.595
1011,0.001,0.0,-0.009,-0.04,0.025,0.999,0.343,0.054,-0.618
1012,0.0,-0.002,-0.009,-0.042,0.026,0.999,0.343,0.054,-0.618
1013,0.002,0.0,-0.01,-0.04,0.027,1.0,0.337,0.045,-0.606
1014,0.0,-0.002,-0.009,-0.038,0.028,0.999,0.327,0.049,-0.612
1015,0.0,-0.002,-0.009,-0.041,0.026,0.999,0.352,0.055,-0.633
1016,0.001,0.0,-0.009,-0.041,0.026,1.0,0.327,0.04,-0.607
1017,-0.002,-0.002,-0.008,-0.04,0.026,0.997,0.325,0.061,-0.613
1018,0.0,-0.003,-0.009,-0.039,0.025,0.997,0.337,0.057,-0.597
1019,0.001,-0.002,-0.009,-0.04,0.028,0.999,0.337,0.057,-0.597
1020,0.001,-0.001,-0.009,-0.041,0.027,0.998,0.33,0.063,-0.622
1021,0.002,0.0,-0.009,-0.042,0.024,0.998,0.328,0.067,-0.609
1022,0.002,-0.002,-0.009,-0.041,0.027,0.998,0.327,0.06,-0.616
1023,0.0,-0.001,-0.009,-0.04,0.026,0.998,0.336,0.06,-0.621
1024,0.0,-0.007,-0.009,-0.04,0.026,0.998,0.342,0.046,-0.615
1025,0.0,0.0,-0.011,-0.039,0.025,0.997,0.339,0.046,-0.606
1026,0.001,-0.002,-0.01,-0.041,0.027,0.999,0.339,0.046,-0.606
1027,0.0,-0.003,-0.01,-0.042,0.028,1.0,0.318,0.051,-0.601
1028,0.0,-0.003,-0.01,-0.042,0.027,1.001,0.336,0.036,-0.616
1029,0.0,-0.002,-0.011,-0.039,0.026,1.0,0.333,0.045,-0.607
1030,0.001,0.0,-0.01,-0.037,0.026,1.0,0.327,0.058,-0.618
1031,0.002,0.0,-0.009,-0.041,0.023,1.0,0.322,0.055,-0.594
1032,0.0,-0.002,-0.009,-0.041,0.025,1.001,0.318,0.054,-0.633
1033,0.001,0.0,-0.009,-0.041,0.028,0.999,0.318,0.054,-0.633
1034,0.0,0.0,-0.009,-0.041,0.028,0.998,0.319,0.055,-0.609
1035,0.0,-0.001,-0.009,-0.04,0.027,0.998,0.34,0.058,-0.616
1036,0.0,-0.002,-0.009,-0.039,0.025,0.998,0.325,0.048,-0.597
1037,0.001,-0.002,-0.009,-0.039,0.024,0.998,0.333,0.052,-0.609
1038,0.002,0.0,-0.009,-0.04,0.025,0.997,0.327,0.036,-0.601
1039,0.002,0.0,-0.009,-0.039,0.025,0.998,0.322,0.036,-0.589
1040,0.0,-0.001,-0.009,-0.04,0.026,0.999,0.322,0.036,-0.589
1041,0.0,-0.002,-0.009,-0.041,0.026,0.997,0.325,0.064,-0.618
1042,0.001,0.0,-0.009,-0.04,0.025,0.997,0.331,0.039,-0.61
1043,0.002,0.0,-0.009,-0.039,0.025,0.997,0.34,0.055,-0.613
1044,0.001,0.0,-0.01,-0.039,0.025,0.997,0.328,0.037,-0.612
1045,0.0,-0.005,-0.008,-0.039,0.026,0.998,0.331,0.043,-0.586
1046,0.0,-0.005,-0.008,-0.041,0.026,0.999,0.328,0.063,-0.588
1047,0.0,-0.005,-0.008,-0.041,0.026,1.0,0.328,0.063,-0.588
1048,0.001,-0.002,-0.009,-0.043,0.026,0.998,0.334,0.051,-0.61
1049,0.001,0.0,-0.01,-0.041,0.026,0.998,0.351,0.051,-0.613
1050,0.0,-0.002,-0.009,-0.039,0.026,1.0,0.331,0.043,-0.622
1051,0.001,-0.002,-0.009,-0.039,0.025,0.999,0.345,0.034,-0.609
1052,0.002,0.0,-0.009,-0.039,0.024,0.999,0.328,0.069,-0.598
1053,0.001,-0.003,-0.009,-0.04,0.027,0.998,0.318,0.051,-0.589
1054,0.001,-0.001,-0.009,-0.041,0.028,0.999,0.318,0.051,-0.589
1055,0.001,0.0,-0.009,-0.04,0.027,1.001,0.322,0.045,-0.609
1056,0.0,0.0,-0.009,-0.039,0.026,1.0,0.33,0.043,-0.607
1057,0.0,-0.001,-0.009,-0.039,0.026,0.999,0.325,0.057,-0.618
1058,0.002,0.0,-0.01,-0.041,0.027,0.998,0.337,0.037,-0.607
1059,0.003,0.01,-0.011,-0.04,0.026,0.999,0.318,0.054,-0.609
1060,0.002,0.003,-0.01,-0.039,0.025,0.999,0.318,0.054,-0.609
1061,0.0,-0.002,-0.009,-0.039,0.025,0.998,0.33,0.037,-0.615
1062,0.0,-0.002,-0.009,-0.039,0.028,0.998,0.327,0.063,-0.621
1063,0.001,-0.001,-0.009,-0.04,0.028,0.998,0.349,0.057,-0.603
1064,0.002,0.0,-0.009,-0.04,0.028,0.998,0.331,0.06,-0.619
1065,0.002,0.0,-0.009,-0.039,0.027,0.999,0.316,0.058,-0.613
1066,0.0,0.0,-0.009,-0.041,0.026,0.999,0.316,0.058,-0.613
1067,0.0,0.0,-0.009,-0.041,0.026,0.999,0.33,0.052,-0.615
1068,0.0,-0.001,-0.009,-0.041,0.027,1.0,0.34,0.049,-0.598
1069,0.0,-0.002,-0.009,-0.041,0.025,0.999,0.336,0.055,-0.615
1070,0.001,-0.002,-0.009,-0.042,0.023,0.999,0.331,0.066,-0.613
1071,0.001,0.0,-0.009,-0.041,0.024,1.001,0.343,0.043,-0.618
1072,0.002,0.0,-0.01,-0.041,0.025,0.999,0.325,0.051,-0.622
1073,0.0,-0.004,-0.008,-0.039,0.027,1.0,0.327,0.055,-0.612
1074,0.001,-0.002,-0.009,-0.039,0.027,1.0,0.327,0.055,-0.612
1075,0.002,0.0,-0.01,-0.038,0.027,0.999,0.324,0.036,-0.615
1076,0.001,0.0,-0.01,-0.04,0.028,1.0,0.328,0.055,-0.607
1077,0.001,-0.001,-0.01,-0.041,0.026,0.998,0.319,0.039,-0.628
1078,0.0,0.0,-0.009,-0.039,0.025,0.999,0.343,0.036,-0.61
1079,0.001,0.0,-0.009,-0.038,0.026,0.999,0.334,0.057,-0.609
1080,0.002,0.004,-0.011,-0.039,0.027,1.0,0.321,0.046,-0.586
1081,0.001,-0.002,-0.009,-0.039,0.028,1.0,0.33,0.066,-0.604
1082,0.0,-0.003,-0.009,-0.04,0.027,0.999,0.33,0.066,-0.604
1083,0.001,0.0,-0.009,-0.04,0.027,0.999,0.333,0.054,-0.619
1084,0.002,0.0,-0.009,-0.04,0.026,1.002,0.334,0.061,-0.609
1085,0.001,-0.002,-0.009,-0.04,0.025,1.001,0.318,0.058,-0.613
1086,0.001,-0.002,-0.009,-0.04,0.025,0.998,0.331,0.046,-0.6
1087,0.001,-0.002,-0.009,-0.038,0.025,0.998,0.315,0.046,-0.609
1088,0.003,0.002,-0.01,-0.04,0.026,0.999,0.33,0.034,-0.618
1089,0.003,0.002,-0.01,-0.043,0.027,0.999,0.33,0.034,-0.618
1090,0.002,0.0,-0.01,-0.041,0.024,0.998,0.321,0.055,-0.6
1091,0.0,0.0,-0.009,-0.041,0.025,0.999,0.339,0.028,-0.618
1092,0.0,-0.002,-0.009,-0.04,0.026,0.998,0.328,0.052,-0.603
1093,0.0,-0.002,-0.01,-0.04,0.028,0.998,0.34,0.042,-0.598
1094,0.003,-0.004,-0.009,-0.041,0.028,0.998,0.331,0.043,-0.598
1095,0.001,-0.002,-0.01,-0.039,0.024,0.998,0.322,0.04,-0.616
1096,0.002,-0.001,-0.009,-0.04,0.024,1.0,0.322,0.04,-0.616
1097,0.002,0.0,-0.009,-0.041,0.025,0.998,0.333,0.037,-0.594
1098,0.002,-0.001,-0.009,-0.04,0.024,0.998,0.313,0.04,-0.606
1099,0.001,-0.002,-0.009,-0.04,0.025,1.001,0.337,0.042,-0.61
1100,0.002,-0.002,-0.009,-0.04,0.025,1.0,0.328,0.057,-0.616
1101,0.003,0.004,-0.011,-0.039,0.026,0.999,0.322,0.052,-0.61
1102,0.002,0.001,-0.01,-0.038,0.027,0.997,0.331,0.037,-0.597
1103,0.0,0.0,-0.009,-0.038,0.027,0.997,0.331,0.037,-0.597
1104,0.0,0.0,-0.009,-0.04,0.025,0.999,0.342,0.048,-0.61
1105,0.0,-0.002,-0.009,-0.042,0.023,0.999,0.333,0.045,-0.621
1106,0.0,-0.002,-0.011,-0.042,0.025,0.999,0.333,0.043,-0.607
1107,0.001,0.0,-0.009,-0.039,0.025,0.999,0.321,0.052,-0.613
1108,0.001,0.0,-0.009,-0.04,0.026,1.0,0.34,0.039,-0.621
1109,0.002,-0.002,-0.009,-0.041,0.027,1.0,0.301,0.061,-0.597
1110,0.002,0.0,-0.009,-0.04,0.027,0.999,0.301,0.061,-0.597
1111,0.002,-0.001,-0.009,-0.041,0.027,0.999,0.321,0.066,-0.612
1112,0.0,0.0,-0.009,-0.043,0.025,0.999,0.333,0.067,-0.633
1113,0.001,0.0,-0.009,-0.041,0.025,0.998,0.327,0.057,-0.615
1114,0.0,-0.001,-0.009,-0.04,0.028,0.998,0.334,0.043,-0.597
1115,0.0,-0.005,-0.01,-0.037,0.026,0.998,0.319,0.046,-0.603
1116,0.0,-0.002,-0.009,-0.037,0.023,0.997,0.331,0.048,-0.621
1117,0.0,-0.001,-0.009,-0.042,0.024,0.998,0.331,0.048,-0.621
1118,0.001,0.0,-0.01,-0.042,0.026,1.0,0.333,0.024,-0.613
1119,0.001,0.0,-0.01,-0.039,0.025,1.0,0.33,0.024,-0.625
1120,0.001,-0.002,-0.009,-0.038,0.023,0.999,0.336,0.057,-0.604
