,Gyroscope X (deg/s),Gyroscope Y (deg/s),Gyroscope Z (deg/s),Accelerometer X (g),Accelerometer Y (g),Accelerometer Z (g),Magnetometer X (G),Magnetometer Y (G),Magnetometer Z (G)
0,0.003,-0.001,-0.006,-0.013,0.015,0.999,0.0,0.006,-0.558
1,0.003,-0.001,-0.006,-0.013,0.015,0.999,0.33,0.006,-0.558
2,0.002,-0.002,-0.005,-0.01,0.014,0.999,0.768,0.238,-0.537
3,0.002,-0.002,-0.005,-0.01,0.014,0.999,0.768,0.238,-0.537
4,0.002,-0.002,-0.005,-0.01,0.014,0.999,0.768,0.238,-0.537
5,0.002,-0.002,-0.005,-0.01,0.014,0.999,0.768,0.238,-0.537
6,0.002,-0.002,-0.006,-0.01,0.016,0.998,0.768,0.238,-0.537
7,0.002,-0.001,-0.006,-0.01,0.013,0.997,0.771,0.235,-0.541
8,0.002,-0.001,-0.006,-0.01,0.012,0.998,0.787,0.235,-0.553
9,0.003,-0.002,-0.006,-0.012,0.011,0.999,0.781,0.258,-0.54
10,0.003,-0.002,-0.006,-0.01,0.01,1.001,0.774,0.243,-0.549
11,0.002,-0.002,-0.006,-0.007,0.012,1.0,0.781,0.24,-0.552
12,0.002,-0.002,-0.006,-0.01,0.014,0.999,0.796,0.259,-0.537
13,0.002,-0.003,-0.005,-0.012,0.013,0.998,0.766,0.235,-0.549
14,0.002,-0.004,-0.006,-0.011,0.015,0.997,0.781,0.261,-0.544
15,0.002,-0.002,-0.007,-0.009,0.017,0.996,0.768,0.252,-0.544
16,0.003,-0.002,-0.006,-0.009,0.016,0.996,0.79,0.249,-0.538
17,0.003,0.0,-0.006,-0.009,0.015,0.997,0.766,0.234,-0.553
18,0.003,0.0,-0.006,-0.012,0.016,0.999,0.768,0.237,-0.534
19,0.003,-0.002,-0.005,-0.011,0.016,1.0,0.789,0.243,-0.58
20,0.003,0.0,-0.006,-0.009,0.015,0.999,0.789,0.243,-0.58
21,0.002,0.0,-0.007,-0.011,0.013,0.999,0.762,0.24,-0.532
22,0.002,-0.001,-0.005,-0.011,0.011,0.998,0.762,0.24,-0.532
23,0.002,0.0,-0.006,-0.01,0.011,0.994,0.777,0.259,-0.546
24,0.003,0.0,-0.005,-0.01,0.014,0.997,0.78,0.249,-0.549
25,0.002,-0.003,-0.005,-0.011,0.015,0.998,0.772,0.241,-0.555
26,0.002,-0.001,-0.007,-0.011,0.014,0.997,0.772,0.241,-0.555
27,0.002,-0.001,-0.006,-0.01,0.015,1.0,0.774,0.235,-0.541
28,0.001,-0.008,-0.004,-0.008,0.014,0.999,0.786,0.265,-0.553
29,0.001,-0.004,-0.004,-0.007,0.013,1.0,0.762,0.246,-0.544
30,0.003,0.0,-0.006,-0.009,0.013,1.001,0.783,0.238,-0.546
31,0.003,0.0,-0.006,-0.011,0.013,0.999,0.772,0.226,-0.547
32,0.003,-0.001,-0.006,-0.011,0.014,0.996,0.784,0.235,-0.547
33,0.002,-0.002,-0.005,-0.011,0.014,0.996,0.784,0.235,-0.547
34,0.002,-0.002,-0.007,-0.011,0.015,0.998,0.781,0.234,-0.559
35,0.003,0.001,-0.007,-0.008,0.013,1.0,0.745,0.249,-0.538
36,0.002,-0.002,-0.005,-0.009,0.012,0.998,0.789,0.246,-0.55
37,0.002,-0.003,-0.005,-0.01,0.014,0.997,0.769,0.232,-0.549
38,0.002,-0.003,-0.005,-0.01,0.015,0.998,0.784,0.246,-0.538
39,0.003,0.0,-0.006,-0.009,0.014,1.0,0.786,0.237,-0.556
40,0.004,0.0,-0.007,-0.008,0.012,0.999,0.786,0.237,-0.556
41,0.003,-0.001,-0.007,-0.01,0.011,0.998,0.786,0.25,-0.561
42,0.002,0.0,-0.006,-0.011,0.013,0.999,0.76,0.252,-0.55
43,0.002,0.0,-0.006,-0.011,0.014,1.0,0.76,0.252,-0.55
44,0.002,-0.002,-0.006,-0.01,0.014,0.998,0.777,0.249,-0.558
45,0.002,-0.002,-0.005,-0.008,0.014,0.999,0.775,0.252,-0.534
46,0.002,-0.002,-0.006,-0.009,0.015,0.998,0.781,0.244,-0.561
47,0.002,-0.002,-0.004,-0.011,0.014,0.997,0.781,0.244,-0.561
48,0.003,-0.002,-0.005,-0.011,0.011,0.999,0.795,0.249,-0.538
49,0.002,-0.004,-0.006,-0.01,0.012,1.001,0.765,0.252,-0.535
50,0.002,-0.002,-0.006,-0.011,0.013,1.0,0.783,0.235,-0.556
51,0.002,0.0,-0.005,-0.011,0.013,0.998,0.786,0.234,-0.546
52,0.003,-0.001,-0.006,-0.011,0.013,0.998,0.783,0.223,-0.541
53,0.002,-0.002,-0.005,-0.011,0.013,0.999,0.783,0.223,-0.541
54,0.003,-0.001,-0.005,-0.009,0.012,1.001,0.795,0.253,-0.555
55,0.003,0.0,-0.006,-0.007,0.012,1.001,0.78,0.222,-0.549
56,0.004,-0.002,-0.006,-0.008,0.015,1.001,0.76,0.229,-0.529
57,0.004,-0.002,-0.006,-0.01,0.015,0.999,0.76,0.229,-0.529
58,0.003,-0.001,-0.007,-0.011,0.015,0.998,0.792,0.249,-0.567
59,0.003,-0.001,-0.007,-0.011,0.014,0.999,0.757,0.258,-0.558
60,0.002,-0.001,-0.005,-0.01,0.012,1.001,0.757,0.258,-0.558
61,0.002,-0.002,-0.005,-0.01,0.012,1.0,0.765,0.244,-0.54
62,0.002,-0.002,-0.006,-0.012,0.013,1.001,0.783,0.25,-0.549
63,0.0,-0.017,-0.003,-0.011,0.014,1.0,0.775,0.238,-0.526
64,0.002,-0.007,-0.005,-0.011,0.015,0.999,0.79,0.244,-0.543
65,0.001,-0.002,-0.007,-0.011,0.014,0.999,0.774,0.25,-0.529
66,0.002,-0.002,-0.007,-0.01,0.014,0.999,0.762,0.237,-0.558
67,0.002,-0.003,-0.006,-0.009,0.015,0.999,0.762,0.237,-0.558
68,0.002,-0.003,-0.006,-0.009,0.014,1.0,0.784,0.232,-0.559
69,0.002,-0.001,-0.005,-0.01,0.012,1.0,0.778,0.237,-0.538
70,0.002,0.01,-0.007,-0.01,0.013,1.0,0.778,0.244,-0.535
71,0.001,0.002,-0.006,-0.01,0.015,0.999,0.778,0.244,-0.535
72,0.002,-0.002,-0.006,-0.01,0.015,0.999,0.769,0.243,-0.561
73,0.003,-0.002,-0.006,-0.01,0.014,0.998,0.772,0.231,-0.552
74,0.002,-0.002,-0.005,-0.012,0.013,0.998,0.772,0.231,-0.552
75,0.003,0.0,-0.006,-0.01,0.014,0.998,0.793,0.247,-0.537
76,0.003,-0.002,-0.007,-0.007,0.015,0.998,0.772,0.24,-0.541
77,0.003,-0.002,-0.007,-0.008,0.014,0.998,0.769,0.249,-0.544
78,0.004,-0.002,-0.007,-0.01,0.012,0.998,0.771,0.249,-0.543
79,0.002,-0.002,-0.006,-0.01,0.013,0.999,0.766,0.247,-0.544
80,0.002,-0.002,-0.006,-0.01,0.016,0.999,0.777,0.24,-0.544
81,0.002,-0.002,-0.006,-0.009,0.015,0.998,0.777,0.24,-0.544
82,0.003,0.0,-0.006,-0.01,0.014,0.998,0.777,0.241,-0.549
83,0.002,0.0,-0.006,-0.01,0.013,0.998,0.756,0.223,-0.55
84,0.003,-0.006,-0.005,-0.009,0.014,0.998,0.763,0.252,-0.544
85,0.003,-0.004,-0.005,-0.009,0.015,0.999,0.775,0.249,-0.535
86,0.003,0.0,-0.005,-0.008,0.012,1.0,0.772,0.25,-0.544
87,0.003,0.0,-0.006,-0.01,0.012,0.998,0.777,0.237,-0.546
88,0.002,0.0,-0.006,-0.012,0.013,0.998,0.777,0.237,-0.546
89,0.002,-0.002,-0.006,-0.01,0.012,0.998,0.774,0.255,-0.567
90,0.002,-0.002,-0.006,-0.009,0.014,0.998,0.783,0.246,-0.534
91,0.002,0.002,-0.006,-0.011,0.013,0.998,0.763,0.252,-0.556
92,0.003,0.001,-0.007,-0.011,0.013,0.998,0.772,0.261,-0.522
93,0.003,0.0,-0.007,-0.01,0.011,0.998,0.774,0.241,-0.556
94,0.002,0.0,-0.007,-0.01,0.011,0.999,0.792,0.229,-0.528
95,0.003,-0.003,-0.006,-0.012,0.014,0.999,0.792,0.229,-0.528
96,0.003,-0.004,-0.006,-0.011,0.015,1.0,0.783,0.253,-0.549
97,0.003,-0.004,-0.006,-0.009,0.016,1.001,0.778,0.244,-0.543
98,0.002,-0.001,-0.006,-0.01,0.015,0.999,0.763,0.246,-0.514
99,0.002,-0.001,-0.006,-0.012,0.012,0.998,0.775,0.258,-0.549
100,0.002,-0.001,-0.006,-0.012,0.013,0.998,0.787,0.246,-0.553
101,0.002,-0.002,-0.006,-0.011,0.014,0.999,0.765,0.265,-0.543
102,0.002,-0.003,-0.007,-0.011,0.015,0.998,0.765,0.265,-0.543
103,0.002,-0.002,-0.007,-0.011,0.014,0.999,0.798,0.252,-0.552
104,0.002,0.0,-0.005,-0.011,0.013,1.001,0.774,0.241,-0.532
105,0.004,0.002,-0.006,-0.011,0.011,1.0,0.775,0.24,-0.541
106,0.003,0.0,-0.007,-0.009,0.011,0.999,0.786,0.246,-0.537
107,0.002,-0.001,-0.007,-0.01,0.012,1.001,0.79,0.24,-0.555
108,0.002,-0.001,-0.007,-0.011,0.012,1.0,0.777,0.231,-0.556
109,0.003,-0.002,-0.007,-0.01,0.014,1.0,0.777,0.231,-0.556
110,0.002,-0.003,-0.006,-0.011,0.016,0.999,0.772,0.232,-0.54
111,0.002,-0.002,-0.006,-0.012,0.015,0.998,0.769,0.232,-0.55
112,0.003,0.002,-0.006,-0.012,0.015,0.998,0.775,0.235,-0.549
113,0.002,0.0,-0.007,-0.011,0.011,0.999,0.777,0.256,-0.565
114,0.002,0.0,-0.006,-0.011,0.011,1.001,0.762,0.258,-0.547
115,0.002,0.0,-0.006,-0.012,0.013,1.001,0.784,0.256,-0.553
116,0.002,-0.001,-0.005,-0.011,0.014,1.001,0.784,0.256,-0.553
117,0.002,-0.002,-0.006,-0.009,0.015,1.001,0.772,0.226,-0.559
118,0.002,-0.001,-0.006,-0.008,0.013,0.999,0.796,0.25,-0.559
119,0.002,-0.002,-0.005,-0.009,0.013,0.997,0.786,0.229,-0.555
120,0.003,-0.002,-0.006,-0.011,0.015,0.999,0.775,0.264,-0.54
121,0.003,-0.001,-0.005,-0.011,0.015,1.0,0.771,0.246,-0.535
122,0.002,0.0,-0.006,-0.01,0.013,1.0,0.78,0.238,-0.534
123,0.002,-0.002,-0.006,-0.008,0.014,1.002,0.78,0.238,-0.534
124,0.002,-0.001,-0.007,-0.01,0.015,1.002,0.784,0.246,-0.537
125,0.002,-0.002,-0.006,-0.01,0.015,1.0,0.772,0.249,-0.556
126,0.004,0.002,-0.006,-0.009,0.015,1.0,0.784,0.252,-0.555
127,0.004,0.0,-0.005,-0.009,0.014,1.0,0.774,0.237,-0.546
128,0.004,-0.002,-0.005,-0.009,0.011,1.0,0.784,0.238,-0.537
129,0.002,-0.002,-0.006,-0.009,0.01,0.999,0.793,0.235,-0.549
130,0.002,-0.001,-0.007,-0.009,0.011,1.0,0.793,0.235,-0.549
131,0.003,0.0,-0.005,-0.008,0.011,0.999,0.799,0.234,-0.561
132,0.003,0.0,-0.005,-0.008,0.011,0.999,0.769,0.24,-0.562
133,0.0,-0.008,-0.004,-0.009,0.012,0.997,0.769,0.237,-0.543
134,0.002,-0.004,-0.005,-0.011,0.012,0.999,0.769,0.237,-0.543
135,0.002,0.0,-0.006,-0.012,0.014,1.0,0.763,0.255,-0.552
136,0.002,0.0,-0.006,-0.011,0.016,1.0,0.775,0.255,-0.541
137,0.002,-0.002,-0.006,-0.011,0.015,0.999,0.775,0.255,-0.541
138,0.002,-0.004,-0.006,-0.011,0.013,0.999,0.774,0.238,-0.541
139,0.002,-0.001,-0.007,-0.011,0.013,1.0,0.783,0.246,-0.544
140,0.001,-0.004,-0.006,-0.009,0.013,1.0,0.771,0.231,-0.547
141,0.002,-0.002,-0.005,-0.01,0.013,0.999,0.763,0.249,-0.538
142,0.003,-0.001,-0.006,-0.012,0.016,0.998,0.774,0.249,-0.558
143,0.003,-0.002,-0.007,-0.011,0.014,0.999,0.765,0.247,-0.55
144,0.002,-0.002,-0.007,-0.008,0.015,1.0,0.765,0.247,-0.55
145,0.002,-0.002,-0.005,-0.008,0.016,0.998,0.774,0.237,-0.547
146,0.002,-0.001,-0.006,-0.01,0.013,1.001,0.777,0.244,-0.535
147,0.002,-0.002,-0.007,-0.01,0.014,1.002,0.784,0.259,-0.546
148,0.002,-0.002,-0.006,-0.01,0.015,0.999,0.784,0.259,-0.546
149,0.002,0.0,-0.005,-0.01,0.014,0.999,0.786,0.24,-0.526
150,0.002,-0.001,-0.006,-0.009,0.014,0.999,0.784,0.232,-0.541
151,0.002,-0.002,-0.006,-0.009,0.014,0.999,0.784,0.232,-0.541
152,0.002,-0.001,-0.005,-0.011,0.013,1.0,0.781,0.255,-0.553
153,0.002,-0.001,-0.005,-0.01,0.014,0.999,0.772,0.256,-0.555
154,0.003,-0.007,-0.004,-0.009,0.014,0.999,0.795,0.231,-0.553
155,0.002,-0.002,-0.005,-0.012,0.014,1.0,0.787,0.247,-0.543
156,0.002,-0.002,-0.005,-0.012,0.016,1.0,0.772,0.237,-0.552
157,0.002,-0.001,-0.004,-0.011,0.014,0.999,0.777,0.238,-0.537
158,0.003,-0.001,-0.005,-0.012,0.013,0.999,0.777,0.238,-0.537
159,0.002,0.0,-0.007,-0.01,0.013,0.999,0.784,0.24,-0.562
160,0.003,-0.001,-0.006,-0.011,0.014,1.0,0.781,0.243,-0.552
161,0.0,0.0,-0.005,-0.012,0.014,1.0,0.76,0.249,-0.531
162,0.0,0.0,-0.006,-0.009,0.012,0.999,0.78,0.246,-0.55
163,0.002,-0.002,-0.007,-0.009,0.014,0.999,0.777,0.234,-0.541
164,0.002,-0.001,-0.007,-0.01,0.014,1.0,0.777,0.249,-0.553
165,0.003,-0.002,-0.005,-0.011,0.012,1.0,0.777,0.249,-0.553
166,0.002,-0.002,-0.007,-0.009,0.014,0.999,0.771,0.237,-0.565
167,0.002,-0.001,-0.006,-0.009,0.014,0.999,0.778,0.246,-0.547
168,0.004,-0.003,-0.006,-0.011,0.012,0.999,0.789,0.241,-0.525
169,0.003,-0.001,-0.007,-0.012,0.011,0.999,0.79,0.238,-0.526
170,0.002,-0.002,-0.006,-0.012,0.011,0.999,0.775,0.267,-0.556
171,0.002,-0.002,-0.006,-0.012,0.011,1.001,0.774,0.253,-0.547
172,0.002,-0.002,-0.005,-0.011,0.014,1.002,0.774,0.253,-0.547
173,0.002,-0.002,-0.006,-0.011,0.014,1.001,0.774,0.249,-0.541
174,0.003,-0.002,-0.007,-0.01,0.013,1.0,0.78,0.252,-0.534
175,0.002,-0.002,-0.006,-0.009,0.014,1.0,0.76,0.237,-0.555
176,0.002,-0.002,-0.006,-0.009,0.013,1.0,0.763,0.235,-0.54
177,0.003,-0.002,-0.005,-0.011,0.011,0.998,0.768,0.234,-0.541
178,0.002,-0.002,-0.006,-0.011,0.012,0.998,0.769,0.235,-0.541
179,0.002,0.0,-0.007,-0.01,0.012,0.999,0.769,0.235,-0.541
180,0.002,-0.002,-0.007,-0.011,0.011,1.0,0.777,0.252,-0.556
181,0.002,-0.001,-0.006,-0.011,0.012,0.998,0.793,0.232,-0.54
182,0.003,-0.004,-0.005,-0.011,0.012,0.997,0.784,0.235,-0.543
183,0.003,-0.003,-0.005,-0.01,0.012,1.001,0.763,0.241,-0.528
184,0.002,-0.002,-0.006,-0.01,0.013,1.0,0.786,0.252,-0.531
185,0.002,-0.002,-0.007,-0.011,0.015,0.998,0.778,0.252,-0.538
186,0.002,-0.001,-0.005,-0.013,0.015,0.999,0.778,0.252,-0.538
187,0.002,0.0,-0.005,-0.012,0.015,0.999,0.781,0.232,-0.55
188,0.003,-0.001,-0.006,-0.01,0.016,1.0,0.754,0.235,-0.54
189,0.001,-0.007,-0.005,-0.011,0.015,0.999,0.757,0.252,-0.531
190,0.002,-0.004,-0.006,-0.012,0.012,1.0,0.781,0.243,-0.534
191,0.002,-0.002,-0.006,-0.012,0.012,1.0,0.786,0.228,-0.55
192,0.002,0.0,-0.007,-0.01,0.013,1.001,0.79,0.238,-0.552
193,0.003,-0.002,-0.005,-0.008,0.015,1.0,0.79,0.238,-0.552
194,0.003,-0.004,-0.005,-0.009,0.014,0.998,0.778,0.234,-0.535
195,0.003,-0.004,-0.005,-0.008,0.013,0.999,0.771,0.255,-0.541
196,0.002,-0.002,-0.006,-0.009,0.012,1.0,0.784,0.243,-0.55
197,0.002,-0.002,-0.007,-0.011,0.011,0.999,0.769,0.249,-0.538
198,0.002,-0.002,-0.005,-0.011,0.012,0.998,0.772,0.232,-0.547
199,0.003,0.0,-0.006,-0.009,0.012,0.998,0.774,0.246,-0.534
200,0.003,-0.001,-0.007,-0.009,0.012,0.999,0.774,0.246,-0.534
201,0.003,-0.001,-0.006,-0.012,0.011,1.001,0.783,0.253,-0.537
202,0.002,-0.002,-0.004,-0.012,0.011,1.0,0.783,0.253,-0.558
203,0.002,0.004,-0.007,-0.009,0.013,1.001,0.768,0.231,-0.537
204,0.003,0.0,-0.006,-0.009,0.012,1.001,0.781,0.241,-0.537
205,0.003,-0.002,-0.006,-0.01,0.011,1.001,0.778,0.249,-0.549
206,0.004,0.0,-0.006,-0.012,0.012,0.998,0.781,0.244,-0.54
207,0.002,-0.001,-0.005,-0.012,0.013,0.996,0.781,0.244,-0.54
208,0.003,-0.001,-0.006,-0.01,0.014,0.998,0.772,0.243,-0.553
209,0.003,-0.001,-0.005,-0.01,0.013,1.0,0.783,0.243,-0.54
210,0.002,-0.008,-0.004,-0.01,0.013,1.0,0.76,0.255,-0.562
211,0.002,-0.004,-0.005,-0.009,0.013,0.999,0.76,0.255,-0.562
212,0.002,0.0,-0.006,-0.009,0.013,0.998,0.78,0.247,-0.546
213,0.003,-0.002,-0.006,-0.011,0.014,1.0,0.783,0.243,-0.553
214,0.003,-0.002,-0.006,-0.01,0.014,1.001,0.783,0.243,-0.553
215,0.003,-0.002,-0.006,-0.011,0.014,0.999,0.778,0.234,-0.55
216,0.002,-0.002,-0.006,-0.012,0.015,0.999,0.78,0.267,-0.549
217,0.002,0.0,-0.005,-0.01,0.013,0.999,0.769,0.261,-0.546
218,0.001,-0.001,-0.005,-0.008,0.013,0.998,0.778,0.238,-0.558
219,0.002,-0.003,-0.006,-0.008,0.013,0.997,0.781,0.267,-0.549
220,0.002,-0.002,-0.007,-0.011,0.01,0.998,0.777,0.241,-0.544
221,0.002,-0.002,-0.007,-0.011,0.011,0.998,0.777,0.241,-0.544
222,0.003,-0.001,-0.006,-0.008,0.011,1.0,0.787,0.234,-0.555
223,0.004,0.0,-0.006,-0.009,0.011,1.002,0.766,0.264,-0.55
224,0.002,0.0,-0.006,-0.012,0.013,1.0,0.772,0.238,-0.537
225,0.003,0.0,-0.007,-0.013,0.014,1.0,0.777,0.232,-0.553
226,0.003,-0.002,-0.006,-0.012,0.012,0.999,0.777,0.249,-0.535
227,0.002,-0.002,-0.006,-0.009,0.012,1.001,0.777,0.249,-0.535
228,0.002,-0.002,-0.006,-0.009,0.012,1.001,0.78,0.246,-0.541
229,0.002,-0.002,-0.007,-0.008,0.013,1.001,0.76,0.235,-0.55
230,0.002,-0.001,-0.006,-0.008,0.013,1.0,0.783,0.256,-0.555
231,0.002,-0.002,-0.006,-0.008,0.013,0.999,0.76,0.255,-0.544
232,0.002,-0.002,-0.006,-0.009,0.013,0.999,0.784,0.238,-0.549
233,0.002,-0.002,-0.006,-0.01,0.015,1.0,0.795,0.247,-0.544
234,0.002,-0.003,-0.006,-0.01,0.013,1.0,0.795,0.247,-0.544
235,0.002,-0.003,-0.006,-0.01,0.013,1.0,0.775,0.235,-0.528
236,0.003,-0.002,-0.005,-0.012,0.015,1.001,0.778,0.249,-0.537
237,0.003,-0.001,-0.006,-0.012,0.015,1.001,0.799,0.232,-0.538
238,0.001,-0.001,-0.006,-0.01,0.015,1.0,0.763,0.232,-0.544
239,0.003,-0.001,-0.006,-0.01,0.013,1.0,0.778,0.234,-0.552
240,0.002,-0.002,-0.005,-0.008,0.014,0.999,0.778,0.234,-0.552
241,0.004,-0.003,-0.006,-0.008,0.015,1.0,0.766,0.246,-0.54
242,0.002,-0.004,-0.006,-0.011,0.014,1.001,0.793,0.256,-0.544
243,0.002,-0.003,-0.007,-0.011,0.016,1.002,0.775,0.241,-0.531
244,0.003,-0.002,-0.006,-0.01,0.015,0.999,0.769,0.243,-0.556
245,0.004,-0.001,-0.007,-0.011,0.014,0.999,0.772,0.229,-0.546
246,0.003,-0.001,-0.006,-0.011,0.015,1.0,0.768,0.253,-0.537
247,0.002,-0.002,-0.007,-0.011,0.015,0.999,0.768,0.253,-0.537
248,0.002,-0.002,-0.007,-0.011,0.015,0.999,0.778,0.256,-0.543
249,0.003,-0.001,-0.006,-0.01,0.017,1.0,0.781,0.228,-0.541
250,0.002,-0.002,-0.006,-0.01,0.015,1.001,0.778,0.247,-0.544
251,0.003,-0.004,-0.006,-0.011,0.013,0.999,0.783,0.252,-0.544
252,0.003,-0.004,-0.006,-0.012,0.015,0.999,0.757,0.255,-0.52
253,0.002,-0.002,-0.006,-0.011,0.016,1.0,0.756,0.246,-0.547
254,0.001,-0.002,-0.007,-0.011,0.014,1.0,0.756,0.246,-0.547
255,0.002,-0.001,-0.006,-0.011,0.012,0.999,0.769,0.237,-0.543
256,0.003,0.0,-0.007,-0.01,0.012,0.999,0.778,0.241,-0.54
257,0.002,-0.002,-0.006,-0.01,0.014,1.0,0.756,0.241,-0.556
258,0.003,-0.002,-0.005,-0.014,0.014,1.0,0.786,0.24,-0.532
259,0.001,0.006,-0.007,-0.012,0.012,1.001,0.766,0.231,-0.558
260,0.002,0.0,-0.007,-0.011,0.013,1.002,0.789,0.24,-0.532
261,0.003,-0.004,-0.006,-0.011,0.014,1.0,0.789,0.24,-0.532
262,0.002,-0.002,-0.006,-0.011,0.013,0.998,0.772,0.238,-0.538
263,0.002,0.0,-0.005,-0.013,0.013,1.001,0.774,0.243,-0.531
264,0.003,-0.001,-0.007,-0.012,0.013,1.001,0.772,0.24,-0.556
265,0.002,-0.001,-0.007,-0.01,0.012,1.0,0.772,0.235,-0.547
266,0.002,-0.007,-0.005,-0.01,0.012,1.0,0.784,0.246,-0.544
267,0.002,-0.004,-0.006,-0.01,0.012,1.0,0.763,0.249,-0.553
268,0.001,-0.001,-0.007,-0.01,0.014,0.999,0.763,0.249,-0.553
269,0.002,-0.002,-0.006,-0.01,0.014,0.999,0.78,0.237,-0.559
270,0.002,-0.002,-0.005,-0.01,0.014,0.999,0.775,0.237,-0.561
271,0.002,-0.002,-0.006,-0.011,0.015,1.0,0.774,0.234,-0.544
272,0.002,-0.002,-0.006,-0.013,0.013,0.998,0.777,0.237,-0.54
273,0.002,-0.001,-0.005,-0.011,0.014,0.999,0.778,0.247,-0.553
274,0.002,0.0,-0.004,-0.007,0.015,1.0,0.78,0.238,-0.532
275,0.002,0.0,-0.005,-0.007,0.014,0.999,0.78,0.238,-0.532
276,0.002,-0.003,-0.005,-0.01,0.013,1.0,0.781,0.255,-0.541
277,0.002,-0.002,-0.006,-0.009,0.013,1.0,0.774,0.228,-0.534
278,0.002,0.0,-0.006,-0.01,0.013,1.0,0.786,0.253,-0.552
279,0.002,-0.002,-0.006,-0.011,0.014,1.0,0.771,0.24,-0.553
280,0.0,-0.004,-0.005,-0.01,0.013,0.999,0.769,0.226,-0.51
281,0.002,-0.002,-0.005,-0.01,0.012,0.999,0.792,0.25,-0.538
282,0.004,-0.001,-0.006,-0.011,0.015,1.0,0.792,0.25,-0.538
283,0.003,-0.004,-0.005,-0.009,0.016,0.999,0.783,0.241,-0.54
284,0.002,-0.003,-0.006,-0.008,0.014,0.998,0.778,0.235,-0.556
285,0.002,-0.002,-0.005,-0.01,0.013,0.998,0.772,0.244,-0.556
286,0.002,-0.002,-0.005,-0.01,0.014,1.0,0.784,0.243,-0.555
287,0.0,-0.002,-0.005,-0.01,0.014,1.0,0.783,0.237,-0.546
288,0.001,-0.003,-0.005,-0.01,0.013,1.001,0.777,0.246,-0.543
289,0.001,-0.003,-0.005,-0.01,0.012,1.002,0.777,0.246,-0.543
290,0.003,-0.002,-0.005,-0.01,0.013,1.0,0.76,0.244,-0.541
291,0.003,-0.001,-0.006,-0.011,0.014,0.998,0.775,0.234,-0.55
292,0.003,-0.001,-0.006,-0.009,0.014,0.999,0.775,0.262,-0.546
293,0.002,-0.002,-0.005,-0.009,0.016,1.0,0.774,0.244,-0.547
294,0.003,-0.002,-0.005,-0.01,0.016,1.002,0.772,0.241,-0.528
295,0.004,-0.002,-0.006,-0.01,0.014,1.0,0.771,0.267,-0.522
296,0.002,0.0,-0.007,-0.009,0.012,0.998,0.771,0.267,-0.522
297,0.002,-0.001,-0.005,-0.008,0.013,1.001,0.781,0.243,-0.553
298,0.002,0.0,-0.006,-0.008,0.013,1.001,0.789,0.232,-0.541
299,0.002,-0.003,-0.006,-0.007,0.013,0.999,0.76,0.237,-0.559
300,0.003,-0.001,-0.006,-0.009,0.013,0.999,0.771,0.238,-0.543
301,0.003,-0.001,-0.006,-0.011,0.013,0.999,0.777,0.229,-0.537
302,0.002,-0.002,-0.007,-0.013,0.013,0.998,0.787,0.238,-0.556
303,0.002,-0.002,-0.007,-0.013,0.013,0.999,0.787,0.238,-0.556
304,0.002,-0.003,-0.005,-0.013,0.014,1.0,0.781,0.259,-0.547
305,0.003,0.0,-0.006,-0.012,0.016,1.0,0.778,0.246,-0.555
306,0.002,-0.001,-0.007,-0.012,0.016,1.0,0.775,0.228,-0.57
307,0.002,0.0,-0.005,-0.011,0.016,0.999,0.789,0.243,-0.559
308,0.002,-0.002,-0.006,-0.011,0.014,1.001,0.781,0.241,-0.531
309,0.002,-0.003,-0.005,-0.011,0.013,1.003,0.762,0.243,-0.541
310,0.002,-0.003,-0.005,-0.011,0.013,1.001,0.762,0.243,-0.541
311,0.002,-0.002,-0.005,-0.01,0.013,1.001,0.769,0.256,-0.537
312,0.002,0.0,-0.007,-0.012,0.012,1.001,0.784,0.24,-0.582
313,0.002,-0.002,-0.007,-0.012,0.011,1.001,0.762,0.229,-0.552
314,0.003,-0.002,-0.006,-0.009,0.011,1.002,0.771,0.246,-0.544
315,0.004,-0.002,-0.007,-0.01,0.013,1.003,0.774,0.244,-0.541
316,0.004,-0.001,-0.007,-0.011,0.013,1.0,0.786,0.261,-0.549
317,0.002,-0.001,-0.006,-0.01,0.012,1.0,0.786,0.261,-0.549
318,0.002,-0.002,-0.006,-0.008,0.012,1.0,0.769,0.24,-0.549
319,0.002,0.0,-0.006,-0.01,0.013,1.001,0.768,0.25,-0.556
320,0.002,-0.002,-0.006,-0.01,0.012,1.001,0.765,0.241,-0.55
321,0.002,-0.002,-0.007,-0.009,0.014,1.001,0.777,0.232,-0.547
322,0.002,0.001,-0.007,-0.011,0.014,1.001,0.774,0.247,-0.531
323,0.003,-0.001,-0.006,-0.012,0.013,1.0,0.76,0.217,-0.538
324,0.003,-0.004,-0.006,-0.011,0.013,0.998,0.76,0.217,-0.538
325,0.002,-0.002,-0.006,-0.011,0.012,0.999,0.774,0.249,-0.54
326,0.002,-0.002,-0.005,-0.011,0.011,1.0,0.757,0.231,-0.55
327,0.002,-0.002,-0.004,-0.011,0.011,1.0,0.786,0.231,-0.532
328,0.003,-0.001,-0.006,-0.011,0.012,0.999,0.763,0.252,-0.552
329,0.002,-0.001,-0.006,-0.011,0.014,0.999,0.756,0.261,-0.544
330,0.002,-0.001,-0.006,-0.011,0.016,0.999,0.781,0.249,-0.541
331,0.004,0.0,-0.007,-0.011,0.015,0.999,0.781,0.249,-0.541
332,0.002,0.0,-0.007,-0.009,0.013,0.999,0.781,0.225,-0.555
333,0.002,-0.001,-0.006,-0.01,0.013,1.0,0.751,0.255,-0.55
334,0.003,-0.001,-0.006,-0.013,0.013,1.0,0.781,0.237,-0.534
335,0.002,-0.001,-0.005,-0.01,0.012,1.0,0.783,0.264,-0.54
336,0.001,-0.002,-0.005,-0.01,0.012,1.0,0.777,0.237,-0.541
337,0.001,-0.001,-0.005,-0.011,0.013,0.998,0.781,0.259,-0.543
338,0.002,-0.003,-0.005,-0.01,0.014,0.997,0.781,0.259,-0.543
339,0.002,-0.002,-0.006,-0.009,0.014,0.998,0.786,0.246,-0.538
340,0.002,0.0,-0.006,-0.009,0.011,1.0,0.768,0.246,-0.547
341,0.002,-0.001,-0.005,-0.009,0.011,0.999,0.784,0.24,-0.561
342,0.002,-0.002,-0.006,-0.008,0.011,0.998,0.793,0.25,-0.556
343,0.004,0.0,-0.006,-0.009,0.013,0.998,0.771,0.247,-0.54
344,0.002,-0.001,-0.006,-0.01,0.014,1.0,0.769,0.246,-0.535
345,0.003,-0.001,-0.006,-0.009,0.012,0.999,0.769,0.246,-0.535
346,0.003,0.0,-0.007,-0.009,0.012,0.999,0.766,0.243,-0.546
347,0.002,-0.002,-0.006,-0.01,0.012,0.999,0.79,0.249,-0.558
348,0.002,-0.002,-0.005,-0.008,0.011,1.0,0.78,0.234,-0.532
349,0.003,-0.001,-0.007,-0.009,0.013,1.0,0.778,0.262,-0.553
350,0.002,-0.001,-0.006,-0.011,0.015,0.999,0.772,0.225,-0.538
351,0.002,-0.001,-0.006,-0.012,0.015,1.0,0.78,0.271,-0.543
352,0.002,0.0,-0.006,-0.012,0.014,1.001,0.78,0.271,-0.543
353,0.002,-0.002,-0.005,-0.011,0.013,1.0,0.766,0.24,-0.543
354,0.003,-0.002,-0.006,-0.01,0.014,1.0,0.777,0.25,-0.538
355,0.002,-0.002,-0.006,-0.008,0.014,1.001,0.78,0.259,-0.535
356,0.002,0.0,-0.007,-0.01,0.013,1.0,0.765,0.247,-0.535
357,0.002,0.002,-0.007,-0.009,0.013,1.0,0.768,0.246,-0.523
358,0.002,0.0,-0.007,-0.008,0.014,1.001,0.771,0.249,-0.538
359,0.004,-0.001,-0.007,-0.011,0.013,1.0,0.771,0.249,-0.538
360,0.003,-0.002,-0.006,-0.012,0.013,1.0,0.787,0.24,-0.555
361,0.003,-0.002,-0.005,-0.013,0.012,1.0,0.772,0.247,-0.54
362,0.002,-0.002,-0.004,-0.012,0.012,1.0,0.766,0.234,-0.532
363,0.003,-0.002,-0.006,-0.01,0.013,1.002,0.762,0.25,-0.541
364,0.004,0.0,-0.007,-0.011,0.013,1.003,0.771,0.234,-0.552
365,0.003,-0.001,-0.006,-0.011,0.012,1.002,0.771,0.234,-0.552
366,0.002,-0.002,-0.005,-0.009,0.012,1.0,0.774,0.243,-0.544
367,0.003,-0.002,-0.005,-0.009,0.012,1.0,0.795,0.249,-0.552
368,0.002,-0.002,-0.005,-0.01,0.012,0.999,0.786,0.243,-0.523
369,0.002,-0.002,-0.006,-0.01,0.013,0.998,0.774,0.223,-0.555
370,0.002,-0.002,-0.006,-0.01,0.015,0.998,0.787,0.24,-0.556
371,0.003,0.0,-0.006,-0.01,0.015,0.998,0.772,0.249,-0.537
372,0.002,-0.001,-0.006,-0.011,0.011,0.999,0.772,0.249,-0.537
373,0.002,0.0,-0.005,-0.013,0.011,1.001,0.771,0.232,-0.537
374,0.002,-0.001,-0.005,-0.014,0.013,1.002,0.769,0.24,-0.546
375,0.002,-0.001,-0.005,-0.012,0.012,1.001,0.796,0.228,-0.54
376,0.002,-0.002,-0.007,-0.01,0.014,0.999,0.778,0.243,-0.543
377,0.002,-0.001,-0.007,-0.011,0.014,0.998,0.781,0.238,-0.555
378,0.003,-0.004,-0.006,-0.011,0.014,0.999,0.762,0.249,-0.528
379,0.003,-0.002,-0.006,-0.012,0.013,1.0,0.762,0.249,-0.528
380,0.002,0.0,-0.006,-0.011,0.011,1.0,0.786,0.249,-0.55
381,0.002,0.0,-0.007,-0.011,0.012,1.0,0.762,0.237,-0.55
382,0.003,-0.002,-0.007,-0.011,0.014,1.0,0.796,0.247,-0.546
383,0.002,-0.002,-0.006,-0.011,0.015,1.001,0.777,0.231,-0.543
384,0.002,0.0,-0.006,-0.011,0.015,1.001,0.781,0.246,-0.565
385,0.005,-0.001,-0.005,-0.012,0.013,0.999,0.789,0.243,-0.522
386,0.003,0.0,-0.006,-0.01,0.012,0.997,0.789,0.243,-0.522
387,0.002,-0.001,-0.007,-0.009,0.013,0.998,0.769,0.252,-0.541
388,0.002,-0.002,-0.006,-0.009,0.016,0.999,0.775,0.246,-0.55
389,0.002,-0.002,-0.006,-0.01,0.016,0.999,0.775,0.256,-0.555
390,0.002,-0.002,-0.006,-0.01,0.014,1.0,0.772,0.243,-0.552
391,0.003,-0.002,-0.006,-0.01,0.012,1.0,0.79,0.225,-0.54
392,0.002,-0.001,-0.006,-0.01,0.012,1.001,0.786,0.258,-0.526
393,0.002,-0.002,-0.006,-0.013,0.013,1.0,0.786,0.258,-0.526
394,0.002,-0.001,-0.004,-0.011,0.015,0.999,0.753,0.238,-0.558
395,0.003,0.0,-0.005,-0.009,0.015,0.999,0.796,0.253,-0.549
396,0.002,0.0,-0.006,-0.009,0.014,1.0,0.784,0.243,-0.543
397,0.002,-0.002,-0.006,-0.01,0.011,0.998,0.766,0.228,-0.538
398,0.002,-0.001,-0.006,-0.011,0.011,0.999,0.781,0.25,-0.541
399,0.003,0.0,-0.006,-0.011,0.015,1.001,0.768,0.234,-0.529
400,0.003,-0.001,-0.005,-0.009,0.015,0.999,0.768,0.234,-0.529
401,0.003,-0.002,-0.006,-0.009,0.014,0.998,0.769,0.247,-0.556
402,0.002,-0.002,-0.006,-0.009,0.013,0.999,0.777,0.228,-0.537
403,0.002,-0.004,-0.006,-0.01,0.01,1.0,0.772,0.244,-0.529
404,0.002,-0.003,-0.006,-0.01,0.012,1.002,0.775,0.238,-0.531
405,0.003,-0.001,-0.006,-0.01,0.012,1.002,0.766,0.249,-0.537
406,0.002,-0.004,-0.006,-0.009,0.015,1.001,0.762,0.261,-0.534
407,0.002,-0.005,-0.006,-0.008,0.014,0.999,0.784,0.258,-0.535
408,0.002,-0.005,-0.006,-0.009,0.014,0.999,0.784,0.258,-0.535
409,0.003,-0.001,-0.006,-0.011,0.013,1.001,0.756,0.247,-0.544
410,0.002,0.0,-0.006,-0.011,0.013,1.001,0.802,0.25,-0.546
411,0.002,0.0,-0.006,-0.01,0.014,1.0,0.772,0.249,-0.552
412,0.002,0.0,-0.007,-0.012,0.013,0.999,0.78,0.253,-0.547
413,0.001,-0.004,-0.006,-0.01,0.012,1.0,0.78,0.241,-0.549
414,0.002,-0.002,-0.006,-0.01,0.012,0.998,0.772,0.24,-0.547
415,0.003,-0.002,-0.006,-0.011,0.015,0.998,0.772,0.24,-0.547
416,0.002,-0.001,-0.006,-0.01,0.016,0.999,0.768,0.228,-0.544
417,0.002,-0.001,-0.007,-0.01,0.014,0.999,0.772,0.259,-0.55
418,0.002,0.0,-0.007,-0.011,0.014,0.999,0.79,0.232,-0.555
419,0.003,-0.001,-0.007,-0.012,0.013,0.999,0.787,0.232,-0.55
420,0.003,-0.001,-0.006,-0.01,0.012,0.999,0.766,0.237,-0.535
421,0.002,-0.002,-0.005,-0.01,0.013,0.999,0.766,0.241,-0.546
422,0.002,-0.002,-0.005,-0.013,0.014,0.999,0.766,0.241,-0.546
423,0.002,-0.002,-0.004,-0.013,0.01,0.999,0.78,0.247,-0.55
424,0.002,-0.002,-0.006,-0.013,0.01,0.999,0.771,0.243,-0.553
425,0.003,-0.001,-0.006,-0.012,0.01,0.999,0.792,0.247,-0.535
426,0.002,-0.001,-0.006,-0.01,0.012,0.999,0.766,0.235,-0.534
427,0.002,-0.002,-0.006,-0.01,0.014,1.0,0.754,0.226,-0.541
428,0.002,-0.002,-0.006,-0.01,0.013,1.0,0.795,0.244,-0.537
429,0.002,-0.004,-0.006,-0.01,0.013,1.001,0.795,0.244,-0.537
430,0.002,-0.004,-0.005,-0.008,0.013,1.001,0.777,0.247,-0.549
431,0.002,-0.002,-0.007,-0.009,0.013,0.999,0.762,0.247,-0.543
432,0.002,-0.002,-0.006,-0.009,0.013,0.998,0.783,0.252,-0.546
433,0.002,-0.002,-0.005,-0.009,0.014,0.997,0.786,0.234,-0.559
434,0.001,0.004,-0.006,-0.009,0.015,0.997,0.792,0.252,-0.526
435,0.003,0.0,-0.007,-0.008,0.014,0.997,0.78,0.228,-0.535
436,0.003,-0.001,-0.005,-0.01,0.014,0.999,0.78,0.228,-0.535
437,0.002,-0.002,-0.005,-0.01,0.014,1.0,0.78,0.24,-0.559
438,0.002,-0.002,-0.006,-0.01,0.012,1.0,0.79,0.252,-0.538
439,0.002,-0.002,-0.007,-0.008,0.013,0.998,0.768,0.24,-0.555
440,0.002,-0.002,-0.005,-0.006,0.013,0.998,0.79,0.249,-0.555
441,0.003,-0.003,-0.006,-0.009,0.014,0.998,0.777,0.241,-0.522
442,0.002,-0.002,-0.006,-0.012,0.015,0.998,0.769,0.246,-0.547
443,0.002,-0.002,-0.006,-0.012,0.014,0.999,0.769,0.246,-0.547
444,0.003,0.0,-0.006,-0.012,0.014,0.999,0.769,0.228,-0.54
445,0.003,-0.002,-0.005,-0.011,0.013,1.0,0.774,0.249,-0.531
446,0.002,-0.001,-0.005,-0.01,0.015,0.998,0.778,0.258,-0.541
447,0.002,-0.001,-0.006,-0.01,0.016,0.998,0.771,0.262,-0.552
448,0.002,-0.001,-0.006,-0.01,0.014,1.0,0.769,0.256,-0.535
449,0.004,-0.003,-0.006,-0.012,0.013,1.0,0.789,0.235,-0.538
450,0.002,-0.001,-0.006,-0.011,0.012,1.0,0.789,0.235,-0.538
451,0.002,-0.003,-0.006,-0.008,0.012,1.002,0.775,0.237,-0.537
452,0.002,-0.003,-0.005,-0.01,0.013,1.0,0.796,0.235,-0.552
453,0.002,-0.002,-0.004,-0.011,0.014,0.999,0.757,0.241,-0.547
454,0.003,-0.002,-0.005,-0.01,0.013,0.998,0.795,0.241,-0.541
455,0.007,-0.003,-0.005,-0.01,0.014,0.997,0.748,0.25,-0.534
456,0.005,-0.002,-0.007,-0.01,0.016,0.998,0.778,0.241,-0.553
457,0.003,-0.002,-0.007,-0.011,0.014,0.998,0.778,0.241,-0.553
458,0.002,-0.002,-0.007,-0.012,0.014,0.999,0.774,0.252,-0.552
459,0.002,-0.002,-0.006,-0.01,0.013,1.0,0.777,0.249,-0.558
460,0.002,-0.002,-0.005,-0.01,0.013,1.0,0.781,0.247,-0.555
461,0.002,-0.001,-0.006,-0.01,0.014,1.0,0.774,0.249,-0.535
462,0.002,0.002,-0.007,-0.01,0.014,0.999,0.771,0.247,-0.556
463,0.002,0.0,-0.006,-0.011,0.014,0.999,0.763,0.241,-0.534
464,0.002,-0.002,-0.005,-0.012,0.012,0.999,0.763,0.241,-0.534
465,0.002,-0.002,-0.006,-0.011,0.013,0.999,0.78,0.25,-0.549
466,0.004,0.0,-0.005,-0.01,0.016,0.998,0.784,0.253,-0.561
467,0.003,-0.002,-0.006,-0.011,0.017,0.998,0.768,0.24,-0.568
468,0.003,-0.002,-0.006,-0.011,0.015,0.999,0.781,0.249,-0.54
469,0.003,-0.003,-0.006,-0.009,0.017,0.999,0.757,0.235,-0.544
470,0.002,-0.003,-0.006,-0.01,0.015,0.999,0.768,0.258,-0.553
471,0.002,-0.001,-0.005,-0.011,0.013,0.998,0.768,0.258,-0.553
472,0.002,-0.001,-0.006,-0.009,0.015,0.998,0.768,0.243,-0.552
473,0.002,-0.002,-0.006,-0.009,0.013,1.0,0.774,0.25,-0.541
474,0.002,-0.002,-0.007,-0.008,0.014,1.0,0.781,0.247,-0.543
475,0.002,-0.002,-0.006,-0.009,0.014,0.999,0.777,0.246,-0.541
476,0.004,0.003,-0.007,-0.011,0.014,0.999,0.778,0.264,-0.54
477,0.002,0.0,-0.007,-0.01,0.013,1.001,0.769,0.259,-0.532
478,0.002,-0.001,-0.005,-0.011,0.014,1.001,0.769,0.259,-0.532
479,0.002,-0.002,-0.005,-0.01,0.016,1.001,0.781,0.249,-0.54
480,0.002,-0.001,-0.005,-0.01,0.015,1.0,0.781,0.252,-0.547
481,0.002,-0.001,-0.007,-0.011,0.015,0.999,0.778,0.244,-0.555
482,0.003,-0.001,-0.007,-0.012,0.014,1.001,0.792,0.237,-0.546
483,0.004,0.004,-0.007,-0.012,0.014,1.001,0.768,0.244,-0.544
484,0.004,-0.002,-0.007,-0.011,0.012,1.0,0.774,0.225,-0.535
485,0.002,-0.003,-0.006,-0.011,0.012,1.001,0.774,0.225,-0.535
486,0.002,0.0,-0.006,-0.013,0.013,1.0,0.765,0.241,-0.541
487,0.002,-0.002,-0.006,-0.011,0.013,0.999,0.784,0.237,-0.544
488,0.002,-0.002,-0.006,-0.009,0.013,0.999,0.771,0.253,-0.544
489,0.002,-0.003,-0.006,-0.008,0.015,1.0,0.778,0.259,-0.537
490,0.002,-0.002,-0.005,-0.011,0.017,1.002,0.78,0.25,-0.555
491,0.001,-0.001,-0.005,-0.013,0.014,1.002,0.793,0.252,-0.559
492,0.002,0.0,-0.007,-0.01,0.013,1.0,0.793,0.252,-0.559
493,0.003,0.0,-0.007,-0.009,0.013,1.0,0.784,0.241,-0.544
494,0.002,0.0,-0.007,-0.01,0.012,1.002,0.777,0.246,-0.556
495,0.002,-0.002,-0.006,-0.012,0.014,1.001,0.78,0.249,-0.562
496,0.003,-0.002,-0.006,-0.012,0.016,1.001,0.792,0.24,-0.568
497,0.004,0.001,-0.006,-0.012,0.015,1.002,0.781,0.246,-0.528
498,0.004,-0.001,-0.007,-0.012,0.013,1.001,0.777,0.268,-0.534
499,0.004,-0.002,-0.007,-0.01,0.013,0.999,0.777,0.268,-0.534
500,0.003,-0.002,-0.006,-0.011,0.013,0.998,0.771,0.247,-0.556
501,0.002,-0.002,-0.007,-0.012,0.012,1.0,0.792,0.243,-0.559
502,0.002,-0.002,-0.007,-0.011,0.012,1.002,0.774,0.255,-0.574
503,0.002,-0.002,-0.005,-0.011,0.012,1.002,0.79,0.24,-0.546
504,0.004,0.0,-0.005,-0.009,0.015,1.0,0.78,0.252,-0.549
505,0.004,0.0,-0.006,-0.01,0.015,0.999,0.786,0.244,-0.553
506,0.004,0.0,-0.006,-0.009,0.015,1.001,0.786,0.244,-0.553
507,0.002,-0.002,-0.006,-0.009,0.015,1.001,0.774,0.231,-0.549
508,0.002,-0.002,-0.006,-0.011,0.015,1.001,0.757,0.255,-0.541
509,0.002,-0.002,-0.006,-0.01,0.013,0.999,0.781,0.244,-0.553
510,0.002,-0.002,-0.005,-0.011,0.014,0.999,0.768,0.237,-0.543
511,0.005,-0.002,-0.006,-0.012,0.016,0.998,0.768,0.255,-0.534
512,0.003,-0.002,-0.005,-0.011,0.015,0.999,0.775,0.244,-0.546
513,0.002,-0.001,-0.005,-0.011,0.013,0.999,0.775,0.244,-0.546
514,0.004,-0.001,-0.006,-0.011,0.013,0.997,0.783,0.256,-0.552
515,0.004,-0.002,-0.006,-0.01,0.014,0.999,0.784,0.27,-0.523
516,0.004,-0.002,-0.006,-0.011,0.012,1.0,0.774,0.238,-0.544
517,0.002,-0.001,-0.006,-0.01,0.014,0.999,0.771,0.246,-0.556
518,0.0,-0.005,-0.005,-0.011,0.015,1.0,0.775,0.267,-0.543
519,0.002,-0.003,-0.006,-0.012,0.013,1.001,0.769,0.256,-0.549
520,0.002,-0.002,-0.006,-0.01,0.011,1.0,0.769,0.256,-0.549
521,0.002,-0.001,-0.004,-0.011,0.013,1.0,0.78,0.234,-0.541
522,0.002,-0.001,-0.006,-0.01,0.014,1.0,0.786,0.247,-0.546
523,0.004,-0.001,-0.005,-0.01,0.014,1.0,0.777,0.238,-0.559
524,0.002,-0.001,-0.006,-0.012,0.015,1.0,0.774,0.235,-0.544
525,0.0,-0.006,-0.004,-0.015,0.013,0.998,0.78,0.241,-0.525
526,0.0,-0.006,-0.004,-0.013,0.011,0.998,0.774,0.25,-0.535
527,0.0,-0.004,-0.005,-0.01,0.012,0.999,0.774,0.25,-0.535
528,0.001,-0.002,-0.006,-0.008,0.012,0.999,0.768,0.246,-0.553
529,0.002,-0.001,-0.006,-0.009,0.012,0.999,0.787,0.244,-0.55
530,0.004,-0.002,-0.006,-0.01,0.012,0.999,0.771,0.223,-0.553
531,0.003,-0.002,-0.005,-0.009,0.013,1.0,0.78,0.256,-0.525
532,0.002,0.004,-0.007,-0.009,0.015,1.0,0.753,0.252,-0.544
533,0.002,0.001,-0.007,-0.01,0.015,0.998,0.784,0.235,-0.534
534,0.002,0.0,-0.006,-0.009,0.014,0.999,0.784,0.235,-0.534
535,0.002,-0.002,-0.006,-0.009,0.014,0.999,0.781,0.238,-0.547
536,0.003,-0.003,-0.005,-0.012,0.015,0.998,0.766,0.24,-0.55
537,0.003,-0.004,-0.006,-0.012,0.013,0.999,0.78,0.25,-0.55
538,0.004,-0.003,-0.006,-0.01,0.012,0.999,0.771,0.247,-0.532
539,0.002,-0.007,-0.005,-0.01,0.011,0.999,0.768,0.237,-0.531
540,0.002,-0.002,-0.006,-0.01,0.013,1.001,0.783,0.241,-0.543
541,0.002,-0.002,-0.005,-0.011,0.015,1.0,0.783,0.241,-0.543
542,0.003,-0.003,-0.005,-0.011,0.014,0.997,0.769,0.24,-0.573
543,0.003,-0.002,-0.005,-0.011,0.014,0.997,0.786,0.24,-0.543
544,-0.001,0.014,-0.013,-0.01,0.013,0.997,0.751,0.244,-0.535
545,-0.003,0.051,-0.013,0.0,0.011,0.994,0.786,0.241,-0.558
546,-0.002,0.035,-0.027,-0.006,0.015,1.011,0.774,0.241,-0.55
547,-0.002,0.035,-0.027,-0.016,0.018,1.018,0.786,0.246,-0.538
548,-0.002,0.051,-0.039,-0.008,0.018,1.01,0.786,0.246,-0.538
549,0.0,0.002,-0.014,-0.029,0.022,1.014,0.786,0.25,-0.549
550,0.0,-0.02,-0.001,-0.019,0.018,1.005,0.792,0.229,-0.555
551,0.002,-0.014,-0.002,-0.004,0.009,1.0,0.79,0.247,-0.547
552,0.003,-0.014,-0.002,-0.013,0.011,1.002,0.78,0.247,-0.555
553,0.003,-0.016,0.0,-0.009,0.016,1.002,0.784,0.25,-0.541
554,0.002,-0.015,0.0,-0.01,0.016,1.0,0.787,0.231,-0.546
555,0.003,-0.014,0.0,-0.009,0.013,0.997,0.787,0.231,-0.546
556,0.004,-0.011,-0.002,-0.009,0.014,0.997,0.781,0.252,-0.559
557,0.002,-0.01,-0.001,-0.011,0.016,0.998,0.772,0.25,-0.546
558,0.0,-0.012,-0.002,-0.011,0.014,0.999,0.79,0.247,-0.55
559,0.001,-0.005,-0.003,-0.01,0.01,1.0,0.796,0.235,-0.561
560,0.001,-0.002,-0.007,-0.012,0.013,1.001,0.781,0.244,-0.535
561,0.004,0.002,0.004,-0.005,0.017,0.993,0.777,0.252,-0.54
562,0.006,0.004,-0.004,-0.005,0.017,0.993,0.777,0.252,-0.54
563,0.006,0.0,-0.01,-0.015,0.02,0.995,0.777,0.247,-0.54
564,0.005,-0.004,-0.016,-0.019,0.015,1.004,0.771,0.249,-0.537
565,0.006,-0.009,-0.014,-0.014,0.014,1.001,0.766,0.246,-0.55
566,0.005,-0.014,-0.013,-0.015,0.013,1.004,0.765,0.25,-0.546
567,0.005,-0.014,-0.013,-0.011,0.01,1.004,0.798,0.24,-0.547
568,0.005,-0.01,-0.01,-0.004,0.011,1.001,0.766,0.246,-0.558
569,0.004,-0.006,-0.004,-0.008,0.011,1.001,0.766,0.246,-0.558
570,0.005,-0.01,0.002,-0.013,0.013,1.001,0.765,0.253,-0.541
571,0.006,-0.008,0.002,-0.007,0.012,0.999,0.786,0.252,-0.564
572,0.007,-0.003,0.003,-0.007,0.012,0.999,0.775,0.238,-0.553
573,0.007,-0.004,0.0,-0.009,0.013,0.998,0.777,0.213,-0.547
574,0.007,-0.007,0.0,-0.012,0.013,0.997,0.774,0.249,-0.532
575,0.009,-0.007,-0.002,-0.015,0.015,0.999,0.796,0.247,-0.538
576,0.012,-0.014,-0.004,-0.013,0.018,1.001,0.796,0.247,-0.538
577,0.012,-0.014,-0.01,-0.012,0.017,0.999,0.765,0.243,-0.553
578,0.012,-0.009,-0.016,-0.014,0.015,1.001,0.787,0.253,-0.541
579,0.012,-0.019,-0.017,-0.014,0.018,1.003,0.778,0.234,-0.561
580,0.013,-0.018,-0.016,-0.01,0.012,0.996,0.786,0.253,-0.571
581,0.011,-0.004,-0.014,-0.005,0.004,0.993,0.777,0.249,-0.549
582,0.009,-0.004,-0.007,-0.005,0.004,0.993,0.766,0.238,-0.547
583,0.009,-0.01,-0.004,-0.004,0.008,0.999,0.766,0.238,-0.547
584,0.011,-0.016,0.001,-0.007,0.014,1.004,0.762,0.261,-0.537
585,0.015,-0.018,0.004,-0.006,0.015,1.001,0.76,0.244,-0.552
586,0.015,-0.018,0.004,-0.012,0.008,1.0,0.769,0.244,-0.561
587,0.02,-0.013,0.013,-0.011,0.017,0.992,0.783,0.247,-0.546
588,0.022,0.0,-0.003,0.0,-0.005,0.989,0.75,0.24,-0.54
589,0.019,-0.007,-0.004,0.0,-0.022,1.0,0.765,0.25,-0.559
590,0.012,-0.014,-0.018,0.002,0.007,1.007,0.765,0.25,-0.559
591,0.009,-0.011,-0.005,0.006,0.011,1.009,0.774,0.255,-0.549
592,0.008,0.0,0.026,0.002,0.005,1.004,0.783,0.256,-0.552
593,0.008,0.0,0.055,0.0,0.009,0.996,0.78,0.244,-0.561
594,0.009,0.003,0.051,-0.004,0.001,1.01,0.771,0.235,-0.556
595,0.004,-0.007,0.05,-0.007,0.0,1.019,0.795,0.235,-0.549
596,0.002,0.0,0.081,-0.003,0.005,1.004,0.79,0.25,-0.544
597,0.009,-0.007,0.197,0.0,0.008,0.995,0.79,0.25,-0.544
598,0.021,-0.016,0.316,0.043,-0.031,0.981,0.766,0.253,-0.541
599,0.018,-0.01,0.431,0.046,-0.046,0.986,0.775,0.232,-0.553
600,0.038,-0.018,0.672,-0.014,-0.025,0.985,0.762,0.24,-0.543
601,0.004,-0.069,0.964,0.037,-0.066,0.904,0.772,0.235,-0.552
602,-0.025,-0.061,1.197,0.037,-0.066,0.904,0.777,0.244,-0.538
603,0.018,-0.148,1.448,0.085,-0.081,0.965,0.771,0.223,-0.531
604,0.014,-0.242,1.756,0.066,-0.048,0.994,0.771,0.223,-0.531
605,0.003,-0.207,2.183,0.108,-0.128,0.886,0.784,0.219,-0.55
606,0.003,-0.207,2.183,0.059,-0.199,0.978,0.774,0.226,-0.558
607,0.011,0.086,2.517,-0.052,-0.105,0.919,0.789,0.211,-0.555
608,0.044,-0.046,2.734,-0.051,-0.085,0.942,0.802,0.199,-0.562
609,0.005,-0.112,2.751,0.022,-0.107,0.989,0.804,0.171,-0.543
610,0.028,-0.059,2.735,0.046,-0.095,0.966,0.816,0.159,-0.543
611,-0.044,0.038,2.774,0.03,-0.046,0.94,0.816,0.159,-0.543
612,-0.052,0.009,2.909,0.058,0.021,0.8,0.786,0.144,-0.567
613,0.029,-0.181,3.028,0.009,-0.114,0.727,0.802,0.126,-0.564
614,0.021,-0.163,3.166,-0.012,-0.147,0.884,0.792,0.117,-0.561
615,0.058,-0.053,3.319,0.028,-0.147,1.171,0.802,0.099,-0.553
616,-0.013,-0.184,3.48,0.118,-0.129,1.121,0.781,0.073,-0.544
617,-0.039,-0.147,3.741,0.133,0.0,0.827,0.792,0.073,-0.568
618,-0.038,-0.09,4.161,0.045,-0.058,0.77,0.792,0.073,-0.568
619,0.0,-0.075,4.653,0.056,-0.235,1.018,0.786,0.043,-0.565
620,0.031,-0.084,5.24,0.066,-0.411,1.054,0.768,0.037,-0.564
621,0.019,-0.056,5.815,0.066,-0.411,1.054,0.784,0.003,-0.562
622,0.071,-0.042,6.14,-0.049,-0.407,1.212,0.745,-0.024,-0.54
623,-0.004,-0.008,6.146,-0.112,-0.309,1.124,0.73,-0.049,-0.543
624,-0.002,0.013,5.791,-0.161,-0.171,0.883,0.702,-0.057,-0.553
625,-0.002,0.013,5.791,-0.205,-0.001,1.001,0.702,-0.057,-0.553
626,0.0,0.033,5.241,-0.232,0.097,0.999,0.687,-0.088,-0.565
627,-0.022,-0.002,4.675,-0.31,0.2,0.955,0.664,-0.091,-0.55
628,0.046,0.018,4.019,-0.356,0.187,1.179,0.652,-0.09,-0.558
629,0.009,-0.03,3.448,-0.333,0.122,1.115,0.64,-0.118,-0.555
630,0.025,-0.093,3.219,-0.156,0.084,1.041,0.63,-0.108,-0.564
631,0.039,0.06,3.311,-0.012,-0.098,1.267,0.615,-0.123,-0.564
632,0.082,0.044,3.752,-0.006,-0.142,1.307,0.615,-0.123,-0.564
633,0.03,0.017,4.269,-0.059,-0.072,1.451,0.574,-0.135,-0.559
634,0.051,-0.077,4.829,-0.081,-0.069,1.405,0.582,-0.13,-0.538
635,0.053,-0.098,5.333,-0.168,-0.092,1.068,0.531,-0.12,-0.558
636,0.042,-0.056,5.524,-0.243,-0.098,0.905,0.516,-0.123,-0.549
637,0.028,0.056,5.184,-0.267,-0.003,1.047,0.465,-0.118,-0.553
638,0.01,-0.079,4.205,-0.293,0.18,1.011,0.472,-0.123,-0.558
639,0.028,-0.081,2.968,-0.228,0.246,0.952,0.472,-0.123,-0.558
640,-0.002,0.042,2.205,-0.136,0.062,1.189,0.438,-0.102,-0.57
641,0.011,-0.058,2.229,-0.136,0.062,1.189,0.429,-0.121,-0.561
642,-0.004,-0.106,2.659,-0.068,-0.039,1.107,0.42,-0.115,-0.547
643,-0.006,-0.075,3.042,-0.056,-0.055,0.619,0.412,-0.115,-0.543
644,0.004,-0.025,3.131,-0.057,-0.075,0.757,0.393,-0.094,-0.565
645,0.004,-0.025,3.131,-0.076,-0.091,1.106,0.394,-0.082,-0.552
646,0.068,-0.058,2.823,-0.085,-0.157,1.057,0.394,-0.082,-0.552
647,0.08,-0.034,2.215,0.02,-0.055,0.854,0.382,-0.082,-0.57
648,0.039,-0.054,1.556,0.118,0.1,0.752,0.379,-0.073,-0.532
649,0.038,-0.004,1.297,0.197,0.041,0.879,0.375,-0.073,-0.538
650,0.021,-0.042,1.439,0.256,-0.039,0.932,0.358,-0.051,-0.564
651,0.002,-0.07,1.602,0.196,-0.044,0.917,0.354,-0.058,-0.538
652,-0.008,-0.016,1.659,0.043,-0.062,0.942,0.358,-0.06,-0.543
653,-0.016,-0.022,1.573,-0.094,0.003,1.035,0.358,-0.06,-0.543
654,-0.014,-0.014,1.246,-0.157,0.072,1.102,0.333,-0.052,-0.544
655,0.003,-0.017,0.908,-0.145,0.096,1.066,0.334,-0.045,-0.567
656,0.009,0.01,0.445,-0.128,0.12,0.994,0.339,-0.039,-0.561
657,0.011,0.008,0.245,-0.087,0.08,0.992,0.348,-0.033,-0.555
658,0.002,-0.012,0.253,-0.028,0.022,0.981,0.342,-0.046,-0.546
659,0.002,-0.007,0.329,-0.039,-0.017,1.009,0.334,-0.054,-0.55
660,-0.008,-0.034,0.55,0.044,-0.061,1.045,0.334,-0.054,-0.55
661,-0.003,-0.009,0.79,0.044,-0.061,1.045,0.34,-0.034,-0.555
662,-0.019,-0.004,1.11,0.083,-0.111,1.071,0.313,-0.031,-0.537
663,-0.009,-0.064,1.315,0.022,-0.099,1.099,0.345,-0.034,-0.579
664,0.007,-0.086,1.24,0.024,-0.064,0.996,0.337,-0.039,-0.552
665,0.007,-0.086,1.24,0.081,-0.066,0.893,0.315,-0.021,-0.552
666,0.011,-0.014,1.165,0.121,-0.072,0.929,0.319,0.0,-0.565
667,0.007,-0.019,1.045,0.057,-0.003,0.954,0.319,0.0,-0.565
668,-0.004,0.017,1.01,0.011,0.04,1.053,0.322,-0.012,-0.552
669,0.014,0.002,1.115,-0.054,0.032,1.13,0.316,-0.028,-0.552
670,-0.004,-0.018,1.221,-0.098,0.022,0.982,0.313,-0.018,-0.546
671,-0.005,-0.018,1.319,-0.013,0.019,0.966,0.313,-0.006,-0.559
672,0.0,-0.046,1.406,0.086,-0.018,0.955,0.285,0.016,-0.537
673,-0.005,-0.025,1.37,0.044,-0.015,0.96,0.282,0.018,-0.546
674,0.0,0.019,1.305,-0.088,0.061,1.137,0.282,0.018,-0.546
675,0.021,-0.041,1.171,-0.096,0.076,1.028,0.298,0.013,-0.559
676,0.017,-0.011,0.96,-0.077,0.109,1.006,0.303,0.042,-0.552
677,0.007,0.026,0.697,-0.107,0.135,1.078,0.31,0.033,-0.553
678,0.004,0.025,0.533,-0.111,0.114,1.034,0.292,0.039,-0.555
679,0.007,0.036,0.478,-0.111,0.114,1.034,0.277,0.039,-0.528
680,0.007,0.016,0.332,-0.17,0.13,1.055,0.295,0.043,-0.537
681,0.002,-0.009,0.219,-0.22,0.101,1.03,0.295,0.043,-0.537
682,0.0,-0.001,0.137,-0.129,0.029,1.012,0.297,0.033,-0.549
683,0.002,0.004,0.054,-0.091,0.05,0.998,0.286,0.03,-0.543
684,0.0,0.002,0.001,-0.079,0.049,0.991,0.304,0.049,-0.562
685,0.0,0.002,0.001,-0.032,0.019,1.001,0.292,0.031,-0.565
686,-0.002,-0.002,-0.021,-0.026,0.016,1.002,0.276,0.034,-0.535
687,-0.006,-0.004,-0.034,-0.019,0.012,1.002,0.294,0.058,-0.561
688,-0.004,-0.003,-0.037,-0.01,0.01,1.002,0.294,0.058,-0.561
689,-0.002,0.001,-0.035,-0.006,0.01,0.997,0.285,0.036,-0.552
690,-0.002,0.001,-0.026,-0.008,0.006,0.997,0.285,0.028,-0.537
691,0.0,0.001,-0.018,-0.011,0.009,1.0,0.292,0.03,-0.559
692,0.0,0.006,-0.016,-0.011,0.009,0.999,0.288,0.025,-0.562
693,-0.004,0.007,-0.02,-0.009,0.007,0.997,0.292,0.04,-0.535
694,-0.007,0.016,-0.037,-0.009,0.008,0.996,0.282,0.04,-0.562
695,-0.006,0.019,-0.057,-0.01,0.008,0.997,0.282,0.04,-0.562
696,-0.004,0.012,-0.056,-0.013,0.009,0.999,0.303,0.027,-0.544
697,-0.003,0.011,-0.049,-0.01,0.011,1.0,0.295,0.046,-0.562
698,-0.003,0.014,-0.051,-0.007,0.012,1.002,0.285,0.049,-0.552
699,-0.002,0.018,-0.073,-0.002,0.009,1.001,0.289,0.049,-0.546
700,-0.003,0.001,-0.103,-0.002,0.009,1.001,0.289,0.049,-0.535
701,-0.002,0.004,-0.121,-0.011,0.015,1.008,0.313,0.045,-0.577
702,0.001,0.007,-0.089,-0.023,0.013,1.009,0.313,0.045,-0.577
703,0.002,0.002,-0.047,-0.023,0.009,0.996,0.295,0.042,-0.553
704,0.0,-0.004,-0.024,-0.027,0.01,0.996,0.292,0.055,-0.534
705,0.0,-0.004,-0.024,-0.025,0.011,1.0,0.294,0.031,-0.549
706,-0.001,-0.004,-0.016,-0.017,0.014,1.0,0.285,0.042,-0.55
707,0.0,0.0,-0.014,-0.012,0.012,0.998,0.288,0.03,-0.57
708,0.0,0.004,-0.016,-0.011,0.01,0.998,0.303,0.033,-0.546
709,0.001,0.007,-0.018,-0.013,0.01,0.998,0.303,0.033,-0.546
710,-0.001,0.01,-0.034,-0.018,0.012,1.001,0.286,0.027,-0.555
711,-0.003,0.012,-0.064,-0.021,0.014,1.002,0.286,0.037,-0.552
712,-0.005,0.013,-0.112,-0.034,0.02,0.999,0.288,0.034,-0.55
713,-0.002,0.006,-0.213,-0.054,0.017,1.015,0.298,0.025,-0.552
714,0.015,-0.007,-0.308,-0.011,-0.006,1.069,0.297,0.03,-0.549
715,0.0,-0.017,-0.324,-0.051,0.014,1.039,0.297,0.03,-0.549
716,-0.024,0.018,-0.275,0.019,0.002,0.974,0.297,0.033,-0.561
717,0.051,0.023,-0.494,-0.069,0.011,1.013,0.303,0.021,-0.556
718,0.02,0.049,-0.548,-0.104,-0.004,1.066,0.291,0.03,-0.561
719,0.018,0.034,-0.624,-0.104,-0.004,1.066,0.294,0.022,-0.556
720,0.01,0.039,-0.639,-0.043,-0.008,1.044,0.3,0.018,-0.553
721,0.014,0.028,-0.622,-0.069,0.038,1.016,0.31,0.028,-0.568
722,0.014,0.028,-0.622,-0.064,0.053,1.013,0.31,0.028,-0.568
723,-0.016,0.03,-0.52,0.04,0.009,1.003,0.304,0.027,-0.552
724,-0.004,0.032,-0.368,0.026,0.011,0.953,0.286,0.013,-0.547
725,0.025,0.028,-0.382,-0.067,0.034,1.01,0.315,0.012,-0.556
726,0.004,0.035,-0.287,-0.04,0.018,1.072,0.288,0.009,-0.54
727,0.004,0.025,-0.312,-0.047,0.016,0.996,0.298,0.004,-0.567
728,0.004,-0.015,-0.384,-0.017,0.011,0.954,0.295,0.013,-0.55
729,0.025,0.007,-0.52,-0.017,0.006,0.968,0.295,0.013,-0.55
730,0.009,-0.021,-0.49,0.018,-0.003,0.992,0.307,0.006,-0.553
731,0.01,0.0,-0.294,0.004,0.014,0.983,0.322,-0.004,-0.571
732,-0.009,0.002,-0.106,-0.009,0.007,0.985,0.327,-0.001,-0.573
733,-0.016,-0.002,-0.041,0.021,0.0,1.0,0.301,0.003,-0.564
734,-0.014,-0.002,-0.024,-0.009,0.01,1.0,0.307,-0.006,-0.561
735,-0.009,-0.004,-0.013,-0.007,0.009,0.998,0.291,-0.007,-0.556
736,-0.004,-0.001,-0.002,-0.007,0.011,0.998,0.291,-0.007,-0.556
737,-0.001,0.0,-0.004,-0.013,0.015,0.998,0.316,0.003,-0.544
738,0.0,0.0,-0.006,-0.012,0.015,1.0,0.322,-0.004,-0.547
739,0.0,0.002,-0.009,-0.012,0.015,1.0,0.315,0.001,-0.567
740,0.002,0.004,-0.014,-0.014,0.014,1.001,0.318,-0.012,-0.553
741,0.003,0.01,-0.026,-0.013,0.014,0.998,0.303,0.022,-0.549
742,0.004,0.012,-0.061,-0.016,0.019,1.0,0.295,-0.001,-0.541
743,0.004,0.012,-0.061,-0.021,0.022,1.003,0.303,0.019,-0.567
744,-0.007,-0.011,-0.11,-0.036,0.054,1.011,0.303,0.019,-0.567
745,-0.021,-0.053,-0.243,-0.036,0.087,0.934,0.325,0.012,-0.562
746,-0.005,-0.051,-0.315,-0.012,0.057,0.888,0.298,0.012,-0.549
747,0.006,-0.022,-0.321,0.002,0.004,0.956,0.318,-0.012,-0.555
748,-0.006,-0.044,-0.316,-0.003,-0.018,0.987,0.327,-0.001,-0.567
749,-0.029,0.053,-0.258,0.015,-0.027,0.957,0.321,-0.001,-0.576
750,-0.006,0.001,-0.029,0.005,0.0,0.975,0.319,0.003,-0.55
751,0.0,-0.006,0.002,-0.018,0.027,1.01,0.319,0.003,-0.55
752,0.003,-0.007,0.001,-0.01,0.011,0.999,0.316,-0.001,-0.534
753,0.001,-0.002,-0.01,-0.011,0.012,1.001,0.318,0.006,-0.562
754,0.002,-0.002,-0.006,-0.014,0.017,1.0,0.306,-0.013,-0.529
755,0.002,-0.002,-0.004,-0.019,0.014,1.0,0.3,-0.013,-0.555
756,0.0,-0.001,-0.007,-0.012,0.012,0.998,0.306,0.021,-0.562
757,0.002,0.0,-0.007,-0.011,0.013,0.996,0.309,-0.003,-0.541
758,0.003,-0.002,-0.006,-0.011,0.013,0.996,0.309,-0.003,-0.541
759,0.002,-0.003,-0.006,-0.012,0.014,0.997,0.298,0.003,-0.559
760,0.002,-0.003,-0.006,-0.012,0.012,0.998,0.325,-0.007,-0.57
761,0.001,-0.003,-0.006,-0.012,0.012,0.999,0.319,0.007,-0.558
762,0.002,-0.002,-0.006,-0.012,0.011,1.001,0.307,0.015,-0.561
763,0.002,-0.002,-0.006,-0.011,0.014,1.001,0.312,-0.013,-0.574
764,0.002,-0.002,-0.007,-0.012,0.016,1.0,0.315,-0.003,-0.559
765,0.002,-0.001,-0.007,-0.012,0.015,0.998,0.315,-0.003,-0.559
766,0.003,-0.002,-0.006,-0.01,0.014,0.999,0.313,0.003,-0.559
767,0.001,-0.002,-0.005,-0.013,0.013,1.0,0.303,0.016,-0.553
768,0.002,-0.003,-0.005,-0.013,0.012,0.999,0.312,-0.018,-0.561
769,0.002,-0.002,-0.006,-0.012,0.013,0.998,0.3,-0.019,-0.544
770,0.002,0.0,-0.006,-0.012,0.016,0.998,0.294,-0.013,-0.549
771,0.002,0.0,-0.006,-0.012,0.016,0.998,0.321,-0.018,-0.556
772,0.002,-0.002,-0.007,-0.011,0.015,1.0,0.321,-0.018,-0.556
773,0.002,-0.002,-0.006,-0.013,0.014,1.0,0.295,0.004,-0.559
774,0.002,-0.002,-0.006,-0.013,0.015,0.999,0.315,-0.004,-0.556
775,0.001,-0.002,-0.006,-0.013,0.016,0.997,0.318,-0.012,-0.564
776,0.001,-0.004,-0.007,-0.012,0.013,0.998,0.309,0.0,-0.565
777,0.002,0.003,-0.007,-0.012,0.013,1.001,0.309,-0.013,-0.543
778,0.002,0.0,-0.006,-0.012,0.013,1.001,0.298,-0.001,-0.553
779,0.002,-0.002,-0.006,-0.014,0.013,1.001,0.298,-0.001,-0.553
780,0.002,0.0,-0.007,-0.014,0.011,1.001,0.301,-0.01,-0.546
781,0.002,-0.002,-0.006,-0.011,0.009,1.001,0.318,0.012,-0.553
782,0.002,-0.001,-0.007,-0.012,0.009,1.0,0.318,-0.006,-0.549
783,0.002,-0.001,-0.007,-0.014,0.012,1.0,0.321,0.001,-0.556
784,0.002,-0.002,-0.007,-0.014,0.013,1.0,0.309,-0.018,-0.55
785,0.001,-0.002,-0.007,-0.013,0.014,0.998,0.298,-0.006,-0.546
786,0.002,-0.001,-0.007,-0.014,0.015,0.998,0.298,-0.006,-0.546
787,0.002,-0.002,-0.006,-0.012,0.015,0.999,0.336,-0.009,-0.543
788,0.002,-0.002,-0.007,-0.011,0.013,0.998,0.303,-0.004,-0.559
789,0.002,-0.001,-0.007,-0.012,0.012,0.999,0.307,0.004,-0.546
790,0.002,-0.002,-0.006,-0.013,0.014,0.999,0.31,-0.015,-0.552
791,0.0,-0.006,-0.005,-0.012,0.013,0.998,0.291,-0.01,-0.559
792,0.0,-0.004,-0.007,-0.013,0.011,0.999,0.322,-0.012,-0.55
793,0.002,-0.002,-0.006,-0.014,0.014,0.999,0.322,-0.012,-0.55
794,0.002,-0.002,-0.007,-0.011,0.016,0.999,0.304,-0.006,-0.556
795,0.002,-0.002,-0.006,-0.01,0.015,1.001,0.309,-0.007,-0.567
796,0.002,-0.002,-0.006,-0.012,0.015,1.002,0.303,0.001,-0.556
797,0.002,-0.002,-0.005,-0.012,0.016,1.001,0.31,-0.01,-0.567
798,0.002,-0.005,-0.005,-0.012,0.016,1.001,0.313,0.0,-0.574
799,0.002,-0.001,-0.005,-0.012,0.016,0.999,0.319,0.006,-0.562
800,0.002,0.0,-0.005,-0.012,0.013,0.997,0.319,0.006,-0.562
801,0.002,-0.001,-0.006,-0.013,0.013,0.997,0.309,-0.003,-0.562
802,0.002,-0.001,-0.006,-0.014,0.016,0.998,0.309,0.003,-0.559
803,0.004,0.0,-0.006,-0.012,0.014,0.999,0.321,-0.013,-0.529
804,0.002,-0.001,-0.007,-0.012,0.014,1.0,0.315,-0.006,-0.561
805,0.002,0.0,-0.006,-0.014,0.014,1.0,0.289,0.007,-0.531
806,0.002,0.0,-0.005,-0.013,0.014,0.999,0.309,0.007,-0.559
807,0.002,-0.002,-0.007,-0.01,0.014,0.999,0.309,0.007,-0.559
808,0.003,0.0,-0.007,-0.01,0.014,1.0,0.316,-0.007,-0.553
809,0.003,-0.001,-0.007,-0.009,0.015,0.999,0.325,0.003,-0.568
810,0.002,-0.002,-0.006,-0.012,0.014,1.0,0.316,-0.016,-0.562
811,0.003,-0.001,-0.007,-0.013,0.014,1.001,0.318,-0.003,-0.549
812,0.001,-0.009,-0.005,-0.012,0.016,1.0,0.316,-0.012,-0.562
813,0.002,-0.004,-0.005,-0.013,0.017,1.0,0.315,-0.009,-0.552
814,0.003,-0.002,-0.005,-0.011,0.015,1.001,0.315,-0.009,-0.552
815,0.002,-0.002,-0.006,-0.011,0.014,1.0,0.306,-0.007,-0.55
816,0.002,-0.002,-0.005,-0.012,0.014,1.0,0.319,0.01,-0.562
817,0.002,-0.002,-0.007,-0.012,0.014,1.0,0.309,0.001,-0.556
818,0.002,-0.001,-0.007,-0.012,0.015,0.999,0.316,-0.007,-0.562
819,0.002,-0.001,-0.007,-0.013,0.016,1.0,0.3,-0.015,-0.525
820,0.002,-0.001,-0.006,-0.014,0.016,1.0,0.315,0.001,-0.573
821,0.002,-0.001,-0.006,-0.014,0.017,1.001,0.315,0.001,-0.573
822,0.002,-0.001,-0.006,-0.012,0.014,1.0,0.322,0.006,-0.55
823,0.002,-0.002,-0.006,-0.013,0.014,1.0,0.307,0.006,-0.555
824,0.002,-0.001,-0.006,-0.011,0.016,0.999,0.307,-0.006,-0.576
825,0.002,-0.001,-0.006,-0.009,0.015,0.999,0.303,0.004,-0.559
826,0.002,-0.002,-0.006,-0.01,0.014,1.0,0.303,0.004,-0.559
827,0.002,-0.002,-0.007,-0.01,0.016,0.998,0.306,-0.003,-0.558
828,0.002,-0.001,-0.007,-0.01,0.014,0.998,0.306,-0.003,-0.558
829,0.002,-0.001,-0.005,-0.01,0.014,0.999,0.294,0.003,-0.562
830,0.002,-0.001,-0.005,-0.01,0.015,0.999,0.306,0.001,-0.574
831,0.003,-0.001,-0.007,-0.01,0.014,1.0,0.301,-0.021,-0.547
832,0.002,-0.001,-0.007,-0.011,0.014,0.999,0.322,-0.027,-0.552
833,0.002,-0.005,-0.005,-0.011,0.015,0.999,0.309,-0.001,-0.544
834,0.002,-0.003,-0.005,-0.01,0.015,1.001,0.306,0.007,-0.568
835,0.002,0.0,-0.006,-0.01,0.015,1.0,0.306,0.007,-0.568
836,0.002,0.0,-0.006,-0.013,0.017,1.0,0.312,0.0,-0.565
837,0.002,-0.002,-0.005,-0.013,0.017,1.0,0.309,-0.013,-0.57
838,0.002,-0.002,-0.007,-0.014,0.016,1.0,0.327,-0.007,-0.55
839,0.003,-0.001,-0.006,-0.013,0.013,1.0,0.307,-0.007,-0.558
840,0.001,-0.006,-0.006,-0.015,0.013,0.998,0.289,-0.007,-0.538
841,0.001,-0.002,-0.007,-0.014,0.014,0.999,0.298,0.0,-0.559
842,0.001,-0.002,-0.007,-0.012,0.015,1.0,0.298,0.0,-0.559
843,0.002,-0.003,-0.006,-0.011,0.016,1.0,0.312,0.003,-0.559
844,0.002,-0.002,-0.004,-0.01,0.016,1.0,0.315,-0.003,-0.559
845,0.002,-0.003,-0.004,-0.01,0.015,0.999,0.33,-0.018,-0.567
846,0.002,-0.002,-0.005,-0.011,0.015,1.0,0.309,-0.006,-0.55
847,0.005,0.004,-0.007,-0.012,0.015,0.999,0.319,-0.018,-0.549
848,0.004,0.0,-0.007,-0.012,0.014,0.999,0.306,0.006,-0.577
849,0.002,-0.002,-0.006,-0.01,0.014,1.0,0.306,0.006,-0.577
850,0.002,-0.002,-0.006,-0.01,0.014,0.999,0.31,-0.006,-0.571
851,0.002,-0.002,-0.006,-0.012,0.012,0.999,0.309,0.003,-0.565
852,0.002,-0.001,-0.006,-0.014,0.012,1.0,0.321,-0.006,-0.558
853,0.002,-0.002,-0.007,-0.014,0.013,0.998,0.309,0.009,-0.556
854,0.002,-0.005,-0.005,-0.012,0.015,1.001,0.301,0.0,-0.538
855,0.002,-0.002,-0.005,-0.012,0.016,1.003,0.303,0.007,-0.537
856,0.003,-0.001,-0.005,-0.011,0.015,1.002,0.303,0.007,-0.537
857,0.003,-0.002,-0.005,-0.011,0.015,1.002,0.303,-0.016,-0.561
858,0.002,-0.002,-0.005,-0.012,0.014,1.001,0.303,-0.006,-0.55
859,0.002,-0.002,-0.005,-0.013,0.014,0.997,0.306,-0.006,-0.555
860,0.002,-0.002,-0.006,-0.013,0.015,0.997,0.28,-0.007,-0.55
861,0.002,-0.002,-0.006,-0.013,0.015,0.999,0.315,0.003,-0.546
862,0.004,0.003,-0.007,-0.013,0.014,0.999,0.313,0.001,-0.528
863,0.002,-0.001,-0.006,-0.014,0.012,0.998,0.313,0.001,-0.528
864,0.002,-0.004,-0.005,-0.013,0.014,0.998,0.309,0.018,-0.561
865,0.002,-0.002,-0.006,-0.011,0.014,1.001,0.327,-0.001,-0.555
866,0.003,0.0,-0.006,-0.012,0.014,1.003,0.298,0.004,-0.556
867,0.002,-0.002,-0.006,-0.012,0.015,1.002,0.313,-0.01,-0.568
868,0.002,0.002,-0.007,-0.011,0.014,0.999,0.3,-0.003,-0.556
869,0.003,0.0,-0.007,-0.011,0.013,0.999,0.309,-0.018,-0.555
870,0.003,-0.002,-0.006,-0.012,0.013,1.001,0.309,-0.018,-0.555
871,0.002,-0.002,-0.006,-0.011,0.013,1.002,0.313,0.001,-0.576
872,0.002,-0.002,-0.006,-0.009,0.011,1.001,0.315,-0.013,-0.57
873,0.002,-0.002,-0.006,-0.009,0.011,1.001,0.316,-0.024,-0.552
874,0.002,0.0,-0.007,-0.012,0.015,1.001,0.304,0.006,-0.552
875,0.003,-0.001,-0.006,-0.012,0.017,1.001,0.319,0.004,-0.567
876,0.002,-0.003,-0.006,-0.012,0.017,1.001,0.309,-0.012,-0.559
877,0.002,-0.001,-0.006,-0.012,0.014,1.0,0.309,-0.012,-0.559
878,0.002,0.0,-0.005,-0.014,0.011,0.997,0.325,-0.018,-0.541
879,0.002,0.0,-0.007,-0.014,0.012,0.999,0.324,-0.003,-0.546
880,0.002,-0.002,-0.005,-0.012,0.015,1.001,0.318,-0.01,-0.571
881,0.002,-0.002,-0.005,-0.01,0.015,0.999,0.312,0.013,-0.555
882,0.002,-0.001,-0.006,-0.011,0.015,0.999,0.304,0.001,-0.549
883,0.002,-0.003,-0.006,-0.012,0.015,1.001,0.309,-0.01,-0.562
884,0.002,-0.002,-0.006,-0.012,0.016,1.002,0.309,-0.01,-0.562
885,0.002,0.0,-0.007,-0.011,0.014,1.0,0.303,0.013,-0.547
886,0.002,-0.002,-0.006,-0.01,0.012,1.001,0.328,-0.003,-0.556
887,0.002,-0.002,-0.006,-0.011,0.013,1.002,0.303,-0.006,-0.552
888,0.003,-0.002,-0.006,-0.012,0.014,1.001,0.303,-0.001,-0.564
889,0.004,-0.003,-0.005,-0.011,0.016,0.999,0.303,-0.024,-0.547
890,0.002,-0.001,-0.006,-0.012,0.015,0.998,0.298,-0.01,-0.55
891,0.002,-0.001,-0.006,-0.012,0.014,0.998,0.298,-0.01,-0.55
892,0.002,-0.002,-0.005,-0.01,0.015,0.998,0.294,-0.007,-0.543
893,0.003,-0.001,-0.005,-0.011,0.013,0.998,0.298,0.001,-0.535
894,0.002,-0.002,-0.005,-0.011,0.012,0.999,0.322,-0.009,-0.561
895,0.002,-0.001,-0.005,-0.012,0.014,1.001,0.309,-0.004,-0.555
896,0.004,0.001,-0.006,-0.01,0.017,1.0,0.3,0.006,-0.525
897,0.003,0.002,-0.006,-0.01,0.017,1.0,0.31,-0.004,-0.538
898,0.002,-0.001,-0.007,-0.01,0.017,0.999,0.31,-0.004,-0.538
899,0.002,-0.002,-0.007,-0.011,0.015,0.999,0.306,-0.01,-0.562
900,0.002,-0.002,-0.006,-0.012,0.015,1.0,0.322,-0.003,-0.564
901,0.002,-0.002,-0.006,-0.013,0.015,0.998,0.318,-0.004,-0.546
902,0.003,0.0,-0.007,-0.013,0.015,1.0,0.315,-0.01,-0.567
903,0.002,-0.001,-0.006,-0.013,0.014,1.001,0.336,0.009,-0.553
904,0.002,-0.002,-0.006,-0.013,0.015,1.001,0.312,-0.001,-0.565
905,0.002,-0.003,-0.006,-0.012,0.015,1.001,0.312,-0.001,-0.565
906,0.002,-0.004,-0.006,-0.01,0.015,1.001,0.312,0.006,-0.555
907,0.002,-0.004,-0.005,-0.01,0.014,1.0,0.316,0.009,-0.57
908,0.002,-0.002,-0.005,-0.012,0.014,1.0,0.31,-0.013,-0.543
909,0.002,-0.002,-0.005,-0.012,0.014,1.001,0.3,-0.003,-0.568
910,0.0,-0.005,-0.004,-0.011,0.014,0.999,0.306,0.001,-0.54
911,0.002,-0.003,-0.005,-0.011,0.016,0.998,0.31,-0.004,-0.537
912,0.002,0.0,-0.006,-0.01,0.017,1.0,0.31,-0.004,-0.537
913,0.002,-0.002,-0.006,-0.013,0.016,1.0,0.313,-0.006,-0.567
914,0.002,-0.002,-0.006,-0.014,0.014,1.0,0.298,-0.006,-0.568
915,0.002,-0.001,-0.006,-0.011,0.013,1.0,0.303,-0.001,-0.559
916,0.002,-0.001,-0.006,-0.011,0.013,1.0,0.31,-0.024,-0.546
917,0.002,0.001,-0.006,-0.012,0.012,1.001,0.298,0.021,-0.538
918,0.002,0.0,-0.007,-0.014,0.012,0.999,0.301,-0.006,-0.562
919,0.002,0.0,-0.007,-0.012,0.013,0.998,0.301,-0.006,-0.562
920,0.002,-0.001,-0.005,-0.01,0.013,0.999,0.301,-0.015,-0.537
921,0.002,-0.001,-0.005,-0.011,0.013,0.999,0.307,-0.015,-0.553
922,0.003,-0.002,-0.006,-0.012,0.014,0.997,0.313,-0.009,-0.541
923,0.002,-0.002,-0.006,-0.012,0.013,0.999,0.318,-0.006,-0.553
924,0.003,-0.002,-0.007,-0.012,0.013,1.0,0.307,-0.015,-0.538
925,0.003,-0.002,-0.007,-0.011,0.014,1.0,0.306,0.004,-0.546
926,0.002,-0.002,-0.006,-0.012,0.016,1.001,0.306,0.004,-0.546
927,0.003,-0.002,-0.006,-0.013,0.017,1.0,0.333,0.006,-0.574
928,0.002,-0.002,-0.006,-0.013,0.015,1.0,0.312,0.006,-0.538
929,0.002,-0.001,-0.006,-0.011,0.015,1.0,0.303,-0.013,-0.559
930,0.002,-0.001,-0.006,-0.009,0.016,1.0,0.318,0.0,-0.547
931,0.002,-0.004,-0.006,-0.011,0.015,0.998,0.307,-0.01,-0.552
932,0.002,-0.002,-0.006,-0.012,0.014,0.998,0.316,-0.013,-0.547
933,0.003,-0.001,-0.006,-0.013,0.015,1.001,0.316,-0.013,-0.547
934,0.003,-0.002,-0.006,-0.013,0.016,1.0,0.315,-0.018,-0.544
935,0.004,-0.002,-0.006,-0.01,0.015,0.999,0.301,-0.001,-0.561
936,0.002,-0.001,-0.006,-0.01,0.015,0.999,0.319,-0.024,-0.567
937,0.002,-0.002,-0.005,-0.011,0.014,1.0,0.312,-0.001,-0.546
938,0.003,0.0,-0.006,-0.011,0.014,1.0,0.315,-0.013,-0.553
939,0.003,0.0,-0.006,-0.013,0.014,0.999,0.313,-0.006,-0.537
940,0.002,0.0,-0.006,-0.014,0.014,0.999,0.313,-0.006,-0.537
941,0.002,-0.002,-0.007,-0.013,0.014,0.998,0.31,0.001,-0.552
942,0.002,-0.003,-0.006,-0.012,0.015,0.999,0.295,-0.004,-0.547
943,0.001,-0.002,-0.007,-0.012,0.015,1.0,0.307,-0.015,-0.544
944,0.002,-0.002,-0.007,-0.011,0.016,1.001,0.319,0.006,-0.541
945,0.001,-0.005,-0.005,-0.01,0.02,0.999,0.301,0.01,-0.532
946,0.001,-0.002,-0.005,-0.012,0.018,0.997,0.312,0.007,-0.549
947,0.002,0.0,-0.006,-0.013,0.016,1.0,0.312,0.007,-0.549
948,0.002,-0.002,-0.006,-0.011,0.015,1.0,0.298,-0.003,-0.553
949,0.002,-0.002,-0.005,-0.011,0.014,1.0,0.307,0.006,-0.553
950,0.002,-0.002,-0.007,-0.012,0.014,1.001,0.312,0.004,-0.553
951,0.002,-0.002,-0.006,-0.012,0.014,0.999,0.306,0.009,-0.55
952,0.0,-0.007,-0.004,-0.013,0.016,0.999,0.301,-0.003,-0.538
953,0.001,-0.002,-0.006,-0.012,0.016,1.0,0.312,0.006,-0.561
954,0.003,-0.002,-0.006,-0.011,0.015,1.001,0.312,0.006,-0.561
955,0.002,-0.002,-0.006,-0.012,0.016,1.0,0.337,0.018,-0.562
956,0.003,-0.001,-0.005,-0.012,0.016,1.0,0.316,-0.013,-0.556
957,0.003,-0.001,-0.006,-0.012,0.014,1.0,0.313,0.009,-0.562
958,0.002,-0.003,-0.006,-0.012,0.014,0.999,0.315,0.001,-0.559
959,0.002,-0.003,-0.006,-0.012,0.015,0.998,0.301,0.001,-0.523
960,0.002,0.001,-0.007,-0.011,0.017,1.001,0.316,-0.006,-0.558
961,0.002,0.0,-0.007,-0.011,0.017,1.001,0.316,-0.006,-0.558
962,0.003,0.0,-0.006,-0.012,0.014,1.0,0.304,-0.001,-0.565
963,0.002,0.0,-0.006,-0.013,0.013,0.999,0.319,0.004,-0.553
964,0.002,-0.002,-0.006,-0.011,0.014,0.998,0.318,-0.003,-0.555
965,0.002,-0.002,-0.005,-0.011,0.015,0.999,0.322,-0.015,-0.541
966,0.002,0.001,-0.005,-0.011,0.013,0.999,0.307,0.009,-0.57
967,0.002,-0.001,-0.006,-0.012,0.013,0.998,0.309,0.0,-0.568
968,0.003,-0.001,-0.007,-0.013,0.014,0.996,0.309,0.0,-0.568
969,0.002,-0.002,-0.006,-0.013,0.015,0.998,0.304,-0.01,-0.555
970,0.002,-0.002,-0.005,-0.014,0.015,1.001,0.304,-0.016,-0.567
971,0.003,-0.001,-0.005,-0.014,0.015,1.001,0.292,-0.009,-0.552
972,0.002,-0.002,-0.005,-0.011,0.016,1.0,0.324,0.009,-0.559
973,0.002,-0.007,-0.005,-0.011,0.016,0.999,0.286,-0.015,-0.543
974,0.002,-0.002,-0.006,-0.013,0.014,0.997,0.301,-0.004,-0.55
975,0.003,0.0,-0.006,-0.013,0.014,0.997,0.301,-0.004,-0.55
976,0.003,0.0,-0.006,-0.012,0.013,0.999,0.288,-0.013,-0.559
977,0.004,0.0,-0.005,-0.012,0.015,1.002,0.324,0.001,-0.573
978,0.003,-0.001,-0.006,-0.012,0.014,1.001,0.327,-0.003,-0.564
979,0.003,-0.002,-0.006,-0.013,0.014,1.002,0.312,0.006,-0.546
980,0.003,-0.002,-0.006,-0.013,0.013,1.0,0.295,-0.013,-0.55
981,0.003,-0.002,-0.007,-0.015,0.011,0.999,0.303,-0.003,-0.561
982,0.001,-0.002,-0.005,-0.015,0.012,1.0,0.303,-0.003,-0.561
983,0.002,-0.003,-0.005,-0.014,0.012,1.0,0.303,-0.006,-0.544
984,0.002,-0.003,-0.006,-0.01,0.012,1.0,0.295,0.003,-0.544
985,0.002,-0.003,-0.007,-0.012,0.015,1.002,0.31,0.012,-0.555
986,0.002,-0.002,-0.006,-0.013,0.015,1.001,0.304,0.012,-0.556
987,0.003,-0.01,-0.005,-0.011,0.015,1.0,0.306,-0.007,-0.535
988,0.003,-0.003,-0.006,-0.011,0.015,1.0,0.318,0.004,-0.555
989,0.002,-0.001,-0.005,-0.011,0.015,0.999,0.318,0.004,-0.555
990,0.004,-0.002,-0.006,-0.013,0.015,1.0,0.31,0.003,-0.57
991,0.003,-0.001,-0.006,-0.012,0.014,1.0,0.309,-0.01,-0.556
992,0.003,-0.001,-0.006,-0.011,0.013,1.001,0.325,0.013,-0.549
993,0.003,-0.003,-0.005,-0.009,0.013,1.001,0.315,-0.001,-0.565
994,0.007,0.0,-0.007,-0.01,0.014,0.999,0.318,0.007,-0.546
995,0.004,0.0,-0.007,-0.01,0.014,0.999,0.315,-0.001,-0.553
996,0.001,-0.002,-0.006,-0.01,0.015,0.999,0.315,-0.001,-0.553
997,0.002,-0.002,-0.005,-0.011,0.014,1.0,0.345,0.004,-0.558
998,0.002,-0.002,-0.006,-0.012,0.014,1.0,0.313,-0.007,-0.561
999,0.002,-0.002,-0.006,-0.012,0.015,1.0,0.313,-0.003,-0.55
1000,0.003,0.0,-0.006,-0.012,0.016,1.0,0.324,0.003,-0.565
1001,0.003,0.0,-0.007,-0.012,0.016,1.002,0.294,0.0,-0.543
1002,0.002,0.0,-0.006,-0.014,0.014,1.001,0.322,-0.01,-0.546
1003,0.003,-0.001,-0.006,-0.015,0.012,1.001,0.322,-0.01,-0.546
1004,0.002,-0.002,-0.005,-0.015,0.012,0.999,0.333,-0.007,-0.538
1005,0.002,-0.004,-0.005,-0.014,0.014,0.999,0.336,-0.004,-0.553
1006,0.002,-0.001,-0.006,-0.013,0.016,1.0,0.31,0.003,-0.553
1007,0.002,-0.001,-0.007,-0.013,0.015,0.999,0.312,0.0,-0.547
1008,0.002,-0.005,-0.006,-0.014,0.015,0.999,0.316,0.009,-0.532
1009,0.002,-0.003,-0.006,-0.014,0.013,0.998,0.316,0.007,-0.54
1010,0.002,-0.002,-0.006,-0.014,0.015,1.001,0.316,0.007,-0.54
1011,0.002,-0.002,-0.007,-0.014,0.015,1.001,0.316,0.004,-0.555
1012,0.002,-0.002,-0.006,-0.012,0.015,0.998,0.324,0.003,-0.555
1013,0.002,-0.001,-0.006,-0.012,0.017,0.998,0.322,0.009,-0.543
1014,0.002,-0.001,-0.005,-0.012,0.014,0.999,0.307,-0.001,-0.567
1015,0.002,-0.006,-0.005,-0.012,0.013,1.001,0.306,0.001,-0.565
1016,0.002,-0.003,-0.006,-0.013,0.013,1.001,0.312,0.004,-0.54
1017,0.003,-0.002,-0.005,-0.012,0.014,1.001,0.312,0.004,-0.54
1018,0.002,-0.002,-0.005,-0.012,0.015,1.0,0.3,0.0,-0.552
1019,0.002,-0.002,-0.005,-0.011,0.013,0.999,0.298,0.004,-0.567
1020,0.002,0.0,-0.005,-0.013,0.011,0.999,0.312,-0.006,-0.567
1021,0.002,-0.002,-0.007,-0.015,0.012,1.0,0.321,0.004,-0.559
1022,0.002,-0.001,-0.007,-0.014,0.014,1.0,0.304,-0.013,-0.541
1023,0.002,-0.001,-0.007,-0.013,0.014,0.999,0.303,0.003,-0.562
1024,0.002,0.0,-0.006,-0.014,0.014,0.998,0.303,0.003,-0.562
1025,0.002,0.0,-0.006,-0.016,0.015,1.0,0.33,0.003,-0.555
1026,0.002,0.0,-0.005,-0.015,0.015,1.0,0.303,-0.003,-0.538
1027,0.002,-0.001,-0.005,-0.013,0.013,0.998,0.331,0.001,-0.559
1028,0.002,-0.002,-0.005,-0.012,0.015,0.999,0.307,0.021,-0.553
1029,0.004,0.002,-0.007,-0.011,0.015,1.0,0.313,-0.001,-0.55
1030,0.002,0.0,-0.007,-0.012,0.015,0.999,0.321,-0.016,-0.55
1031,0.002,-0.002,-0.006,-0.012,0.015,0.998,0.321,-0.016,-0.55
1032,0.003,0.0,-0.007,-0.011,0.012,0.999,0.321,-0.001,-0.555
1033,0.002,-0.001,-0.006,-0.012,0.011,1.0,0.319,0.012,-0.544
1034,0.002,-0.002,-0.006,-0.012,0.011,1.0,0.325,0.009,-0.538
1035,0.002,0.0,-0.006,-0.012,0.013,0.999,0.304,-0.003,-0.561
1036,0.001,-0.007,-0.005,-0.012,0.013,0.999,0.3,0.004,-0.547
1037,0.002,-0.004,-0.006,-0.01,0.014,1.001,0.315,-0.004,-0.55
1038,0.002,-0.004,-0.006,-0.01,0.015,1.001,0.315,-0.004,-0.55
1039,0.002,-0.003,-0.006,-0.011,0.013,0.999,0.324,-0.003,-0.556
1040,0.001,-0.002,-0.006,-0.011,0.015,1.0,0.301,0.007,-0.555
1041,0.002,-0.002,-0.006,-0.013,0.016,0.999,0.322,-0.001,-0.52
1042,0.003,-0.003,-0.006,-0.013,0.015,0.998,0.331,-0.01,-0.558
1043,0.002,-0.009,-0.004,-0.012,0.014,0.998,0.301,-0.013,-0.549
1044,0.002,-0.002,-0.006,-0.012,0.015,0.998,0.307,-0.003,-0.552
1045,0.003,-0.002,-0.005,-0.011,0.016,0.999,0.307,-0.003,-0.552
1046,0.004,-0.002,-0.005,-0.011,0.014,0.999,0.322,-0.007,-0.552
1047,0.002,-0.001,-0.005,-0.012,0.014,1.0,0.304,0.001,-0.553
1048,0.002,-0.002,-0.006,-0.012,0.015,1.0,0.309,0.006,-0.529
1049,0.001,0.0,-0.006,-0.011,0.017,1.001,0.294,-0.009,-0.553
1050,0.002,-0.002,-0.006,-0.011,0.017,1.001,0.3,0.018,-0.534
1051,0.002,-0.002,-0.006,-0.012,0.018,1.0,0.33,0.007,-0.564
1052,0.002,0.0,-0.006,-0.01,0.017,0.998,0.33,0.007,-0.564
1053,0.002,0.0,-0.005,-0.012,0.014,0.998,0.319,0.001,-0.573
1054,0.003,-0.001,-0.005,-0.012,0.014,0.998,0.322,0.016,-0.549
1055,0.004,-0.002,-0.005,-0.013,0.014,1.0,0.309,-0.018,-0.558
1056,0.002,-0.002,-0.006,-0.013,0.015,1.0,0.316,0.0,-0.552
1057,0.003,-0.004,-0.005,-0.013,0.014,1.0,0.306,-0.001,-0.544
1058,0.003,-0.004,-0.005,-0.012,0.014,1.001,0.309,-0.001,-0.555
1059,0.002,-0.004,-0.005,-0.011,0.015,1.0,0.309,-0.001,-0.555
1060,0.002,-0.002,-0.006,-0.011,0.016,0.999,0.318,0.0,-0.552
1061,0.001,-0.001,-0.006,-0.011,0.015,1.002,0.313,-0.003,-0.541
1062,0.002,-0.001,-0.006,-0.011,0.014,1.001,0.316,-0.018,-0.562
1063,0.002,-0.002,-0.006,-0.012,0.013,0.998,0.306,-0.006,-0.55
1064,0.002,-0.012,-0.004,-0.011,0.014,1.0,0.301,0.001,-0.544
1065,0.002,-0.004,-0.005,-0.011,0.012,1.0,0.316,0.001,-0.546
1066,0.002,-0.002,-0.005,-0.01,0.012,0.998,0.316,0.001,-0.546
1067,0.002,-0.002,-0.005,-0.011,0.014,1.0,0.303,0.004,-0.561
1068,0.002,-0.002,-0.006,-0.013,0.013,1.002,0.318,-0.015,-0.57
1069,0.002,-0.001,-0.006,-0.012,0.012,1.0,0.327,0.012,-0.552
1070,0.002,-0.002,-0.006,-0.011,0.014,0.999,0.304,0.001,-0.543
1071,0.004,-0.003,-0.006,-0.01,0.013,0.999,0.319,-0.022,-0.54
1072,0.003,-0.002,-0.006,-0.008,0.014,0.998,0.319,-0.006,-0.55
1073,0.002,-0.002,-0.005,-0.012,0.014,0.999,0.319,-0.006,-0.55
1074,0.002,-0.003,-0.004,-0.012,0.014,0.999,0.298,-0.001,-0.544
1075,0.002,-0.001,-0.005,-0.014,0.015,1.002,0.316,-0.004,-0.541
1076,0.002,0.0,-0.006,-0.012,0.015,1.002,0.331,0.0,-0.549
1077,0.002,0.0,-0.006,-0.013,0.014,0.999,0.321,0.0,-0.552
1078,0.002,0.0,-0.006,-0.014,0.016,1.0,0.327,0.018,-0.555
1079,0.002,-0.003,-0.006,-0.013,0.015,1.001,0.318,0.001,-0.547
1080,0.002,-0.002,-0.005,-0.013,0.012,1.001,0.318,0.001,-0.547
1081,0.003,-0.002,-0.006,-0.014,0.013,1.0,0.309,0.018,-0.543
1082,0.002,-0.002,-0.005,-0.012,0.017,0.998,0.309,-0.012,-0.565
1083,0.002,-0.003,-0.005,-0.01,0.018,0.997,0.321,0.004,-0.552
1084,0.003,-0.002,-0.006,-0.01,0.016,0.999,0.307,-0.003,-0.57
1085,0.002,-0.002,-0.006,-0.009,0.012,1.001,0.295,0.01,-0.54
1086,0.002,-0.002,-0.005,-0.009,0.012,1.002,0.316,-0.004,-0.552
1087,0.002,-0.001,-0.005,-0.013,0.016,1.001,0.316,-0.004,-0.552
1088,0.002,-0.002,-0.005,-0.013,0.015,1.0,0.318,0.003,-0.565
1089,0.002,-0.002,-0.005,-0.012,0.014,1.0,0.316,-0.001,-0.561
1090,0.002,-0.001,-0.006,-0.014,0.014,1.0,0.304,0.007,-0.538
1091,0.002,-0.002,-0.007,-0.014,0.015,1.001,0.325,-0.001,-0.55
1092,0.002,-0.003,-0.005,-0.011,0.015,1.002,0.307,0.003,-0.555
1093,0.002,0.0,-0.006,-0.011,0.015,1.002,0.321,-0.015,-0.564
1094,0.002,0.0,-0.006,-0.011,0.016,1.002,0.321,-0.015,-0.564
1095,0.003,0.0,-0.006,-0.012,0.015,1.001,0.313,-0.007,-0.552
1096,0.002,-0.002,-0.006,-0.013,0.014,1.0,0.325,0.007,-0.568
1097,0.002,0.0,-0.006,-0.013,0.013,1.001,0.315,0.0,-0.556
1098,0.002,0.0,-0.006,-0.012,0.013,1.001,0.313,-0.012,-0.565
1099,0.003,0.0,-0.005,-0.011,0.013,1.001,0.3,0.01,-0.552
1100,0.003,-0.002,-0.004,-0.011,0.013,1.0,0.3,-0.001,-0.549
1101,0.003,0.0,-0.005,-0.012,0.013,1.0,0.3,-0.001,-0.549
1102,0.002,0.0,-0.006,-0.013,0.014,1.001,0.3,0.001,-0.541
1103,0.002,-0.003,-0.006,-0.012,0.014,0.999,0.319,-0.004,-0.553
1104,0.002,-0.004,-0.005,-0.011,0.014,1.0,0.306,0.006,-0.567
1105,0.002,-0.002,-0.005,-0.011,0.015,1.0,0.309,0.003,-0.552
1106,0.002,0.0,-0.006,-0.012,0.016,1.0,0.322,-0.012,-0.567
1107,0.002,-0.002,-0.005,-0.012,0.016,0.999,0.298,0.01,-0.547
1108,0.002,-0.002,-0.006,-0.01,0.016,0.998,0.298,0.01,-0.547
1109,0.002,-0.001,-0.006,-0.012,0.016,0.998,0.319,0.001,-0.544
1110,0.003,-0.002,-0.006,-0.015,0.013,0.997,0.318,-0.012,-0.559
1111,0.002,-0.001,-0.006,-0.014,0.013,0.997,0.3,-0.004,-0.537
1112,0.002,-0.001,-0.006,-0.014,0.015,0.998,0.324,0.003,-0.556
1113,0.002,0.0,-0.006,-0.014,0.015,0.998,0.297,-0.004,-0.552
1114,0.001,-0.002,-0.004,-0.014,0.014,1.001,0.334,0.012,-0.561
1115,0.002,-0.002,-0.005,-0.012,0.015,1.0,0.334,0.012,-0.561
1116,0.002,-0.002,-0.005,-0.01,0.015,1.0,0.316,-0.003,-0.549
1117,0.002,-0.002,-0.006,-0.011,0.013,1.001,0.306,0.009,-0.574
1118,0.002,-0.002,-0.006,-0.012,0.013,0.999,0.324,-0.015,-0.553
1119,0.002,0.0,-0.006,-0.012,0.013,0.999,0.3,0.01,-0.565
1120,0.002,-0.002,-0.006,-0.013,0.013,1.0,0.312,0.01,-0.558
1121,0.002,-0.002,-0.005,-0.013,0.014,1.0,0.321,0.007,-0.555
1122,0.002,-0.002,-0.005,-0.014,0.013,0.998,0.321,0.007,-0.555
1123,0.001,-0.003,-0.005,-0.015,0.012,0.996,0.301,-0.007,-0.567
1124,0.002,-0.002,-0.005,-0.012,0.014,0.996,0.319,-0.01,-0.559
1125,0.002,0.0,-0.006,-0.012,0.015,0.997,0.319,-0.012,-0.555
1126,0.002,0.0,-0.007,-0.013,0.013,1.001,0.304,0.004,-0.556
1127,0.004,0.0,-0.007,-0.012,0.014,1.001,0.297,-0.003,-0.525
1128,0.004,-0.002,-0.006,-0.011,0.016,0.997,0.312,0.019,-0.544
1129,0.002,-0.002,-0.006,-0.011,0.014,0.996,0.312,0.019,-0.544
1130,0.003,-0.001,-0.006,-0.011,0.015,0.998,0.319,0.001,-0.55
1131,0.004,-0.002,-0.006,-0.011,0.015,0.998,0.313,0.007,-0.555
1132,0.002,-0.002,-0.006,-0.012,0.015,0.998,0.318,-0.016,-0.562
1133,0.002,-0.002,-0.006,-0.012,0.015,0.998,0.31,-0.015,-0.546
1134,0.002,0.005,-0.007,-0.014,0.015,1.0,0.313,-0.016,-0.525
1135,0.002,0.002,-0.007,-0.012,0.014,0.999,0.307,0.001,-0.564
1136,0.002,0.002,-0.007,-0.011,0.014,0.998,0.307,0.001,-0.564
1137,0.002,-0.001,-0.005,-0.014,0.016,0.998,0.322,-0.006,-0.57
1138,0.002,-0.003,-0.006,-0.013,0.016,1.0,0.304,-0.006,-0.573
1139,0.003,0.0,-0.007,-0.012,0.016,1.0,0.319,-0.007,-0.55
1140,0.003,0.0,-0.005,-0.013,0.016,1.001,0.319,0.0,-0.57
1141,0.002,-0.002,-0.005,-0.011,0.017,1.001,0.318,-0.021,-0.537
1142,0.002,-0.002,-0.005,-0.012,0.016,0.999,0.315,0.015,-0.549
1143,0.004,0.0,-0.006,-0.013,0.013,0.998,0.315,0.015,-0.549
1144,0.004,0.0,-0.007,-0.013,0.013,1.001,0.327,-0.018,-0.549
1145,0.003,0.0,-0.007,-0.013,0.014,1.002,0.313,0.004,-0.55
1146,0.002,0.0,-0.006,-0.012,0.014,1.002,0.304,-0.013,-0.553
1147,0.002,-0.001,-0.005,-0.011,0.013,1.001,0.294,0.003,-0.561
1148,0.003,-0.001,-0.006,-0.011,0.011,0.999,0.288,0.024,-0.535
1149,0.003,-0.002,-0.006,-0.011,0.013,1.0,0.33,0.001,-0.538
1150,0.002,-0.002,-0.006,-0.011,0.013,1.0,0.33,0.001,-0.538
1151,0.002,-0.001,-0.006,-0.011,0.014,0.999,0.306,0.003,-0.559
1152,0.002,-0.001,-0.005,-0.011,0.014,0.999,0.31,-0.016,-0.558
1153,0.002,-0.002,-0.006,-0.011,0.014,0.999,0.321,-0.01,-0.559
1154,0.002,-0.002,-0.005,-0.011,0.013,1.0,0.313,0.01,-0.564
1155,0.003,0.0,-0.007,-0.011,0.014,1.002,0.318,-0.016,-0.558
1156,0.003,0.0,-0.007,-0.01,0.015,1.001,0.33,0.0,-0.547
1157,0.003,-0.003,-0.006,-0.01,0.016,0.999,0.33,0.0,-0.547
1158,0.002,-0.001,-0.005,-0.012,0.015,0.998,0.325,0.009,-0.559
1159,0.003,-0.002,-0.005,-0.012,0.013,0.999,0.333,0.009,-0.544
1160,0.003,-0.001,-0.007,-0.011,0.015,0.999,0.325,-0.006,-0.543
1161,0.003,0.0,-0.006,-0.01,0.016,0.999,0.321,-0.007,-0.57
1162,0.0,-0.007,-0.005,-0.012,0.014,0.998,0.312,0.001,-0.538
1163,0.002,-0.003,-0.006,-0.012,0.013,0.999,0.318,0.004,-0.534
1164,0.002,-0.001,-0.006,-0.011,0.013,0.999,0.318,0.004,-0.534
1165,0.003,-0.002,-0.005,-0.011,0.013,0.998,0.307,0.009,-0.555
1166,0.003,-0.004,-0.005,-0.011,0.013,0.998,0.322,-0.009,-0.564
1167,0.003,-0.002,-0.005,-0.012,0.015,0.999,0.3,0.0,-0.528
1168,0.003,-0.001,-0.007,-0.012,0.014,0.999,0.318,0.0,-0.552
1169,0.004,0.007,-0.007,-0.01,0.014,0.999,0.309,-0.015,-0.547
1170,0.003,0.0,-0.006,-0.013,0.016,0.999,0.307,0.003,-0.559
1171,0.003,-0.001,-0.005,-0.013,0.017,1.0,0.307,0.003,-0.559
1172,0.002,-0.002,-0.006,-0.013,0.017,1.0,0.306,0.003,-0.55
1173,0.002,-0.002,-0.006,-0.011,0.015,1.001,0.312,0.001,-0.549
1174,0.003,-0.003,-0.005,-0.009,0.013,1.0,0.33,0.01,-0.558
1175,0.003,-0.001,-0.006,-0.011,0.015,0.999,0.336,0.019,-0.547
1176,0.002,-0.006,-0.006,-0.013,0.018,1.001,0.301,-0.003,-0.541
1177,0.002,-0.006,-0.006,-0.014,0.018,1.001,0.307,0.004,-0.549
1178,0.004,-0.001,-0.005,-0.013,0.017,1.001,0.307,0.004,-0.549
1179,0.003,-0.002,-0.005,-0.014,0.015,0.999,0.313,0.006,-0.562
1180,0.002,-0.002,-0.006,-0.015,0.013,1.0,0.321,-0.003,-0.562
1181,0.002,-0.002,-0.006,-0.013,0.014,1.001,0.313,0.01,-0.549
1182,0.002,-0.001,-0.005,-0.015,0.016,1.0,0.31,0.007,-0.538
1183,0.0,-0.003,-0.005,-0.013,0.014,0.998,0.325,0.012,-0.553
1184,0.002,-0.003,-0.005,-0.012,0.013,0.997,0.3,0.006,-0.561
1185,0.002,-0.002,-0.005,-0.012,0.014,0.999,0.3,0.006,-0.561
1186,0.003,-0.003,-0.005,-0.013,0.014,1.0,0.298,0.004,-0.532
1187,0.003,-0.001,-0.007,-0.013,0.014,1.0,0.318,0.003,-0.549
1188,0.004,-0.002,-0.005,-0.014,0.014,1.002,0.319,-0.013,-0.555
1189,0.002,-0.002,-0.005,-0.012,0.014,1.002,0.31,0.009,-0.531
1190,0.002,-0.002,-0.005,-0.01,0.016,0.999,0.315,0.006,-0.553
1191,0.002,-0.002,-0.007,-0.011,0.016,0.998,0.315,0.006,-0.553
1192,0.002,-0.002,-0.006,-0.012,0.014,0.999,0.298,-0.013,-0.55
1193,0.002,-0.001,-0.007,-0.012,0.014,1.0,0.313,0.006,-0.562
1194,0.003,0.0,-0.007,-0.011,0.017,1.001,0.304,-0.001,-0.538
1195,0.004,0.0,-0.006,-0.011,0.015,1.0,0.328,0.0,-0.558
1196,0.004,0.0,-0.006,-0.013,0.013,0.999,0.313,0.004,-0.544
1197,0.002,0.0,-0.006,-0.014,0.016,1.001,0.301,0.012,-0.538
1198,0.002,-0.002,-0.006,-0.012,0.017,1.002,0.301,0.012,-0.538
1199,0.002,-0.002,-0.004,-0.011,0.017,0.999,0.322,-0.01,-0.537
1200,0.002,-0.003,-0.004,-0.012,0.014,0.998,0.31,-0.003,-0.538
1201,0.003,-0.002,-0.005,-0.011,0.013,0.998,0.318,-0.012,-0.552
1202,0.003,-0.002,-0.005,-0.013,0.016,1.0,0.298,-0.024,-0.54
1203,0.002,-0.002,-0.005,-0.013,0.015,1.0,0.295,-0.003,-0.567
1204,0.003,0.0,-0.007,-0.011,0.014,0.998,0.303,-0.007,-0.544
1205,0.002,-0.001,-0.007,-0.012,0.016,0.999,0.303,-0.007,-0.544
1206,0.002,-0.002,-0.007,-0.013,0.017,0.999,0.31,-0.001,-0.544
1207,0.003,-0.002,-0.006,-0.014,0.016,1.0,0.303,0.001,-0.576
1208,0.002,-0.002,-0.006,-0.017,0.015,1.0,0.324,0.007,-0.553
1209,0.002,-0.002,-0.005,-0.014,0.013,1.0,0.319,0.004,-0.558
