,Gyroscope X (deg/s),Gyroscope Y (deg/s),Gyroscope Z (deg/s),Accelerometer X (g),Accelerometer Y (g),Accelerometer Z (g),Magnetometer X (G),Magnetometer Y (G),Magnetometer Z (G)
0,-0.004,-0.018,-0.004,0.125,-0.972,0.055,0.601,-0.211,-0.447
1,-0.004,-0.016,-0.007,0.123,-0.974,0.057,0.615,-0.175,-0.462
2,-0.004,-0.016,-0.007,0.121,-0.972,0.06,0.594,-0.181,-0.445
3,-0.003,-0.015,-0.009,0.118,-0.97,0.064,0.594,-0.181,-0.445
4,-0.002,-0.016,-0.008,0.118,-0.97,0.062,0.592,-0.193,-0.463
5,-0.002,-0.017,-0.008,0.122,-0.97,0.061,0.592,-0.193,-0.463
6,-0.002,-0.021,-0.007,0.122,-0.972,0.059,0.598,-0.208,-0.444
7,-0.001,-0.018,-0.008,0.121,-0.974,0.056,0.618,-0.19,-0.445
8,0.0,-0.016,-0.009,0.122,-0.976,0.057,0.61,-0.195,-0.436
9,-0.001,-0.017,-0.007,0.124,-0.976,0.061,0.61,-0.195,-0.436
10,-0.004,-0.021,-0.006,0.127,-0.975,0.063,0.589,-0.186,-0.435
11,-0.007,-0.024,-0.004,0.127,-0.976,0.059,0.603,-0.178,-0.444
12,-0.008,-0.023,-0.004,0.126,-0.975,0.059,0.595,-0.186,-0.442
13,-0.01,-0.021,-0.004,0.123,-0.974,0.06,0.595,-0.195,-0.445
14,-0.009,-0.017,-0.004,0.122,-0.973,0.06,0.615,-0.174,-0.427
15,-0.008,-0.016,-0.004,0.123,-0.974,0.06,0.615,-0.174,-0.427
16,-0.007,-0.014,-0.005,0.123,-0.974,0.06,0.595,-0.171,-0.441
17,-0.009,-0.014,-0.005,0.126,-0.974,0.059,0.598,-0.184,-0.438
18,-0.011,-0.017,-0.004,0.128,-0.972,0.06,0.601,-0.178,-0.445
19,-0.011,-0.013,-0.004,0.128,-0.969,0.061,0.598,-0.186,-0.439
20,-0.011,-0.013,-0.004,0.13,-0.97,0.06,0.595,-0.184,-0.45
21,-0.008,-0.009,-0.004,0.13,-0.971,0.06,0.595,-0.184,-0.45
22,-0.007,-0.009,-0.002,0.129,-0.974,0.056,0.606,-0.178,-0.468
23,-0.003,-0.007,-0.004,0.127,-0.976,0.048,0.604,-0.18,-0.459
24,0.0,-0.006,-0.004,0.123,-0.974,0.05,0.595,-0.166,-0.439
25,-0.001,-0.004,-0.004,0.124,-0.975,0.054,0.595,-0.166,-0.439
26,0.001,-0.009,-0.003,0.125,-0.978,0.052,0.604,-0.184,-0.433
27,0.003,-0.009,-0.004,0.124,-0.98,0.051,0.594,-0.19,-0.45
28,0.002,-0.007,-0.005,0.121,-0.98,0.054,0.594,-0.19,-0.45
29,0.001,-0.007,-0.007,0.117,-0.978,0.054,0.589,-0.186,-0.453
30,0.002,-0.005,-0.009,0.114,-0.975,0.055,0.61,-0.177,-0.447
31,0.001,0.0,-0.01,0.115,-0.974,0.058,0.595,-0.177,-0.442
32,0.002,-0.003,-0.008,0.12,-0.975,0.056,0.595,-0.184,-0.439
33,0.001,-0.006,-0.007,0.121,-0.973,0.056,0.589,-0.183,-0.438
34,0.001,-0.007,-0.008,0.12,-0.973,0.055,0.589,-0.183,-0.438
35,0.0,-0.009,-0.008,0.121,-0.972,0.052,0.606,-0.196,-0.453
36,0.0,-0.009,-0.009,0.121,-0.972,0.052,0.615,-0.181,-0.45
37,0.001,-0.007,-0.009,0.12,-0.973,0.052,0.597,-0.178,-0.448
38,0.002,-0.003,-0.008,0.12,-0.979,0.056,0.585,-0.181,-0.435
39,0.002,-0.003,-0.008,0.121,-0.983,0.057,0.604,-0.163,-0.441
40,0.003,-0.01,-0.009,0.119,-0.985,0.057,0.604,-0.163,-0.441
41,0.003,-0.011,-0.01,0.118,-0.98,0.057,0.595,-0.19,-0.436
42,0.001,-0.013,-0.01,0.118,-0.975,0.055,0.609,-0.189,-0.447
43,0.0,-0.016,-0.009,0.119,-0.977,0.057,0.592,-0.168,-0.454
44,-0.002,-0.016,-0.009,0.12,-0.979,0.058,0.607,-0.183,-0.451
45,-0.004,-0.018,-0.009,0.12,-0.976,0.056,0.615,-0.187,-0.459
46,-0.003,-0.016,-0.009,0.119,-0.973,0.054,0.615,-0.187,-0.459
47,-0.004,-0.011,-0.009,0.12,-0.974,0.055,0.579,-0.171,-0.447
48,-0.006,-0.008,-0.009,0.124,-0.975,0.06,0.598,-0.18,-0.459
49,-0.008,-0.01,-0.007,0.126,-0.976,0.061,0.601,-0.186,-0.444
50,-0.009,-0.012,-0.007,0.129,-0.977,0.059,0.598,-0.175,-0.445
51,-0.009,-0.009,-0.007,0.126,-0.975,0.062,0.612,-0.207,-0.456
52,-0.007,-0.009,-0.008,0.123,-0.975,0.062,0.612,-0.207,-0.456
53,-0.007,-0.007,-0.009,0.122,-0.973,0.059,0.586,-0.187,-0.454
54,-0.006,-0.009,-0.011,0.123,-0.973,0.056,0.6,-0.186,-0.454
55,-0.004,-0.009,-0.012,0.123,-0.973,0.056,0.601,-0.192,-0.459
56,-0.003,-0.009,-0.014,0.125,-0.973,0.056,0.613,-0.184,-0.456
57,-0.001,-0.009,-0.014,0.125,-0.973,0.057,0.607,-0.184,-0.466
58,0.0,-0.008,-0.014,0.122,-0.977,0.06,0.607,-0.184,-0.466
59,0.002,-0.008,-0.014,0.121,-0.979,0.065,0.616,-0.178,-0.457
60,0.002,-0.008,-0.014,0.121,-0.977,0.066,0.603,-0.187,-0.451
61,0.002,-0.011,-0.011,0.121,-0.975,0.067,0.594,-0.192,-0.432
62,0.001,-0.017,-0.009,0.124,-0.973,0.066,0.591,-0.165,-0.432
63,0.0,-0.02,-0.009,0.124,-0.971,0.064,0.607,-0.18,-0.459
64,0.0,-0.017,-0.009,0.123,-0.972,0.063,0.607,-0.18,-0.459
65,-0.001,-0.012,-0.007,0.123,-0.976,0.064,0.591,-0.177,-0.459
66,-0.004,-0.022,-0.006,0.124,-0.977,0.067,0.591,-0.181,-0.45
67,-0.005,-0.014,-0.007,0.123,-0.976,0.066,0.591,-0.181,-0.45
68,-0.007,-0.008,-0.008,0.122,-0.976,0.063,0.612,-0.181,-0.441
69,-0.006,-0.007,-0.009,0.121,-0.977,0.06,0.591,-0.177,-0.466
70,-0.005,-0.004,-0.009,0.122,-0.975,0.059,0.601,-0.187,-0.45
71,-0.004,0.0,-0.009,0.124,-0.976,0.064,0.601,-0.187,-0.45
72,-0.004,-0.002,-0.009,0.125,-0.977,0.067,0.603,-0.183,-0.462
73,-0.004,-0.004,-0.008,0.123,-0.976,0.065,0.615,-0.184,-0.436
74,-0.004,-0.006,-0.007,0.122,-0.975,0.062,0.598,-0.19,-0.444
75,-0.003,-0.004,-0.007,0.122,-0.975,0.062,0.609,-0.177,-0.447
76,-0.001,-0.002,-0.007,0.123,-0.975,0.061,0.603,-0.186,-0.433
77,0.001,-0.003,-0.007,0.124,-0.976,0.063,0.589,-0.184,-0.465
78,0.001,-0.006,-0.006,0.121,-0.975,0.063,0.589,-0.184,-0.465
79,0.002,-0.002,-0.007,0.119,-0.971,0.064,0.588,-0.186,-0.45
80,0.002,-0.002,-0.007,0.122,-0.97,0.065,0.595,-0.189,-0.432
81,0.0,-0.002,-0.007,0.124,-0.973,0.066,0.595,-0.189,-0.432
82,0.0,-0.003,-0.007,0.123,-0.976,0.066,0.583,-0.174,-0.451
83,0.0,-0.001,-0.007,0.123,-0.978,0.064,0.601,-0.165,-0.457
84,0.0,0.0,-0.007,0.126,-0.978,0.064,0.607,-0.177,-0.45
85,0.0,0.002,-0.007,0.124,-0.977,0.064,0.607,-0.177,-0.45
86,0.001,0.002,-0.007,0.12,-0.977,0.063,0.604,-0.183,-0.445
87,0.0,0.002,-0.007,0.118,-0.976,0.06,0.6,-0.184,-0.426
88,0.004,0.003,-0.009,0.119,-0.973,0.06,0.583,-0.196,-0.426
89,0.002,0.004,-0.009,0.121,-0.97,0.062,0.588,-0.181,-0.447
90,0.002,0.003,-0.008,0.121,-0.969,0.063,0.597,-0.177,-0.436
91,0.002,0.003,-0.008,0.122,-0.971,0.061,0.603,-0.181,-0.459
92,0.002,0.005,-0.007,0.124,-0.973,0.06,0.603,-0.181,-0.459
93,0.003,0.003,-0.007,0.124,-0.974,0.063,0.606,-0.18,-0.459
94,0.004,0.009,-0.007,0.124,-0.974,0.063,0.591,-0.187,-0.456
95,0.005,0.006,-0.007,0.122,-0.974,0.062,0.583,-0.169,-0.448
96,0.007,0.002,-0.008,0.119,-0.974,0.059,0.607,-0.168,-0.457
97,0.004,0.003,-0.007,0.118,-0.975,0.058,0.607,-0.183,-0.445
98,0.004,0.003,-0.007,0.118,-0.977,0.061,0.601,-0.181,-0.46
99,0.002,0.002,-0.008,0.117,-0.975,0.062,0.601,-0.181,-0.46
100,0.001,0.002,-0.008,0.118,-0.977,0.063,0.616,-0.175,-0.463
101,0.001,0.002,-0.009,0.12,-0.978,0.064,0.592,-0.177,-0.418
102,0.0,0.0,-0.009,0.119,-0.976,0.061,0.592,-0.177,-0.418
103,0.0,-0.002,-0.008,0.118,-0.978,0.06,0.6,-0.181,-0.45
104,0.0,-0.003,-0.008,0.117,-0.979,0.063,0.613,-0.172,-0.457
105,0.001,-0.007,-0.008,0.117,-0.976,0.059,0.592,-0.207,-0.441
106,0.0,-0.009,-0.009,0.12,-0.974,0.058,0.592,-0.207,-0.441
107,0.0,-0.006,-0.009,0.124,-0.974,0.062,0.609,-0.181,-0.478
108,0.0,-0.001,-0.009,0.124,-0.974,0.061,0.582,-0.184,-0.439
109,0.001,-0.003,-0.01,0.121,-0.974,0.062,0.604,-0.178,-0.439
110,0.001,-0.004,-0.01,0.121,-0.975,0.062,0.579,-0.178,-0.457
111,0.001,-0.004,-0.009,0.12,-0.977,0.059,0.621,-0.181,-0.45
112,0.0,-0.004,-0.009,0.121,-0.978,0.061,0.61,-0.169,-0.444
113,0.0,-0.005,-0.009,0.122,-0.978,0.062,0.61,-0.169,-0.444
114,0.0,-0.005,-0.009,0.122,-0.978,0.064,0.603,-0.193,-0.433
115,-0.001,-0.006,-0.009,0.122,-0.978,0.064,0.585,-0.184,-0.456
116,-0.001,-0.007,-0.008,0.122,-0.979,0.064,0.585,-0.184,-0.456
117,-0.002,-0.007,-0.008,0.123,-0.975,0.062,0.582,-0.181,-0.456
118,-0.002,-0.007,-0.008,0.123,-0.972,0.062,0.606,-0.195,-0.463
119,-0.002,-0.005,-0.008,0.121,-0.974,0.062,0.606,-0.195,-0.463
120,-0.003,-0.002,-0.008,0.122,-0.971,0.061,0.592,-0.193,-0.466
121,-0.003,-0.002,-0.009,0.123,-0.972,0.062,0.604,-0.187,-0.465
122,-0.004,-0.002,-0.01,0.125,-0.974,0.063,0.616,-0.174,-0.442
123,-0.002,-0.002,-0.01,0.124,-0.974,0.063,0.597,-0.159,-0.438
124,-0.002,-0.001,-0.011,0.121,-0.974,0.065,0.585,-0.16,-0.445
125,-0.004,-0.001,-0.011,0.119,-0.974,0.065,0.591,-0.183,-0.444
126,-0.004,-0.001,-0.01,0.118,-0.975,0.064,0.591,-0.183,-0.444
127,-0.003,0.0,-0.011,0.118,-0.976,0.064,0.613,-0.19,-0.445
128,-0.001,-0.002,-0.008,0.119,-0.974,0.064,0.603,-0.169,-0.43
129,0.0,-0.004,-0.007,0.122,-0.976,0.059,0.597,-0.186,-0.433
130,-0.002,-0.004,-0.009,0.122,-0.973,0.06,0.586,-0.183,-0.463
131,-0.002,-0.003,-0.01,0.121,-0.974,0.061,0.6,-0.184,-0.454
132,-0.003,0.0,-0.01,0.12,-0.975,0.062,0.6,-0.184,-0.454
133,-0.002,0.002,-0.011,0.12,-0.975,0.062,0.615,-0.192,-0.441
134,-0.004,0.002,-0.013,0.122,-0.976,0.063,0.591,-0.172,-0.456
135,-0.004,0.0,-0.013,0.121,-0.977,0.062,0.607,-0.178,-0.451
136,-0.004,-0.005,-0.012,0.118,-0.975,0.063,0.604,-0.184,-0.45
137,-0.004,-0.003,-0.012,0.116,-0.972,0.065,0.619,-0.19,-0.451
138,-0.004,-0.003,-0.012,0.115,-0.972,0.065,0.579,-0.175,-0.442
139,-0.003,0.0,-0.011,0.118,-0.973,0.066,0.579,-0.175,-0.442
140,-0.003,-0.005,-0.011,0.121,-0.975,0.066,0.589,-0.195,-0.468
141,-0.002,-0.007,-0.011,0.119,-0.974,0.06,0.595,-0.195,-0.447
142,-0.001,-0.007,-0.012,0.119,-0.97,0.058,0.595,-0.177,-0.46
143,0.0,0.004,-0.013,0.121,-0.97,0.059,0.585,-0.19,-0.451
144,0.0,0.0,-0.012,0.12,-0.973,0.059,0.603,-0.177,-0.441
145,0.0,-0.002,-0.011,0.117,-0.977,0.059,0.594,-0.184,-0.426
146,-0.001,-0.001,-0.012,0.114,-0.978,0.061,0.594,-0.184,-0.426
147,0.0,0.0,-0.014,0.115,-0.978,0.063,0.607,-0.193,-0.427
148,-0.002,-0.002,-0.014,0.113,-0.978,0.065,0.61,-0.171,-0.445
149,-0.002,-0.002,-0.016,0.112,-0.976,0.066,0.586,-0.187,-0.454
150,-0.004,-0.008,-0.014,0.115,-0.976,0.069,0.601,-0.177,-0.454
151,-0.008,-0.007,-0.014,0.118,-0.978,0.07,0.612,-0.187,-0.457
152,-0.006,-0.009,-0.013,0.119,-0.978,0.066,0.612,-0.166,-0.448
153,-0.004,-0.009,-0.014,0.119,-0.978,0.066,0.612,-0.166,-0.448
154,-0.001,-0.008,-0.015,0.119,-0.978,0.062,0.612,-0.18,-0.442
155,0.0,-0.007,-0.015,0.118,-0.976,0.062,0.603,-0.174,-0.447
156,0.001,-0.005,-0.016,0.114,-0.972,0.061,0.601,-0.181,-0.45
157,0.001,-0.005,-0.016,0.111,-0.969,0.062,0.606,-0.189,-0.459
158,0.002,-0.002,-0.017,0.112,-0.97,0.069,0.61,-0.174,-0.45
159,0.004,-0.003,-0.017,0.114,-0.971,0.072,0.603,-0.19,-0.462
160,0.004,-0.009,-0.016,0.116,-0.973,0.068,0.603,-0.19,-0.462
161,0.005,-0.014,-0.015,0.118,-0.973,0.064,0.588,-0.178,-0.456
162,0.006,-0.015,-0.015,0.118,-0.973,0.064,0.607,-0.166,-0.448
163,0.007,-0.017,-0.014,0.117,-0.973,0.065,0.594,-0.186,-0.451
164,0.005,-0.016,-0.014,0.115,-0.975,0.065,0.6,-0.181,-0.459
165,0.007,-0.012,-0.014,0.116,-0.976,0.064,0.595,-0.18,-0.462
166,0.009,-0.008,-0.014,0.118,-0.975,0.065,0.609,-0.19,-0.462
167,0.009,-0.009,-0.015,0.119,-0.976,0.065,0.609,-0.19,-0.462
168,0.01,-0.009,-0.015,0.117,-0.978,0.065,0.601,-0.186,-0.472
169,0.011,-0.007,-0.015,0.116,-0.978,0.065,0.589,-0.193,-0.445
170,0.011,-0.01,-0.014,0.117,-0.977,0.065,0.606,-0.175,-0.45
171,0.012,-0.009,-0.014,0.116,-0.977,0.069,0.595,-0.189,-0.448
172,0.011,-0.011,-0.015,0.116,-0.977,0.069,0.591,-0.177,-0.447
173,0.009,-0.011,-0.016,0.116,-0.98,0.07,0.607,-0.175,-0.444
174,0.008,-0.011,-0.015,0.116,-0.98,0.067,0.607,-0.175,-0.444
175,0.011,-0.014,-0.013,0.112,-0.979,0.063,0.606,-0.172,-0.456
176,0.013,-0.014,-0.012,0.112,-0.976,0.062,0.609,-0.189,-0.46
177,0.013,-0.014,-0.012,0.112,-0.974,0.064,0.589,-0.193,-0.447
178,0.012,-0.016,-0.011,0.113,-0.975,0.064,0.595,-0.189,-0.424
179,0.011,-0.015,-0.012,0.115,-0.973,0.064,0.609,-0.184,-0.456
180,0.009,-0.011,-0.012,0.116,-0.972,0.066,0.609,-0.184,-0.456
181,0.004,-0.011,-0.01,0.121,-0.975,0.067,0.601,-0.193,-0.45
182,0.003,-0.011,-0.009,0.124,-0.975,0.063,0.607,-0.181,-0.433
183,0.004,-0.009,-0.008,0.12,-0.977,0.064,0.592,-0.186,-0.438
184,0.002,-0.004,-0.009,0.12,-0.977,0.068,0.607,-0.202,-0.451
185,0.003,0.002,-0.011,0.122,-0.978,0.068,0.591,-0.195,-0.426
186,0.0,-0.001,-0.01,0.12,-0.979,0.065,0.591,-0.195,-0.426
187,-0.001,-0.003,-0.009,0.118,-0.976,0.065,0.592,-0.19,-0.445
188,0.001,-0.002,-0.008,0.118,-0.976,0.065,0.609,-0.19,-0.468
189,0.002,-0.002,-0.009,0.117,-0.975,0.065,0.607,-0.174,-0.453
190,0.002,0.0,-0.009,0.119,-0.972,0.068,0.597,-0.189,-0.456
191,0.002,0.001,-0.008,0.12,-0.972,0.069,0.592,-0.186,-0.456
192,0.002,-0.004,-0.007,0.12,-0.972,0.069,0.592,-0.186,-0.456
193,0.0,-0.004,-0.006,0.121,-0.972,0.069,0.586,-0.177,-0.439
194,0.0,-0.004,-0.005,0.119,-0.973,0.067,0.613,-0.18,-0.444
195,0.002,-0.003,-0.007,0.116,-0.976,0.065,0.597,-0.192,-0.445
196,0.003,0.0,-0.009,0.114,-0.977,0.065,0.601,-0.184,-0.45
197,0.003,0.0,-0.009,0.113,-0.976,0.066,0.613,-0.183,-0.454
198,0.003,0.001,-0.009,0.116,-0.975,0.068,0.613,-0.183,-0.454
199,0.002,0.002,-0.009,0.118,-0.974,0.068,0.582,-0.189,-0.441
200,0.002,-0.003,-0.009,0.117,-0.975,0.066,0.592,-0.169,-0.451
201,0.0,-0.007,-0.007,0.116,-0.977,0.064,0.607,-0.19,-0.459
202,-0.002,-0.007,-0.006,0.117,-0.976,0.064,0.607,-0.175,-0.445
203,0.0,-0.006,-0.007,0.115,-0.976,0.064,0.594,-0.172,-0.463
204,0.0,-0.002,-0.009,0.113,-0.978,0.064,0.594,-0.172,-0.463
205,0.0,0.0,-0.009,0.114,-0.977,0.065,0.604,-0.184,-0.447
206,-0.004,-0.002,-0.009,0.116,-0.974,0.065,0.604,-0.187,-0.442
207,0.0,-0.004,-0.009,0.115,-0.972,0.064,0.604,-0.187,-0.442
208,0.001,-0.002,-0.01,0.113,-0.973,0.063,0.606,-0.177,-0.468
209,0.002,0.0,-0.01,0.117,-0.974,0.065,0.613,-0.178,-0.438
210,0.004,0.0,-0.011,0.12,-0.975,0.066,0.585,-0.177,-0.45
211,0.004,-0.001,-0.012,0.12,-0.975,0.065,0.585,-0.177,-0.45
212,0.006,0.0,-0.011,0.12,-0.975,0.065,0.595,-0.163,-0.457
213,0.007,0.0,-0.011,0.12,-0.974,0.066,0.588,-0.163,-0.439
214,0.009,-0.002,-0.01,0.115,-0.976,0.068,0.594,-0.184,-0.46
215,0.008,-0.004,-0.011,0.111,-0.979,0.067,0.601,-0.18,-0.448
216,0.008,-0.004,-0.011,0.109,-0.978,0.062,0.586,-0.174,-0.448
217,0.007,-0.004,-0.012,0.104,-0.976,0.06,0.586,-0.174,-0.448
218,0.005,-0.002,-0.012,0.103,-0.976,0.064,0.585,-0.172,-0.453
219,0.004,-0.006,-0.011,0.107,-0.976,0.068,0.606,-0.19,-0.463
220,0.004,-0.01,-0.011,0.11,-0.975,0.067,0.616,-0.193,-0.43
221,0.004,-0.009,-0.01,0.108,-0.977,0.063,0.616,-0.193,-0.43
222,0.005,-0.007,-0.01,0.109,-0.978,0.061,0.621,-0.189,-0.439
223,0.005,-0.006,-0.012,0.111,-0.977,0.066,0.603,-0.18,-0.445
224,0.005,-0.006,-0.012,0.112,-0.976,0.066,0.603,-0.18,-0.445
225,0.006,-0.007,-0.011,0.114,-0.975,0.065,0.592,-0.18,-0.439
226,0.007,-0.009,-0.01,0.114,-0.976,0.063,0.595,-0.187,-0.442
227,0.007,-0.006,-0.009,0.114,-0.977,0.062,0.61,-0.175,-0.447
228,0.005,-0.007,-0.009,0.115,-0.975,0.062,0.616,-0.175,-0.46
229,0.007,-0.007,-0.009,0.116,-0.977,0.064,0.609,-0.184,-0.444
230,0.006,-0.009,-0.008,0.116,-0.977,0.064,0.616,-0.171,-0.457
231,0.004,-0.009,-0.009,0.115,-0.978,0.068,0.616,-0.171,-0.457
232,0.004,-0.012,-0.009,0.11,-0.978,0.07,0.604,-0.178,-0.468
233,0.003,-0.016,-0.009,0.11,-0.979,0.068,0.594,-0.186,-0.453
234,0.0,-0.016,-0.009,0.111,-0.978,0.063,0.594,-0.19,-0.441
235,0.0,-0.016,-0.009,0.108,-0.979,0.062,0.594,-0.19,-0.441
236,-0.002,-0.014,-0.009,0.113,-0.979,0.063,0.597,-0.199,-0.445
237,-0.002,-0.013,-0.007,0.115,-0.98,0.064,0.606,-0.184,-0.439
238,-0.001,-0.013,-0.005,0.113,-0.979,0.061,0.606,-0.184,-0.439
239,-0.002,-0.014,-0.004,0.111,-0.978,0.059,0.598,-0.18,-0.468
240,-0.002,-0.015,-0.003,0.107,-0.98,0.06,0.598,-0.183,-0.45
241,-0.002,-0.02,-0.002,0.103,-0.98,0.063,0.597,-0.189,-0.462
242,-0.004,-0.018,-0.003,0.101,-0.981,0.063,0.597,-0.195,-0.433
243,-0.004,-0.021,-0.004,0.101,-0.977,0.062,0.591,-0.183,-0.453
244,-0.004,-0.023,-0.007,0.106,-0.975,0.063,0.591,-0.18,-0.46
245,-0.004,-0.025,-0.009,0.112,-0.977,0.064,0.591,-0.18,-0.46
246,-0.002,-0.025,-0.011,0.116,-0.976,0.064,0.589,-0.183,-0.453
247,-0.001,-0.024,-0.011,0.121,-0.972,0.061,0.604,-0.178,-0.46
248,0.006,-0.018,-0.012,0.121,-0.97,0.063,0.601,-0.193,-0.439
249,0.008,-0.016,-0.011,0.121,-0.97,0.063,0.594,-0.175,-0.456
250,0.011,-0.014,-0.009,0.126,-0.97,0.067,0.583,-0.198,-0.469
251,0.011,-0.009,-0.007,0.129,-0.97,0.07,0.583,-0.198,-0.469
252,0.011,-0.004,-0.006,0.128,-0.972,0.07,0.594,-0.189,-0.474
253,0.013,-0.004,-0.004,0.129,-0.974,0.068,0.616,-0.175,-0.462
254,0.013,-0.004,-0.004,0.13,-0.973,0.066,0.588,-0.196,-0.462
255,0.013,-0.002,-0.004,0.129,-0.973,0.062,0.603,-0.187,-0.442
256,0.012,0.002,-0.006,0.124,-0.971,0.062,0.612,-0.169,-0.451
257,0.012,0.007,-0.006,0.12,-0.974,0.064,0.612,-0.193,-0.439
258,0.011,0.008,-0.007,0.119,-0.974,0.066,0.612,-0.193,-0.439
259,0.007,0.007,-0.008,0.118,-0.972,0.066,0.591,-0.171,-0.469
260,0.006,0.006,-0.007,0.115,-0.973,0.063,0.604,-0.186,-0.447
261,0.01,-0.001,-0.004,0.114,-0.973,0.063,0.598,-0.163,-0.442
262,0.011,0.0,-0.001,0.116,-0.974,0.062,0.604,-0.189,-0.441
263,0.014,-0.001,0.0,0.118,-0.975,0.064,0.601,-0.171,-0.445
264,0.015,-0.002,0.003,0.121,-0.976,0.064,0.594,-0.183,-0.454
265,0.016,-0.002,0.005,0.121,-0.977,0.063,0.594,-0.183,-0.454
266,0.014,-0.004,0.005,0.121,-0.977,0.058,0.591,-0.184,-0.435
267,0.014,0.0,0.004,0.12,-0.977,0.053,0.601,-0.196,-0.468
268,0.014,0.0,0.001,0.119,-0.978,0.053,0.595,-0.195,-0.438
269,0.011,0.007,0.0,0.119,-0.978,0.053,0.592,-0.183,-0.45
270,0.01,0.014,-0.004,0.12,-0.978,0.054,0.6,-0.172,-0.451
271,0.009,0.019,-0.006,0.118,-0.977,0.058,0.6,-0.19,-0.444
272,0.007,0.021,-0.007,0.117,-0.975,0.062,0.6,-0.19,-0.444
273,0.005,0.018,-0.007,0.115,-0.974,0.062,0.61,-0.178,-0.453
274,0.005,0.018,-0.007,0.113,-0.975,0.06,0.606,-0.171,-0.445
275,0.004,0.016,-0.007,0.111,-0.975,0.06,0.592,-0.169,-0.436
276,0.005,0.018,-0.007,0.111,-0.974,0.061,0.595,-0.186,-0.466
277,0.007,0.016,-0.005,0.113,-0.974,0.062,0.6,-0.18,-0.447
278,0.007,0.015,-0.002,0.113,-0.974,0.061,0.598,-0.183,-0.453
279,0.007,0.014,0.0,0.114,-0.975,0.062,0.598,-0.183,-0.453
280,0.005,0.013,0.0,0.114,-0.977,0.063,0.601,-0.187,-0.442
281,0.006,0.018,-0.002,0.115,-0.98,0.062,0.595,-0.178,-0.462
282,0.007,0.028,-0.004,0.114,-0.98,0.063,0.595,-0.192,-0.45
283,0.007,0.024,-0.006,0.113,-0.978,0.062,0.583,-0.18,-0.432
284,0.007,0.023,-0.009,0.112,-0.978,0.06,0.591,-0.174,-0.436
285,0.008,0.025,-0.01,0.112,-0.979,0.061,0.591,-0.174,-0.436
286,0.006,0.023,-0.01,0.11,-0.977,0.061,0.594,-0.178,-0.447
287,0.004,0.018,-0.01,0.108,-0.973,0.059,0.597,-0.184,-0.454
288,0.004,0.016,-0.009,0.109,-0.972,0.058,0.598,-0.162,-0.442
289,0.003,0.008,-0.006,0.109,-0.972,0.058,0.598,-0.183,-0.444
290,0.003,0.003,-0.003,0.109,-0.973,0.059,0.613,-0.172,-0.445
291,0.004,0.004,-0.002,0.109,-0.976,0.061,0.606,-0.183,-0.447
292,0.004,0.004,-0.002,0.111,-0.98,0.061,0.606,-0.183,-0.447
293,0.007,0.005,-0.002,0.113,-0.98,0.057,0.603,-0.16,-0.432
294,0.008,0.004,-0.003,0.113,-0.978,0.055,0.598,-0.19,-0.459
295,0.007,0.008,-0.004,0.111,-0.978,0.056,0.6,-0.187,-0.438
296,0.007,0.009,-0.006,0.111,-0.979,0.058,0.598,-0.205,-0.436
297,0.003,0.01,-0.007,0.11,-0.979,0.058,0.609,-0.186,-0.457
298,0.003,0.01,-0.008,0.111,-0.976,0.058,0.606,-0.184,-0.447
299,0.003,0.005,-0.009,0.112,-0.978,0.058,0.606,-0.184,-0.447
300,0.003,0.0,-0.007,0.111,-0.978,0.056,0.613,-0.174,-0.465
301,0.004,0.0,-0.006,0.11,-0.978,0.055,0.598,-0.169,-0.456
302,0.004,0.002,-0.008,0.109,-0.978,0.057,0.595,-0.18,-0.448
303,0.007,0.006,-0.009,0.112,-0.978,0.059,0.585,-0.172,-0.432
304,0.004,0.002,-0.008,0.111,-0.976,0.057,0.571,-0.196,-0.444
305,0.004,0.0,-0.007,0.108,-0.974,0.056,0.595,-0.199,-0.456
306,0.004,0.0,-0.007,0.109,-0.973,0.059,0.595,-0.199,-0.456
307,0.002,-0.002,-0.008,0.113,-0.973,0.06,0.615,-0.192,-0.457
308,0.0,-0.009,-0.008,0.113,-0.975,0.058,0.618,-0.184,-0.454
309,0.0,-0.009,-0.01,0.114,-0.975,0.058,0.595,-0.18,-0.463
310,-0.002,-0.001,-0.012,0.114,-0.976,0.057,0.6,-0.186,-0.445
311,-0.004,0.002,-0.014,0.113,-0.979,0.057,0.585,-0.177,-0.469
312,-0.004,0.002,-0.014,0.115,-0.982,0.058,0.618,-0.192,-0.462
313,-0.006,0.002,-0.017,0.118,-0.98,0.059,0.618,-0.192,-0.462
314,-0.005,0.008,-0.015,0.117,-0.977,0.06,0.609,-0.192,-0.435
315,-0.004,0.005,-0.013,0.118,-0.976,0.061,0.603,-0.198,-0.457
316,-0.004,0.004,-0.012,0.12,-0.977,0.063,0.61,-0.187,-0.447
317,-0.002,0.0,-0.011,0.117,-0.976,0.062,0.597,-0.19,-0.442
318,-0.002,0.002,-0.011,0.115,-0.975,0.058,0.585,-0.175,-0.433
319,0.0,0.004,-0.01,0.115,-0.971,0.058,0.585,-0.175,-0.433
320,0.001,0.002,-0.009,0.115,-0.97,0.059,0.619,-0.192,-0.462
321,0.002,0.002,-0.008,0.115,-0.973,0.06,0.603,-0.192,-0.435
322,0.002,0.005,-0.007,0.115,-0.977,0.061,0.625,-0.178,-0.456
323,0.004,0.006,-0.007,0.112,-0.979,0.057,0.616,-0.175,-0.448
324,0.002,0.009,-0.009,0.112,-0.979,0.055,0.591,-0.174,-0.442
325,0.004,0.002,-0.008,0.111,-0.978,0.057,0.591,-0.174,-0.442
326,0.002,0.0,-0.009,0.109,-0.978,0.059,0.615,-0.166,-0.457
327,0.004,0.001,-0.009,0.112,-0.978,0.062,0.606,-0.201,-0.448
328,0.002,0.0,-0.009,0.112,-0.978,0.062,0.591,-0.184,-0.45
329,0.0,-0.001,-0.008,0.115,-0.976,0.063,0.603,-0.178,-0.463
330,0.0,0.0,-0.008,0.116,-0.975,0.064,0.594,-0.192,-0.433
331,0.0,0.0,-0.007,0.116,-0.976,0.065,0.594,-0.192,-0.433
332,0.0,-0.001,-0.004,0.118,-0.973,0.064,0.597,-0.187,-0.441
333,0.0,-0.001,-0.004,0.12,-0.971,0.063,0.604,-0.186,-0.441
334,0.001,-0.002,-0.004,0.119,-0.973,0.06,0.585,-0.189,-0.451
335,0.002,0.0,-0.004,0.119,-0.975,0.057,0.597,-0.187,-0.442
336,0.003,0.002,-0.004,0.12,-0.977,0.057,0.582,-0.177,-0.445
337,0.004,0.004,-0.004,0.122,-0.979,0.061,0.582,-0.177,-0.445
338,0.002,0.002,-0.004,0.121,-0.978,0.064,0.597,-0.201,-0.451
339,0.004,0.003,-0.004,0.118,-0.975,0.062,0.597,-0.201,-0.451
340,0.004,0.002,-0.004,0.116,-0.975,0.061,0.615,-0.187,-0.451
341,0.002,0.0,-0.004,0.117,-0.977,0.06,0.591,-0.18,-0.447
342,0.002,-0.002,-0.003,0.116,-0.976,0.056,0.592,-0.163,-0.45
343,0.001,-0.002,-0.004,0.114,-0.977,0.059,0.592,-0.163,-0.45
344,0.0,0.0,-0.004,0.114,-0.976,0.062,0.597,-0.18,-0.451
345,0.0,0.005,-0.004,0.113,-0.975,0.063,0.598,-0.195,-0.442
346,0.0,0.005,-0.005,0.112,-0.974,0.062,0.589,-0.181,-0.441
347,0.0,0.007,-0.005,0.113,-0.972,0.063,0.612,-0.189,-0.454
348,0.001,0.009,-0.006,0.113,-0.972,0.063,0.597,-0.174,-0.453
349,0.002,0.007,-0.004,0.114,-0.973,0.064,0.598,-0.189,-0.444
350,0.002,0.006,-0.003,0.115,-0.973,0.06,0.598,-0.189,-0.444
351,0.002,0.005,-0.002,0.118,-0.973,0.06,0.612,-0.198,-0.453
352,0.004,0.004,-0.003,0.12,-0.973,0.06,0.598,-0.178,-0.438
353,0.004,0.004,-0.003,0.118,-0.976,0.063,0.598,-0.178,-0.438
354,0.005,0.001,-0.002,0.117,-0.978,0.064,0.603,-0.169,-0.451
355,0.005,0.003,-0.001,0.118,-0.979,0.062,0.615,-0.181,-0.456
356,0.004,0.004,-0.002,0.118,-0.98,0.061,0.595,-0.181,-0.462
357,0.004,0.004,-0.002,0.12,-0.979,0.059,0.595,-0.181,-0.462
358,0.004,0.004,-0.004,0.118,-0.975,0.057,0.603,-0.19,-0.448
359,0.004,0.0,-0.004,0.112,-0.974,0.058,0.607,-0.184,-0.435
360,0.0,0.004,-0.007,0.106,-0.976,0.061,0.603,-0.178,-0.457
361,0.002,0.006,-0.007,0.105,-0.977,0.063,0.612,-0.171,-0.439
362,0.002,0.004,-0.006,0.107,-0.976,0.063,0.597,-0.18,-0.463
363,0.0,0.002,-0.005,0.111,-0.976,0.062,0.604,-0.175,-0.451
364,0.001,0.0,-0.005,0.112,-0.975,0.06,0.604,-0.175,-0.451
365,0.002,0.0,-0.005,0.116,-0.974,0.059,0.606,-0.18,-0.465
366,0.0,0.0,-0.004,0.116,-0.972,0.06,0.598,-0.172,-0.441
367,0.0,0.0,-0.004,0.117,-0.974,0.06,0.612,-0.184,-0.451
368,0.0,0.0,-0.003,0.117,-0.974,0.06,0.604,-0.175,-0.45
369,0.0,-0.005,-0.002,0.116,-0.975,0.06,0.607,-0.169,-0.456
370,-0.001,-0.007,-0.002,0.116,-0.977,0.059,0.607,-0.169,-0.456
371,-0.002,-0.005,-0.002,0.117,-0.979,0.059,0.591,-0.19,-0.438
372,-0.002,-0.005,-0.002,0.119,-0.978,0.061,0.597,-0.198,-0.466
373,-0.003,-0.009,-0.001,0.121,-0.98,0.064,0.604,-0.183,-0.447
374,-0.004,-0.008,-0.001,0.122,-0.98,0.061,0.606,-0.187,-0.468
375,-0.005,-0.004,0.0,0.123,-0.98,0.063,0.612,-0.19,-0.454
376,-0.006,-0.003,0.0,0.122,-0.981,0.063,0.612,-0.19,-0.454
377,-0.008,-0.002,0.0,0.122,-0.979,0.062,0.6,-0.175,-0.441
378,-0.009,-0.001,0.0,0.122,-0.977,0.061,0.592,-0.178,-0.454
379,-0.01,0.002,0.0,0.12,-0.977,0.058,0.597,-0.183,-0.444
380,-0.009,0.004,0.0,0.119,-0.976,0.059,0.586,-0.183,-0.424
381,-0.009,0.005,0.0,0.118,-0.974,0.062,0.591,-0.18,-0.463
382,-0.009,0.004,0.0,0.119,-0.973,0.062,0.591,-0.18,-0.463
383,-0.011,0.007,0.0,0.12,-0.973,0.061,0.595,-0.172,-0.445
384,-0.011,0.007,0.0,0.12,-0.975,0.06,0.592,-0.171,-0.454
385,-0.01,0.009,0.0,0.12,-0.975,0.06,0.609,-0.166,-0.456
386,-0.01,0.013,0.0,0.12,-0.976,0.06,0.601,-0.175,-0.448
387,-0.01,0.011,-0.001,0.118,-0.976,0.058,0.595,-0.186,-0.46
388,-0.007,0.009,-0.002,0.115,-0.976,0.056,0.595,-0.186,-0.46
389,-0.007,0.01,-0.002,0.114,-0.974,0.055,0.61,-0.172,-0.456
390,-0.007,0.01,-0.002,0.113,-0.976,0.057,0.586,-0.18,-0.439
391,-0.007,0.009,-0.003,0.114,-0.978,0.06,0.613,-0.16,-0.447
392,-0.007,0.007,-0.004,0.115,-0.977,0.06,0.609,-0.175,-0.466
393,-0.008,0.004,-0.004,0.116,-0.978,0.055,0.586,-0.181,-0.453
394,-0.012,0.002,-0.004,0.117,-0.978,0.055,0.586,-0.181,-0.453
395,-0.011,0.006,-0.006,0.117,-0.976,0.058,0.597,-0.18,-0.45
396,-0.01,0.009,-0.005,0.118,-0.978,0.057,0.6,-0.178,-0.453
397,-0.01,0.012,-0.005,0.119,-0.98,0.057,0.607,-0.183,-0.447
398,-0.011,0.016,-0.005,0.119,-0.981,0.063,0.6,-0.186,-0.439
399,-0.01,0.015,-0.006,0.121,-0.982,0.063,0.601,-0.19,-0.462
400,-0.012,0.009,-0.005,0.123,-0.981,0.059,0.601,-0.19,-0.462
401,-0.018,-0.003,-0.003,0.122,-0.977,0.057,0.609,-0.193,-0.459
402,-0.02,-0.001,-0.004,0.118,-0.976,0.055,0.609,-0.168,-0.442
403,-0.021,0.002,-0.005,0.121,-0.977,0.053,0.615,-0.187,-0.468
404,-0.021,0.014,-0.007,0.127,-0.974,0.049,0.582,-0.189,-0.457
405,-0.023,0.03,-0.01,0.127,-0.974,0.049,0.609,-0.186,-0.45
406,-0.023,0.045,-0.011,0.129,-0.971,0.048,0.609,-0.186,-0.45
407,-0.028,0.052,-0.011,0.131,-0.97,0.053,0.607,-0.189,-0.445
408,-0.036,0.054,-0.009,0.136,-0.969,0.054,0.619,-0.172,-0.439
409,-0.041,0.058,-0.01,0.14,-0.97,0.053,0.604,-0.181,-0.442
410,-0.041,0.058,-0.01,0.143,-0.972,0.054,0.601,-0.193,-0.448
411,-0.046,0.061,-0.009,0.146,-0.977,0.051,0.589,-0.177,-0.462
412,-0.051,0.067,-0.009,0.149,-0.982,0.05,0.589,-0.177,-0.462
413,-0.054,0.079,-0.012,0.15,-0.987,0.057,0.621,-0.181,-0.448
414,-0.058,0.09,-0.012,0.15,-0.989,0.068,0.609,-0.196,-0.451
415,-0.063,0.106,-0.011,0.157,-0.986,0.075,0.606,-0.168,-0.444
416,-0.068,0.109,-0.009,0.166,-0.983,0.074,0.606,-0.168,-0.444
417,-0.073,0.108,-0.006,0.166,-0.978,0.065,0.603,-0.166,-0.433
418,-0.077,0.111,-0.004,0.163,-0.973,0.055,0.604,-0.186,-0.45
419,-0.075,0.117,-0.002,0.163,-0.972,0.053,0.604,-0.186,-0.45
420,-0.076,0.128,0.001,0.159,-0.976,0.057,0.615,-0.18,-0.45
421,-0.079,0.14,0.004,0.159,-0.981,0.061,0.603,-0.174,-0.466
422,-0.08,0.144,0.009,0.16,-0.981,0.064,0.609,-0.192,-0.474
423,-0.082,0.137,0.011,0.156,-0.978,0.068,0.619,-0.174,-0.46
424,-0.088,0.129,0.015,0.156,-0.978,0.068,0.604,-0.174,-0.456
425,-0.094,0.123,0.016,0.151,-0.98,0.068,0.591,-0.187,-0.472
426,-0.097,0.119,0.018,0.147,-0.982,0.064,0.591,-0.187,-0.472
427,-0.099,0.119,0.017,0.144,-0.98,0.063,0.613,-0.162,-0.463
428,-0.1,0.119,0.016,0.144,-0.976,0.063,0.6,-0.183,-0.453
429,-0.1,0.119,0.016,0.143,-0.976,0.059,0.604,-0.18,-0.445
430,-0.102,0.121,0.011,0.142,-0.976,0.057,0.612,-0.171,-0.468
431,-0.105,0.126,0.011,0.138,-0.976,0.055,0.607,-0.178,-0.465
432,-0.108,0.129,0.009,0.134,-0.977,0.052,0.613,-0.195,-0.469
433,-0.11,0.13,0.004,0.132,-0.979,0.053,0.613,-0.195,-0.469
434,-0.112,0.134,0.0,0.129,-0.982,0.057,0.616,-0.171,-0.456
435,-0.114,0.136,-0.001,0.128,-0.985,0.058,0.619,-0.166,-0.456
436,-0.114,0.14,-0.003,0.124,-0.984,0.055,0.606,-0.165,-0.46
437,-0.116,0.132,-0.004,0.119,-0.984,0.054,0.616,-0.184,-0.468
438,-0.121,0.128,-0.003,0.116,-0.985,0.061,0.625,-0.168,-0.456
439,-0.124,0.121,0.0,0.112,-0.985,0.069,0.607,-0.181,-0.466
440,-0.128,0.107,0.001,0.107,-0.988,0.069,0.607,-0.181,-0.466
441,-0.131,0.089,0.003,0.101,-0.99,0.07,0.618,-0.171,-0.474
442,-0.135,0.073,0.002,0.099,-0.991,0.073,0.619,-0.163,-0.484
443,-0.139,0.059,0.003,0.094,-0.994,0.073,0.607,-0.154,-0.456
444,-0.141,0.035,0.001,0.094,-0.994,0.073,0.606,-0.165,-0.456
445,-0.144,0.016,-0.005,0.081,-0.994,0.069,0.612,-0.168,-0.474
446,-0.149,0.009,-0.011,0.07,-0.993,0.065,0.607,-0.165,-0.466
447,-0.154,0.01,-0.022,0.067,-0.989,0.064,0.607,-0.165,-0.466
448,-0.16,0.016,-0.039,0.064,-0.988,0.062,0.621,-0.165,-0.472
449,-0.16,0.016,-0.039,0.064,-0.997,0.06,0.612,-0.169,-0.49
450,-0.165,0.027,-0.05,0.062,-0.999,0.057,0.63,-0.148,-0.472
451,-0.175,0.04,-0.067,0.056,-0.996,0.051,0.609,-0.163,-0.474
452,-0.191,0.056,-0.086,0.044,-0.998,0.049,0.621,-0.198,-0.469
453,-0.206,0.054,-0.101,0.024,-0.995,0.055,0.621,-0.198,-0.469
454,-0.216,0.032,-0.118,0.003,-0.992,0.054,0.616,-0.154,-0.475
455,-0.224,0.005,-0.132,-0.024,-0.987,0.043,0.618,-0.148,-0.471
456,-0.227,-0.026,-0.149,-0.046,-0.982,0.05,0.621,-0.162,-0.484
457,-0.233,-0.071,-0.162,-0.059,-0.985,0.071,0.61,-0.136,-0.463
458,-0.231,-0.109,-0.179,-0.068,-0.992,0.09,0.618,-0.151,-0.484
459,-0.227,-0.153,-0.194,-0.063,-1.005,0.107,0.618,-0.151,-0.484
460,-0.221,-0.188,-0.207,-0.055,-1.021,0.127,0.633,-0.168,-0.472
461,-0.212,-0.224,-0.218,-0.043,-1.046,0.143,0.619,-0.156,-0.484
462,-0.204,-0.27,-0.216,-0.025,-1.067,0.161,0.616,-0.142,-0.483
463,-0.196,-0.343,-0.2,-0.017,-1.063,0.18,0.627,-0.153,-0.486
464,-0.19,-0.438,-0.185,-0.019,-1.035,0.192,0.598,-0.154,-0.484
465,-0.182,-0.543,-0.175,-0.019,-1.035,0.192,0.598,-0.154,-0.484
466,-0.168,-0.63,-0.168,-0.028,-1.001,0.191,0.613,-0.145,-0.477
467,-0.141,-0.688,-0.165,-0.024,-0.963,0.17,0.621,-0.153,-0.492
468,-0.119,-0.735,-0.171,0.001,-0.936,0.154,0.613,-0.15,-0.511
469,-0.119,-0.735,-0.171,0.029,-0.924,0.167,0.603,-0.157,-0.477
470,-0.107,-0.777,-0.185,0.058,-0.927,0.184,0.613,-0.139,-0.486
471,-0.113,-0.802,-0.207,0.085,-0.933,0.198,0.613,-0.139,-0.486
472,-0.136,-0.812,-0.238,0.093,-0.93,0.207,0.589,-0.135,-0.499
473,-0.167,-0.821,-0.275,0.09,-0.923,0.215,0.606,-0.142,-0.492
474,-0.195,-0.833,-0.307,0.089,-0.92,0.217,0.616,-0.154,-0.487
475,-0.211,-0.839,-0.331,0.086,-0.913,0.203,0.609,-0.142,-0.511
476,-0.206,-0.831,-0.352,0.075,-0.902,0.184,0.6,-0.132,-0.504
477,-0.199,-0.81,-0.364,0.057,-0.889,0.175,0.6,-0.132,-0.504
478,-0.186,-0.81,-0.387,0.056,-0.876,0.158,0.6,-0.121,-0.499
479,-0.163,-0.826,-0.408,0.065,-0.866,0.127,0.6,-0.121,-0.499
480,-0.117,-0.848,-0.42,0.064,-0.861,0.097,0.589,-0.126,-0.502
481,-0.065,-0.868,-0.432,0.072,-0.855,0.075,0.6,-0.141,-0.511
482,-0.005,-0.896,-0.44,0.078,-0.86,0.077,0.574,-0.123,-0.496
483,0.036,-0.919,-0.436,0.067,-0.875,0.092,0.574,-0.123,-0.496
484,0.081,-0.945,-0.429,0.067,-0.875,0.092,0.58,-0.132,-0.517
485,0.132,-0.953,-0.434,0.048,-0.879,0.096,0.558,-0.127,-0.522
486,0.176,-0.932,-0.439,0.026,-0.887,0.091,0.567,-0.115,-0.505
487,0.212,-0.885,-0.441,0.012,-0.905,0.075,0.58,-0.13,-0.525
488,0.212,-0.885,-0.441,0.002,-0.93,0.058,0.577,-0.138,-0.523
489,0.252,-0.823,-0.442,-0.006,-0.945,0.051,0.559,-0.127,-0.516
490,0.294,-0.782,-0.433,-0.02,-0.942,0.048,0.559,-0.127,-0.516
491,0.327,-0.771,-0.42,-0.037,-0.943,0.051,0.564,-0.144,-0.492
492,0.348,-0.827,-0.406,-0.064,-0.986,0.076,0.538,-0.141,-0.486
493,0.325,-0.849,-0.415,-0.077,-1.029,0.087,0.567,-0.147,-0.499
494,0.285,-0.859,-0.413,-0.086,-1.057,0.08,0.552,-0.132,-0.505
495,0.263,-0.882,-0.408,-0.081,-1.06,0.066,0.537,-0.157,-0.493
496,0.26,-0.938,-0.38,-0.048,-1.063,0.06,0.537,-0.157,-0.493
497,0.256,-1.019,-0.312,-0.083,-1.049,0.022,0.564,-0.171,-0.505
498,0.229,-1.069,-0.345,-0.117,-1.039,-0.012,0.567,-0.147,-0.507
499,0.207,-1.141,-0.28,-0.042,-1.064,0.013,0.549,-0.127,-0.493
500,0.173,-1.294,-0.19,-0.065,-1.067,0.04,0.523,-0.15,-0.498
501,0.149,-1.432,-0.151,-0.065,-1.067,0.04,0.529,-0.144,-0.496
502,0.131,-1.547,-0.124,-0.085,-1.062,0.054,0.526,-0.151,-0.486
503,0.103,-1.589,-0.092,-0.023,-1.067,0.059,0.526,-0.151,-0.486
504,0.08,-1.568,-0.072,0.001,-1.059,0.033,0.528,-0.165,-0.496
505,0.059,-1.52,-0.059,0.022,-1.048,0.015,0.516,-0.154,-0.498
506,0.059,-1.52,-0.059,0.042,-1.038,0.028,0.501,-0.156,-0.48
507,0.035,-1.463,-0.047,0.051,-1.022,0.047,0.501,-0.156,-0.48
508,0.016,-1.411,-0.037,0.048,-0.995,0.062,0.507,-0.147,-0.493
509,0.007,-1.372,-0.03,0.042,-0.964,0.068,0.472,-0.159,-0.496
510,-0.004,-1.334,-0.027,0.047,-0.943,0.059,0.472,-0.159,-0.496
511,-0.014,-1.301,-0.021,0.061,-0.928,0.063,0.477,-0.15,-0.469
512,-0.028,-1.272,-0.009,0.076,-0.922,0.075,0.465,-0.166,-0.478
513,-0.032,-1.23,0.007,0.087,-0.927,0.092,0.457,-0.174,-0.49
514,-0.026,-1.174,0.026,0.093,-0.933,0.092,0.472,-0.166,-0.469
515,-0.001,-1.126,0.049,0.093,-0.93,0.086,0.448,-0.151,-0.481
516,0.037,-1.101,0.064,0.081,-0.92,0.101,0.439,-0.171,-0.465
517,0.037,-1.11,0.082,0.063,-0.906,0.103,0.439,-0.171,-0.465
518,0.053,-1.137,0.097,0.06,-0.889,0.09,0.448,-0.154,-0.48
519,0.069,-1.136,0.103,0.064,-0.887,0.077,0.441,-0.153,-0.463
520,0.075,-1.069,0.095,0.084,-0.906,0.113,0.435,-0.154,-0.459
521,0.085,-0.979,0.095,0.103,-0.941,0.199,0.435,-0.154,-0.459
522,0.091,-0.943,0.116,0.103,-0.941,0.199,0.439,-0.151,-0.454
523,0.111,-0.969,0.161,0.144,-0.98,0.236,0.417,-0.138,-0.457
524,0.167,-1.066,0.229,0.204,-0.998,0.239,0.417,-0.138,-0.457
525,0.266,-1.091,0.258,0.221,-0.978,0.177,0.418,-0.154,-0.448
526,0.35,-0.975,0.235,0.172,-0.974,0.067,0.412,-0.147,-0.456
527,0.35,-0.975,0.235,0.106,-1.044,0.041,0.412,-0.151,-0.447
528,0.414,-0.77,0.17,0.094,-1.168,0.1,0.4,-0.142,-0.454
529,0.411,-0.647,0.12,0.092,-1.296,0.139,0.412,-0.147,-0.465
530,0.35,-0.55,0.071,0.093,-1.376,0.135,0.412,-0.147,-0.465
531,0.217,-0.44,0.037,0.096,-1.345,0.161,0.396,-0.15,-0.448
532,0.062,-0.396,0.053,0.123,-1.183,0.217,0.396,-0.163,-0.438
533,-0.061,-0.485,0.107,0.172,-1.007,0.257,0.394,-0.159,-0.445
534,-0.12,-0.637,0.167,0.17,-0.871,0.259,0.39,-0.153,-0.423
535,-0.156,-0.779,0.203,0.115,-0.804,0.228,0.382,-0.156,-0.418
536,-0.172,-0.848,0.228,0.054,-0.848,0.213,0.373,-0.16,-0.451
537,-0.179,-0.925,0.247,0.04,-0.927,0.214,0.373,-0.16,-0.451
538,-0.168,-1.001,0.272,0.104,-0.975,0.151,0.37,-0.144,-0.433
539,-0.137,-1.036,0.303,0.188,-0.971,0.07,0.385,-0.151,-0.429
540,-0.091,-1.066,0.324,0.233,-0.926,0.018,0.388,-0.144,-0.441
541,-0.045,-1.071,0.316,0.226,-0.885,-0.017,0.381,-0.153,-0.429
542,-0.042,-1.042,0.27,0.226,-0.885,-0.017,0.348,-0.148,-0.42
543,-0.064,-0.985,0.219,0.19,-0.893,-0.017,0.354,-0.157,-0.408
544,-0.079,-0.978,0.158,0.185,-0.921,0.005,0.354,-0.157,-0.408
545,-0.081,-1.003,0.107,0.204,-0.939,0.015,0.34,-0.151,-0.412
546,-0.096,-1.073,0.055,0.216,-0.955,0.02,0.325,-0.141,-0.406
547,-0.096,-1.073,0.055,0.184,-0.965,0.047,0.34,-0.145,-0.399
548,-0.133,-1.156,-0.003,0.146,-0.984,0.07,0.339,-0.156,-0.402
549,-0.169,-1.227,-0.03,0.136,-0.998,0.031,0.315,-0.141,-0.396
550,-0.187,-1.294,-0.035,0.136,-0.993,-0.008,0.319,-0.127,-0.403
551,-0.193,-1.354,-0.025,0.174,-0.988,-0.017,0.319,-0.127,-0.403
552,-0.191,-1.386,-0.001,0.227,-0.988,-0.025,0.336,-0.153,-0.393
553,-0.182,-1.416,0.026,0.263,-0.991,-0.018,0.328,-0.145,-0.39
554,-0.184,-1.453,0.044,0.276,-0.998,0.0,0.325,-0.136,-0.391
555,-0.2,-1.479,0.048,0.274,-0.994,0.015,0.345,-0.151,-0.381
556,-0.226,-1.52,0.043,0.239,-0.981,0.023,0.31,-0.154,-0.37
557,-0.256,-1.558,0.03,0.2,-0.975,0.022,0.3,-0.139,-0.364
558,-0.284,-1.572,0.019,0.176,-0.975,0.025,0.3,-0.139,-0.364
559,-0.308,-1.615,0.007,0.155,-0.979,0.033,0.303,-0.133,-0.354
560,-0.325,-1.685,0.01,0.142,-0.982,0.024,0.3,-0.12,-0.358
561,-0.338,-1.752,0.012,0.145,-0.987,-0.008,0.286,-0.135,-0.342
562,-0.346,-1.804,0.018,0.145,-0.987,-0.008,0.282,-0.124,-0.322
563,-0.347,-1.855,0.027,0.165,-1.001,-0.016,0.309,-0.144,-0.321
564,-0.343,-1.934,0.029,0.155,-1.009,-0.007,0.291,-0.135,-0.348
565,-0.343,-1.934,0.029,0.129,-1.005,-0.013,0.291,-0.135,-0.348
566,-0.336,-2.011,0.037,0.139,-0.996,-0.016,0.295,-0.147,-0.331
567,-0.333,-2.062,0.036,0.157,-0.973,-0.021,0.264,-0.136,-0.319
568,-0.339,-2.111,0.039,0.174,-0.951,-0.022,0.267,-0.127,-0.289
569,-0.322,-2.146,0.032,0.185,-0.92,-0.042,0.27,-0.141,-0.292
570,-0.313,-2.151,0.024,0.214,-0.901,-0.052,0.273,-0.123,-0.267
571,-0.322,-2.135,0.012,0.264,-0.912,-0.051,0.277,-0.136,-0.271
572,-0.31,-2.121,0.015,0.287,-0.928,-0.073,0.277,-0.136,-0.271
573,-0.28,-2.082,0.011,0.327,-0.944,-0.074,0.279,-0.124,-0.276
574,-0.258,-2.002,0.009,0.358,-0.953,-0.06,0.267,-0.117,-0.268
575,-0.256,-1.954,0.013,0.396,-0.95,-0.042,0.252,-0.13,-0.247
576,-0.27,-1.897,0.018,0.386,-0.95,-0.053,0.27,-0.123,-0.22
577,-0.28,-1.838,0.007,0.341,-0.941,-0.074,0.241,-0.132,-0.247
578,-0.277,-1.789,0.014,0.344,-0.934,-0.033,0.255,-0.129,-0.229
579,-0.288,-1.775,0.021,0.319,-0.933,-0.024,0.255,-0.129,-0.229
580,-0.278,-1.736,0.018,0.323,-0.935,-0.053,0.28,-0.147,-0.228
581,-0.259,-1.689,0.029,0.323,-0.935,-0.053,0.25,-0.127,-0.22
582,-0.24,-1.659,0.042,0.393,-0.927,-0.029,0.264,-0.148,-0.201
583,-0.238,-1.602,0.049,0.437,-0.91,-0.015,0.252,-0.157,-0.186
584,-0.259,-1.529,0.072,0.43,-0.911,-0.007,0.271,-0.133,-0.175
585,-0.259,-1.529,0.072,0.43,-0.916,0.016,0.255,-0.141,-0.178
586,-0.27,-1.491,0.06,0.451,-0.915,0.033,0.255,-0.141,-0.178
587,-0.27,-1.473,0.057,0.445,-0.904,0.029,0.265,-0.138,-0.171
588,-0.277,-1.434,0.06,0.443,-0.902,0.009,0.261,-0.139,-0.156
589,-0.297,-1.376,0.068,0.416,-0.902,0.004,0.271,-0.141,-0.175
590,-0.306,-1.313,0.043,0.389,-0.895,0.005,0.27,-0.13,-0.163
591,-0.319,-1.261,0.023,0.411,-0.897,0.01,0.259,-0.123,-0.153
592,-0.336,-1.204,0.007,0.419,-0.899,0.011,0.279,-0.144,-0.145
593,-0.343,-1.141,-0.001,0.434,-0.886,0.005,0.279,-0.144,-0.145
594,-0.348,-1.106,-0.009,0.452,-0.861,0.008,0.273,-0.117,-0.142
595,-0.354,-1.061,-0.014,0.465,-0.857,0.002,0.265,-0.141,-0.144
596,-0.365,-0.976,-0.015,0.465,-0.864,-0.032,0.291,-0.13,-0.133
597,-0.373,-0.756,-0.019,0.542,-0.894,-0.029,0.298,-0.132,-0.129
598,-0.382,-0.632,-0.032,0.549,-0.903,-0.045,0.298,-0.132,-0.129
599,-0.404,-0.494,-0.049,0.544,-0.918,-0.058,0.301,-0.139,-0.136
600,-0.42,-0.364,-0.063,0.544,-0.918,-0.058,0.292,-0.151,-0.132
601,-0.42,-0.275,-0.084,0.518,-0.936,-0.053,0.283,-0.159,-0.132
602,-0.406,-0.233,-0.091,0.475,-0.958,-0.027,0.288,-0.138,-0.127
603,-0.402,-0.216,-0.105,0.408,-0.977,0.0,0.283,-0.142,-0.141
604,-0.402,-0.216,-0.105,0.305,-0.988,0.017,0.283,-0.142,-0.141
605,-0.406,-0.187,-0.097,0.194,-0.997,0.057,0.301,-0.141,-0.135
606,-0.419,-0.217,-0.105,0.112,-0.999,0.107,0.304,-0.154,-0.145
607,-0.414,-0.285,-0.101,0.062,-1.0,0.134,0.291,-0.141,-0.132
608,-0.4,-0.371,-0.096,0.044,-1.008,0.126,0.291,-0.148,-0.133
609,-0.41,-0.42,-0.086,0.048,-1.012,0.088,0.301,-0.157,-0.133
610,-0.444,-0.413,-0.094,0.036,-0.997,0.036,0.301,-0.157,-0.133
611,-0.483,-0.347,-0.114,0.067,-0.992,0.009,0.3,-0.157,-0.132
612,-0.507,-0.271,-0.133,0.143,-1.006,0.02,0.295,-0.163,-0.139
613,-0.515,-0.191,-0.158,0.186,-1.007,0.046,0.295,-0.163,-0.139
614,-0.508,-0.144,-0.171,0.232,-1.004,0.065,0.313,-0.153,-0.147
615,-0.499,-0.109,-0.157,0.249,-0.994,0.088,0.303,-0.165,-0.132
616,-0.482,-0.133,-0.171,0.245,-0.978,0.126,0.303,-0.165,-0.15
617,-0.458,-0.14,-0.143,0.223,-0.964,0.166,0.303,-0.165,-0.15
618,-0.442,-0.193,-0.147,0.129,-0.927,0.21,0.3,-0.163,-0.159
619,-0.414,-0.268,-0.153,0.092,-0.919,0.243,0.303,-0.148,-0.142
620,-0.392,-0.336,-0.147,0.092,-0.919,0.243,0.309,-0.159,-0.139
621,-0.376,-0.409,-0.163,0.081,-0.934,0.277,0.316,-0.171,-0.147
622,-0.366,-0.422,-0.154,0.064,-0.923,0.283,0.319,-0.171,-0.144
623,-0.36,-0.415,-0.167,0.097,-0.906,0.254,0.303,-0.187,-0.145
624,-0.36,-0.415,-0.167,0.106,-0.878,0.246,0.303,-0.187,-0.145
625,-0.348,-0.391,-0.194,0.108,-0.849,0.26,0.321,-0.171,-0.159
626,-0.326,-0.375,-0.216,0.139,-0.842,0.257,0.321,-0.175,-0.153
627,-0.306,-0.375,-0.234,0.144,-0.836,0.255,0.321,-0.175,-0.153
628,-0.284,-0.378,-0.248,0.112,-0.82,0.261,0.315,-0.166,-0.136
629,-0.254,-0.382,-0.269,0.098,-0.82,0.257,0.345,-0.177,-0.136
630,-0.223,-0.386,-0.292,0.101,-0.846,0.247,0.313,-0.18,-0.148
631,-0.224,-0.398,-0.308,0.118,-0.88,0.222,0.313,-0.18,-0.148
632,-0.226,-0.388,-0.308,0.139,-0.897,0.195,0.339,-0.172,-0.159
633,-0.212,-0.362,-0.303,0.136,-0.899,0.194,0.321,-0.16,-0.15
634,-0.186,-0.322,-0.31,0.14,-0.895,0.211,0.327,-0.171,-0.144
635,-0.17,-0.292,-0.315,0.156,-0.89,0.238,0.318,-0.174,-0.147
636,-0.15,-0.3,-0.313,0.162,-0.892,0.265,0.348,-0.18,-0.169
637,-0.11,-0.33,-0.308,0.178,-0.908,0.27,0.333,-0.178,-0.151
638,-0.064,-0.373,-0.298,0.194,-0.931,0.267,0.333,-0.178,-0.151
639,-0.017,-0.403,-0.284,0.194,-0.958,0.261,0.351,-0.177,-0.138
640,0.028,-0.41,-0.27,0.206,-0.958,0.261,0.312,-0.19,-0.123
641,0.074,-0.394,-0.256,0.204,-0.969,0.243,0.312,-0.19,-0.123
642,0.116,-0.362,-0.243,0.188,-0.967,0.228,0.342,-0.183,-0.145
643,0.15,-0.326,-0.235,0.169,-0.954,0.226,0.343,-0.19,-0.144
644,0.15,-0.326,-0.235,0.136,-0.938,0.241,0.372,-0.204,-0.136
645,0.168,-0.293,-0.238,0.112,-0.928,0.26,0.372,-0.204,-0.136
646,0.173,-0.273,-0.242,0.107,-0.927,0.272,0.351,-0.196,-0.141
647,0.17,-0.277,-0.237,0.1,-0.932,0.268,0.361,-0.181,-0.132
648,0.167,-0.296,-0.233,0.091,-0.943,0.256,0.361,-0.181,-0.132
649,0.165,-0.302,-0.224,0.086,-0.956,0.242,0.351,-0.204,-0.142
650,0.178,-0.304,-0.212,0.08,-0.963,0.223,0.348,-0.196,-0.133
651,0.205,-0.315,-0.195,0.075,-0.971,0.214,0.363,-0.208,-0.135
652,0.219,-0.326,-0.175,0.075,-0.967,0.214,0.363,-0.208,-0.135
653,0.228,-0.34,-0.155,0.079,-0.954,0.212,0.358,-0.193,-0.13
654,0.24,-0.357,-0.14,0.079,-0.943,0.202,0.358,-0.186,-0.111
655,0.259,-0.379,-0.131,0.071,-0.943,0.195,0.364,-0.202,-0.117
656,0.278,-0.391,-0.127,0.064,-0.957,0.193,0.379,-0.205,-0.126
657,0.289,-0.37,-0.126,0.083,-0.989,0.195,0.391,-0.184,-0.115
658,0.293,-0.338,-0.11,0.108,-1.018,0.204,0.373,-0.19,-0.108
659,0.291,-0.312,-0.094,0.108,-1.018,0.204,0.373,-0.19,-0.108
660,0.273,-0.294,-0.074,0.123,-1.034,0.203,0.376,-0.19,-0.111
661,0.249,-0.28,-0.051,0.137,-1.045,0.2,0.379,-0.198,-0.085
662,0.231,-0.282,-0.031,0.148,-1.048,0.209,0.379,-0.198,-0.085
663,0.235,-0.311,0.0,0.15,-1.036,0.221,0.367,-0.19,-0.07
664,0.235,-0.311,0.0,0.153,-1.008,0.21,0.369,-0.195,-0.082
665,0.236,-0.35,0.007,0.169,-0.997,0.187,0.388,-0.186,-0.085
666,0.227,-0.41,0.039,0.159,-0.981,0.159,0.388,-0.186,-0.085
667,0.215,-0.44,0.046,0.123,-0.954,0.114,0.375,-0.196,-0.094
668,0.224,-0.399,0.029,0.095,-0.93,0.071,0.366,-0.196,-0.064
669,0.233,-0.302,0.002,0.084,-0.917,0.057,0.382,-0.187,-0.094
670,0.216,-0.201,-0.032,0.108,-0.903,0.063,0.367,-0.174,-0.079
671,0.219,-0.153,-0.037,0.12,-0.911,0.088,0.373,-0.183,-0.093
672,0.221,-0.133,-0.032,0.11,-0.935,0.115,0.379,-0.184,-0.084
673,0.224,-0.144,-0.035,0.11,-0.934,0.126,0.379,-0.184,-0.084
674,0.214,-0.162,-0.03,0.106,-0.938,0.126,0.39,-0.168,-0.093
675,0.196,-0.177,-0.028,0.101,-0.946,0.108,0.354,-0.196,-0.066
676,0.167,-0.182,-0.063,0.126,-1.007,0.108,0.354,-0.196,-0.066
677,0.2,-0.217,-0.024,0.141,-1.024,0.103,0.369,-0.174,-0.072
678,0.216,-0.246,0.0,0.141,-1.024,0.103,0.403,-0.168,-0.079
679,0.215,-0.249,0.004,0.126,-0.985,0.085,0.381,-0.169,-0.061
680,0.216,-0.234,0.004,0.122,-0.986,0.078,0.381,-0.169,-0.061
681,0.214,-0.213,0.0,0.127,-0.993,0.079,0.39,-0.192,-0.078
682,0.214,-0.213,0.0,0.134,-0.998,0.084,0.396,-0.189,-0.049
683,0.196,-0.191,-0.012,0.137,-1.0,0.081,0.393,-0.177,-0.072
684,0.196,-0.191,-0.012,0.139,-0.999,0.072,0.385,-0.169,-0.058
685,0.186,-0.187,-0.016,0.134,-0.992,0.054,0.418,-0.177,-0.054
686,0.178,-0.163,-0.023,0.133,-0.984,0.051,0.384,-0.177,-0.078
687,0.163,-0.153,-0.021,0.14,-0.974,0.055,0.384,-0.177,-0.078
688,0.147,-0.149,-0.016,0.153,-0.973,0.055,0.406,-0.172,-0.064
689,0.134,-0.144,-0.011,0.169,-0.976,0.052,0.385,-0.181,-0.046
690,0.12,-0.121,-0.009,0.174,-0.98,0.055,0.385,-0.181,-0.046
691,0.109,-0.104,-0.008,0.181,-0.985,0.061,0.391,-0.171,-0.07
692,0.1,-0.091,-0.003,0.191,-0.986,0.053,0.397,-0.162,-0.057
693,0.092,-0.074,0.001,0.195,-0.98,0.045,0.4,-0.168,-0.052
694,0.084,-0.056,0.004,0.199,-0.974,0.041,0.4,-0.168,-0.052
695,0.076,-0.042,0.009,0.202,-0.974,0.031,0.391,-0.174,-0.046
696,0.07,-0.018,0.012,0.199,-0.979,0.027,0.408,-0.174,-0.049
697,0.067,0.0,0.015,0.188,-0.983,0.035,0.387,-0.174,-0.04
698,0.063,0.006,0.018,0.179,-0.986,0.046,0.4,-0.181,-0.051
699,0.058,0.002,0.024,0.179,-0.986,0.046,0.385,-0.172,-0.042
700,0.056,-0.007,0.028,0.167,-0.987,0.053,0.376,-0.151,-0.049
701,0.05,-0.022,0.032,0.157,-0.978,0.055,0.376,-0.151,-0.049
702,0.046,-0.035,0.032,0.152,-0.971,0.055,0.402,-0.171,-0.06
703,0.046,-0.035,0.032,0.147,-0.97,0.046,0.384,-0.163,-0.04
704,0.044,-0.025,0.03,0.143,-0.966,0.039,0.384,-0.163,-0.04
705,0.041,-0.015,0.029,0.143,-0.969,0.037,0.388,-0.162,-0.067
706,0.035,-0.004,0.027,0.146,-0.975,0.034,0.394,-0.189,-0.049
707,0.033,0.004,0.025,0.15,-0.977,0.029,0.384,-0.168,-0.04
708,0.03,0.008,0.022,0.15,-0.98,0.029,0.384,-0.168,-0.04
709,0.028,0.002,0.02,0.144,-0.98,0.027,0.385,-0.159,-0.067
710,0.028,-0.006,0.016,0.139,-0.978,0.018,0.4,-0.165,-0.043
711,0.024,-0.01,0.011,0.137,-0.972,0.017,0.375,-0.166,-0.061
712,0.02,-0.011,0.008,0.141,-0.964,0.02,0.387,-0.159,-0.049
713,0.017,-0.015,0.006,0.146,-0.963,0.018,0.373,-0.18,-0.039
714,0.017,-0.009,0.004,0.146,-0.965,0.016,0.373,-0.18,-0.039
715,0.017,-0.004,0.004,0.15,-0.971,0.017,0.388,-0.156,-0.046
716,0.018,-0.004,0.005,0.156,-0.976,0.016,0.403,-0.157,-0.049
717,0.017,-0.004,0.007,0.159,-0.979,0.015,0.385,-0.189,-0.051
718,0.016,-0.014,0.01,0.159,-0.979,0.015,0.378,-0.166,-0.057
719,0.017,-0.014,0.01,0.161,-0.98,0.015,0.379,-0.166,-0.052
720,0.018,-0.008,0.009,0.16,-0.978,0.014,0.408,-0.181,-0.042
721,0.014,0.0,0.006,0.156,-0.977,0.012,0.408,-0.181,-0.042
722,0.01,0.005,0.002,0.154,-0.976,0.01,0.409,-0.178,-0.043
723,0.01,0.005,0.002,0.154,-0.977,0.012,0.379,-0.181,-0.031
724,0.004,0.0,0.0,0.156,-0.983,0.024,0.376,-0.181,-0.039
725,0.005,-0.003,0.0,0.156,-0.979,0.023,0.391,-0.177,-0.051
726,0.006,-0.006,0.0,0.157,-0.975,0.017,0.399,-0.177,-0.067
727,0.007,-0.008,0.0,0.157,-0.973,0.008,0.399,-0.177,-0.067
728,0.011,0.0,-0.002,0.154,-0.976,0.006,0.396,-0.18,-0.042
729,0.013,0.008,-0.004,0.151,-0.978,0.014,0.375,-0.166,-0.052
730,0.011,0.009,-0.007,0.15,-0.977,0.018,0.381,-0.181,-0.061
731,0.007,0.007,-0.009,0.149,-0.975,0.014,0.369,-0.168,-0.042
732,0.003,0.004,-0.009,0.145,-0.972,0.007,0.364,-0.171,-0.049
733,0.002,0.007,-0.011,0.142,-0.973,0.007,0.364,-0.171,-0.049
734,0.004,0.011,-0.011,0.145,-0.978,0.013,0.388,-0.181,-0.054
735,0.007,0.011,-0.012,0.148,-0.98,0.016,0.382,-0.177,-0.052
736,0.005,0.008,-0.011,0.15,-0.979,0.016,0.391,-0.172,-0.042
737,0.003,0.005,-0.01,0.15,-0.979,0.016,0.384,-0.169,-0.052
738,0.002,0.006,-0.009,0.15,-0.979,0.017,0.391,-0.19,-0.052
739,0.003,0.009,-0.01,0.148,-0.976,0.016,0.391,-0.19,-0.052
740,0.002,0.011,-0.011,0.145,-0.976,0.014,0.384,-0.159,-0.042
741,0.002,0.011,-0.012,0.143,-0.982,0.017,0.378,-0.174,-0.058
742,0.002,0.011,-0.012,0.141,-0.981,0.019,0.382,-0.165,-0.055
743,0.0,0.014,-0.015,0.14,-0.978,0.021,0.402,-0.178,-0.043
744,-0.002,0.018,-0.018,0.143,-0.977,0.022,0.379,-0.168,-0.045
745,-0.005,0.021,-0.018,0.145,-0.975,0.023,0.379,-0.168,-0.045
746,-0.009,0.015,-0.018,0.146,-0.975,0.022,0.375,-0.171,-0.039
747,-0.011,0.016,-0.018,0.145,-0.976,0.02,0.375,-0.171,-0.039
748,-0.008,0.014,-0.015,0.141,-0.979,0.02,0.379,-0.18,-0.054
749,-0.005,0.011,-0.014,0.138,-0.979,0.024,0.403,-0.178,-0.048
750,-0.005,0.004,-0.011,0.137,-0.976,0.028,0.385,-0.171,-0.055
751,-0.005,-0.002,-0.011,0.135,-0.974,0.028,0.385,-0.171,-0.055
752,-0.004,-0.011,-0.01,0.131,-0.973,0.025,0.376,-0.163,-0.055
753,-0.004,-0.011,-0.009,0.131,-0.974,0.024,0.387,-0.181,-0.052
754,-0.008,-0.014,-0.01,0.13,-0.974,0.028,0.387,-0.181,-0.052
755,-0.008,-0.02,-0.01,0.131,-0.976,0.03,0.382,-0.169,-0.046
756,-0.007,-0.024,-0.009,0.131,-0.976,0.03,0.39,-0.18,-0.048
757,-0.005,-0.025,-0.009,0.134,-0.977,0.03,0.393,-0.16,-0.054
758,-0.005,-0.025,-0.009,0.135,-0.975,0.029,0.393,-0.16,-0.054
759,-0.005,-0.028,-0.008,0.135,-0.975,0.027,0.375,-0.171,-0.037
760,-0.005,-0.034,-0.007,0.135,-0.975,0.027,0.381,-0.171,-0.049
761,-0.005,-0.034,-0.007,0.138,-0.975,0.028,0.396,-0.177,-0.046
762,-0.008,-0.035,-0.008,0.137,-0.971,0.027,0.37,-0.172,-0.052
763,-0.009,-0.037,-0.01,0.135,-0.969,0.022,0.388,-0.169,-0.045
764,-0.013,-0.03,-0.012,0.136,-0.968,0.022,0.388,-0.178,-0.057
765,-0.013,-0.03,-0.014,0.138,-0.967,0.028,0.388,-0.178,-0.057
766,-0.011,-0.029,-0.014,0.139,-0.97,0.027,0.394,-0.177,-0.049
767,-0.004,-0.017,-0.014,0.141,-0.973,0.028,0.385,-0.172,-0.034
768,-0.005,-0.022,-0.012,0.145,-0.976,0.033,0.385,-0.172,-0.034
769,-0.004,-0.029,-0.011,0.146,-0.975,0.033,0.396,-0.172,-0.063
770,-0.002,-0.031,-0.01,0.146,-0.974,0.029,0.397,-0.178,-0.036
771,-0.002,-0.025,-0.011,0.145,-0.97,0.028,0.381,-0.169,-0.055
772,-0.003,-0.023,-0.011,0.143,-0.967,0.027,0.381,-0.169,-0.055
773,-0.007,-0.022,-0.013,0.141,-0.969,0.024,0.397,-0.162,-0.058
774,-0.007,-0.022,-0.013,0.144,-0.973,0.023,0.396,-0.168,-0.048
775,-0.006,-0.014,-0.013,0.147,-0.976,0.024,0.397,-0.165,-0.048
776,-0.004,-0.009,-0.013,0.147,-0.978,0.024,0.406,-0.172,-0.054
777,-0.004,-0.007,-0.012,0.145,-0.978,0.026,0.375,-0.163,-0.043
778,-0.003,-0.005,-0.011,0.143,-0.977,0.027,0.367,-0.162,-0.066
779,-0.004,-0.004,-0.011,0.142,-0.977,0.03,0.367,-0.162,-0.066
780,-0.003,-0.002,-0.011,0.138,-0.974,0.03,0.403,-0.166,-0.054
781,-0.003,-0.002,-0.011,0.135,-0.973,0.026,0.39,-0.183,-0.025
782,-0.004,-0.002,-0.011,0.137,-0.975,0.025,0.39,-0.183,-0.025
783,-0.005,0.0,-0.012,0.137,-0.977,0.028,0.39,-0.163,-0.036
784,-0.006,0.0,-0.009,0.137,-0.977,0.03,0.396,-0.177,-0.058
785,-0.007,0.0,-0.007,0.138,-0.978,0.028,0.396,-0.177,-0.058
786,-0.006,0.0,-0.007,0.138,-0.98,0.03,0.376,-0.178,-0.057
787,-0.007,0.002,-0.007,0.135,-0.978,0.032,0.405,-0.168,-0.057
788,-0.008,0.003,-0.008,0.134,-0.978,0.031,0.39,-0.165,-0.052
789,-0.006,0.001,-0.012,0.132,-0.976,0.033,0.378,-0.16,-0.067
790,-0.004,-0.001,-0.014,0.128,-0.973,0.034,0.409,-0.187,-0.064
791,-0.005,-0.002,-0.015,0.127,-0.97,0.031,0.366,-0.175,-0.046
792,-0.003,-0.004,-0.016,0.125,-0.971,0.03,0.366,-0.175,-0.046
793,-0.001,-0.003,-0.014,0.126,-0.974,0.032,0.376,-0.153,-0.06
794,0.0,-0.002,-0.014,0.13,-0.975,0.034,0.372,-0.159,-0.06
795,-0.002,-0.003,-0.014,0.134,-0.974,0.034,0.387,-0.163,-0.06
796,-0.002,-0.008,-0.011,0.134,-0.974,0.034,0.394,-0.165,-0.045
797,-0.003,-0.008,-0.009,0.136,-0.972,0.033,0.39,-0.171,-0.048
798,0.0,-0.007,-0.007,0.134,-0.974,0.032,0.396,-0.175,-0.04
799,0.0,-0.007,-0.008,0.132,-0.976,0.032,0.396,-0.175,-0.04
800,0.002,-0.007,-0.008,0.134,-0.976,0.036,0.39,-0.172,-0.051
801,0.002,-0.007,-0.008,0.135,-0.976,0.039,0.402,-0.157,-0.055
802,0.002,-0.009,-0.009,0.134,-0.975,0.038,0.382,-0.163,-0.052
803,0.0,-0.009,-0.009,0.136,-0.975,0.039,0.403,-0.178,-0.028
804,-0.003,-0.013,-0.007,0.136,-0.975,0.039,0.405,-0.163,-0.042
805,-0.004,-0.014,-0.007,0.135,-0.975,0.035,0.367,-0.178,-0.069
806,-0.004,-0.011,-0.007,0.132,-0.978,0.031,0.367,-0.178,-0.069
807,-0.004,-0.009,-0.006,0.131,-0.976,0.034,0.397,-0.172,-0.064
808,-0.002,-0.01,-0.005,0.131,-0.974,0.034,0.394,-0.181,-0.046
809,0.002,-0.012,-0.004,0.13,-0.978,0.034,0.394,-0.172,-0.043
810,0.0,-0.008,-0.004,0.128,-0.983,0.038,0.387,-0.162,-0.04
811,0.0,-0.008,-0.005,0.131,-0.983,0.039,0.388,-0.162,-0.046
812,0.0,-0.014,-0.005,0.134,-0.978,0.035,0.396,-0.165,-0.058
813,0.0,-0.014,-0.005,0.132,-0.972,0.032,0.396,-0.165,-0.058
814,0.0,-0.009,-0.006,0.13,-0.969,0.033,0.378,-0.166,-0.049
815,0.002,-0.004,-0.008,0.131,-0.968,0.034,0.39,-0.192,-0.067
816,0.003,0.007,-0.011,0.131,-0.972,0.028,0.4,-0.181,-0.054
817,0.006,0.004,-0.01,0.131,-0.972,0.028,0.372,-0.166,-0.046
818,0.005,0.0,-0.009,0.128,-0.974,0.025,0.403,-0.174,-0.042
819,0.005,-0.003,-0.009,0.126,-0.973,0.031,0.399,-0.18,-0.043
820,0.005,-0.003,-0.009,0.13,-0.974,0.036,0.399,-0.18,-0.043
821,0.004,-0.006,-0.008,0.135,-0.975,0.035,0.382,-0.195,-0.052
822,0.003,-0.008,-0.007,0.136,-0.975,0.031,0.381,-0.18,-0.069
823,0.004,-0.009,-0.004,0.134,-0.976,0.031,0.399,-0.156,-0.052
824,0.008,-0.007,-0.004,0.134,-0.975,0.031,0.387,-0.186,-0.043
825,0.007,-0.002,-0.005,0.134,-0.974,0.029,0.399,-0.156,-0.045
826,0.006,0.001,-0.006,0.135,-0.975,0.028,0.388,-0.183,-0.061
827,0.004,0.001,-0.005,0.133,-0.974,0.029,0.388,-0.183,-0.061
828,0.002,-0.001,-0.006,0.131,-0.974,0.031,0.387,-0.174,-0.043
829,0.004,-0.004,-0.005,0.13,-0.975,0.035,0.369,-0.174,-0.048
830,0.006,-0.004,-0.006,0.129,-0.976,0.034,0.376,-0.187,-0.052
831,0.007,-0.002,-0.007,0.128,-0.98,0.03,0.376,-0.187,-0.052
832,0.005,0.0,-0.007,0.129,-0.982,0.029,0.393,-0.187,-0.063
833,0.004,0.0,-0.007,0.131,-0.982,0.03,0.384,-0.168,-0.039
834,0.003,0.002,-0.007,0.132,-0.98,0.032,0.384,-0.168,-0.039
835,0.002,0.002,-0.006,0.131,-0.979,0.032,0.406,-0.172,-0.055
836,0.002,0.001,-0.004,0.131,-0.979,0.032,0.4,-0.175,-0.052
837,0.0,0.004,-0.004,0.128,-0.98,0.028,0.388,-0.165,-0.042
838,0.0,0.002,-0.003,0.127,-0.979,0.027,0.396,-0.148,-0.045
839,0.001,0.004,-0.002,0.128,-0.978,0.028,0.397,-0.187,-0.064
840,0.001,0.004,-0.002,0.13,-0.976,0.03,0.399,-0.163,-0.048
841,0.0,0.004,-0.001,0.131,-0.975,0.034,0.399,-0.163,-0.048
842,-0.002,0.003,0.0,0.129,-0.976,0.032,0.402,-0.169,-0.049
843,-0.002,0.0,0.0,0.126,-0.977,0.03,0.388,-0.174,-0.049
844,-0.007,-0.003,0.0,0.12,-0.973,0.029,0.373,-0.168,-0.049
845,-0.007,-0.004,-0.001,0.122,-0.97,0.033,0.39,-0.162,-0.061
846,-0.009,-0.004,-0.002,0.124,-0.973,0.035,0.415,-0.184,-0.048
847,-0.01,-0.006,-0.001,0.124,-0.976,0.033,0.415,-0.184,-0.048
848,-0.011,-0.007,-0.002,0.124,-0.977,0.032,0.381,-0.181,-0.051
849,-0.011,-0.008,0.0,0.126,-0.98,0.033,0.375,-0.153,-0.055
850,-0.009,-0.011,0.0,0.129,-0.979,0.035,0.385,-0.177,-0.018
851,-0.007,-0.014,-0.001,0.132,-0.974,0.031,0.388,-0.166,-0.061
852,-0.003,-0.014,0.0,0.133,-0.973,0.027,0.378,-0.157,-0.061
853,-0.001,-0.009,-0.002,0.133,-0.974,0.032,0.391,-0.183,-0.051
854,0.0,-0.008,-0.003,0.133,-0.974,0.032,0.391,-0.183,-0.051
855,0.0,-0.009,-0.003,0.134,-0.974,0.034,0.399,-0.16,-0.046
856,0.0,-0.012,-0.003,0.138,-0.974,0.032,0.382,-0.178,-0.057
857,0.001,-0.01,-0.004,0.14,-0.975,0.03,0.403,-0.183,-0.052
858,-0.001,-0.007,-0.004,0.136,-0.974,0.03,0.367,-0.171,-0.036
859,-0.001,-0.007,-0.004,0.135,-0.976,0.032,0.367,-0.171,-0.036
860,0.0,-0.007,-0.004,0.135,-0.978,0.033,0.394,-0.16,-0.072
861,0.002,-0.005,-0.004,0.134,-0.977,0.031,0.394,-0.16,-0.072
862,0.003,-0.003,-0.003,0.134,-0.976,0.03,0.397,-0.166,-0.04
863,0.001,-0.002,-0.002,0.136,-0.978,0.033,0.387,-0.187,-0.06
864,-0.001,-0.005,-0.001,0.136,-0.976,0.035,0.396,-0.16,-0.054
865,0.0,-0.007,0.0,0.134,-0.972,0.033,0.397,-0.162,-0.048
866,-0.002,-0.01,0.0,0.135,-0.972,0.03,0.399,-0.178,-0.06
867,-0.004,-0.011,0.0,0.138,-0.973,0.031,0.399,-0.178,-0.06
868,-0.003,-0.007,0.0,0.139,-0.97,0.033,0.393,-0.169,-0.049
869,-0.004,-0.004,-0.002,0.139,-0.969,0.036,0.391,-0.165,-0.063
870,-0.004,-0.003,-0.003,0.147,-0.976,0.044,0.387,-0.169,-0.052
871,-0.003,-0.006,0.0,0.15,-0.978,0.043,0.402,-0.159,-0.067
872,0.0,-0.005,0.0,0.144,-0.977,0.035,0.397,-0.174,-0.051
873,-0.001,0.0,-0.001,0.144,-0.978,0.036,0.397,-0.174,-0.051
874,-0.002,0.002,-0.001,0.144,-0.978,0.036,0.394,-0.178,-0.057
875,-0.002,0.002,0.0,0.144,-0.978,0.036,0.393,-0.171,-0.057
876,-0.001,0.001,-0.002,0.14,-0.975,0.033,0.399,-0.177,-0.037
877,0.0,0.0,-0.002,0.137,-0.971,0.032,0.391,-0.166,-0.042
878,0.0,0.0,-0.002,0.137,-0.971,0.033,0.379,-0.168,-0.063
879,0.0,0.0,-0.002,0.135,-0.97,0.034,0.379,-0.168,-0.063
880,0.0,0.0,-0.001,0.138,-0.97,0.035,0.384,-0.177,-0.052
881,0.0,-0.002,0.0,0.138,-0.972,0.036,0.397,-0.174,-0.054
882,0.002,-0.002,0.001,0.139,-0.975,0.033,0.399,-0.171,-0.063
883,0.003,-0.004,0.001,0.139,-0.976,0.031,0.379,-0.171,-0.058
884,0.005,-0.002,0.001,0.137,-0.973,0.031,0.379,-0.171,-0.058
885,0.005,-0.002,0.0,0.139,-0.973,0.03,0.39,-0.183,-0.048
886,0.007,0.0,0.0,0.138,-0.973,0.028,0.394,-0.15,-0.031
887,0.009,0.0,-0.002,0.136,-0.973,0.03,0.394,-0.15,-0.031
888,0.005,0.001,-0.004,0.138,-0.975,0.036,0.393,-0.174,-0.057
889,0.002,0.0,-0.004,0.143,-0.979,0.039,0.382,-0.178,-0.052
890,0.0,-0.002,-0.003,0.146,-0.979,0.039,0.396,-0.189,-0.052
891,0.0,-0.004,-0.001,0.146,-0.977,0.035,0.396,-0.189,-0.052
892,0.002,-0.005,0.0,0.143,-0.975,0.031,0.372,-0.19,-0.049
893,0.004,0.005,-0.001,0.142,-0.972,0.031,0.39,-0.168,-0.046
894,0.003,0.002,-0.001,0.142,-0.972,0.031,0.408,-0.159,-0.048
895,0.001,-0.002,-0.001,0.141,-0.972,0.029,0.37,-0.174,-0.069
896,0.001,-0.002,-0.002,0.14,-0.972,0.028,0.397,-0.165,-0.054
897,0.001,-0.002,-0.002,0.141,-0.97,0.029,0.381,-0.157,-0.066
898,0.004,0.001,-0.002,0.142,-0.967,0.03,0.381,-0.157,-0.066
899,0.004,0.005,-0.003,0.142,-0.97,0.034,0.402,-0.175,-0.036
900,0.002,0.007,-0.005,0.143,-0.974,0.037,0.388,-0.177,-0.051
901,0.0,0.006,-0.003,0.146,-0.977,0.035,0.388,-0.177,-0.051
902,0.001,0.004,-0.002,0.147,-0.979,0.031,0.39,-0.157,-0.061
903,0.002,0.002,-0.002,0.147,-0.978,0.029,0.388,-0.169,-0.057
904,0.002,0.006,-0.004,0.147,-0.976,0.03,0.391,-0.172,-0.055
905,0.003,0.005,-0.004,0.145,-0.976,0.031,0.391,-0.172,-0.055
906,0.002,0.007,-0.006,0.141,-0.974,0.03,0.402,-0.166,-0.06
907,0.002,0.006,-0.007,0.139,-0.971,0.029,0.373,-0.163,-0.069
908,0.001,0.007,-0.007,0.138,-0.972,0.03,0.388,-0.172,-0.06
909,0.002,0.007,-0.008,0.139,-0.973,0.03,0.399,-0.19,-0.052
910,0.001,0.006,-0.007,0.14,-0.972,0.031,0.382,-0.172,-0.049
911,0.002,0.004,-0.007,0.14,-0.971,0.031,0.396,-0.175,-0.051
912,0.002,0.004,-0.005,0.139,-0.974,0.032,0.396,-0.175,-0.051
913,0.003,0.002,-0.006,0.139,-0.976,0.032,0.39,-0.16,-0.055
914,0.003,0.007,-0.006,0.14,-0.976,0.032,0.379,-0.178,-0.046
915,0.003,0.0,-0.006,0.141,-0.977,0.03,0.379,-0.178,-0.046
916,0.002,-0.002,-0.006,0.141,-0.978,0.032,0.387,-0.163,-0.054
917,0.001,-0.002,-0.009,0.139,-0.978,0.033,0.387,-0.178,-0.058
918,0.001,-0.002,-0.009,0.139,-0.98,0.03,0.393,-0.174,-0.049
919,0.001,-0.002,-0.01,0.142,-0.98,0.032,0.393,-0.174,-0.049
920,0.0,-0.003,-0.009,0.144,-0.976,0.034,0.387,-0.178,-0.049
921,0.0,-0.006,-0.008,0.145,-0.971,0.032,0.39,-0.174,-0.051
922,0.0,-0.004,-0.007,0.144,-0.969,0.031,0.396,-0.18,-0.045
923,0.0,-0.002,-0.007,0.143,-0.972,0.031,0.397,-0.172,-0.06
924,0.0,-0.001,-0.007,0.142,-0.974,0.03,0.4,-0.18,-0.051
925,0.0,0.0,-0.007,0.142,-0.974,0.032,0.4,-0.18,-0.051
926,-0.001,-0.002,-0.007,0.144,-0.974,0.034,0.384,-0.187,-0.067
927,0.0,-0.002,-0.007,0.145,-0.975,0.036,0.385,-0.165,-0.039
928,0.0,-0.005,-0.008,0.144,-0.976,0.038,0.384,-0.159,-0.04
929,0.0,-0.004,-0.009,0.143,-0.974,0.04,0.394,-0.165,-0.06
930,0.0,-0.004,-0.009,0.144,-0.976,0.038,0.388,-0.165,-0.051
931,0.002,-0.007,-0.008,0.144,-0.976,0.035,0.388,-0.159,-0.069
932,0.002,-0.009,-0.007,0.145,-0.972,0.031,0.388,-0.159,-0.069
933,0.002,-0.007,-0.007,0.145,-0.972,0.031,0.396,-0.175,-0.045
934,0.002,-0.005,-0.007,0.147,-0.971,0.031,0.382,-0.186,-0.075
935,0.0,-0.002,-0.007,0.145,-0.971,0.033,0.393,-0.169,-0.034
936,0.0,-0.001,-0.007,0.146,-0.974,0.033,0.393,-0.169,-0.034
937,0.0,0.0,-0.007,0.146,-0.974,0.035,0.402,-0.175,-0.06
938,0.0,0.0,-0.007,0.144,-0.972,0.036,0.393,-0.186,-0.054
939,-0.002,0.001,-0.007,0.143,-0.97,0.036,0.393,-0.186,-0.054
940,-0.002,0.004,-0.007,0.142,-0.974,0.037,0.367,-0.175,-0.064
941,-0.004,0.002,-0.007,0.142,-0.975,0.037,0.4,-0.171,-0.045
942,-0.003,0.002,-0.007,0.142,-0.974,0.035,0.384,-0.183,-0.048
943,-0.004,0.0,-0.007,0.143,-0.973,0.038,0.391,-0.18,-0.052
944,-0.004,-0.002,-0.006,0.142,-0.973,0.039,0.39,-0.178,-0.058
945,-0.004,-0.004,-0.006,0.14,-0.971,0.034,0.388,-0.16,-0.06
946,-0.005,-0.003,-0.006,0.139,-0.972,0.031,0.388,-0.16,-0.06
947,-0.004,0.0,-0.007,0.139,-0.976,0.034,0.379,-0.177,-0.06
948,-0.003,0.0,-0.006,0.14,-0.974,0.035,0.385,-0.171,-0.048
949,-0.002,0.003,-0.007,0.137,-0.972,0.034,0.385,-0.186,-0.048
950,-0.002,0.0,-0.007,0.134,-0.972,0.033,0.385,-0.186,-0.048
951,0.0,0.0,-0.005,0.137,-0.974,0.033,0.396,-0.174,-0.055
952,0.002,0.0,-0.005,0.137,-0.976,0.037,0.387,-0.162,-0.049
953,0.004,0.0,-0.007,0.138,-0.976,0.037,0.387,-0.162,-0.049
954,0.004,0.002,-0.008,0.138,-0.976,0.036,0.399,-0.166,-0.043
955,0.001,0.003,-0.007,0.141,-0.975,0.036,0.39,-0.177,-0.064
956,0.0,0.0,-0.007,0.14,-0.975,0.037,0.394,-0.168,-0.052
957,0.0,0.0,-0.007,0.141,-0.975,0.039,0.381,-0.172,-0.057
958,0.001,0.0,-0.006,0.143,-0.975,0.037,0.379,-0.172,-0.054
959,0.002,0.0,-0.005,0.14,-0.976,0.034,0.394,-0.169,-0.066
960,0.004,-0.002,-0.006,0.138,-0.974,0.033,0.394,-0.169,-0.066
961,0.003,-0.002,-0.005,0.136,-0.972,0.035,0.39,-0.162,-0.061
962,0.002,0.0,-0.004,0.135,-0.972,0.037,0.4,-0.171,-0.058
963,0.003,0.007,-0.007,0.137,-0.974,0.037,0.382,-0.154,-0.034
964,0.0,0.003,-0.007,0.139,-0.974,0.036,0.385,-0.186,-0.046
965,0.0,0.0,-0.006,0.141,-0.974,0.039,0.393,-0.168,-0.06
966,0.0,0.002,-0.007,0.141,-0.976,0.04,0.387,-0.163,-0.055
967,0.001,0.001,-0.007,0.137,-0.975,0.038,0.387,-0.163,-0.055
968,0.0,0.0,-0.007,0.135,-0.975,0.039,0.391,-0.162,-0.045
969,0.0,-0.001,-0.008,0.135,-0.975,0.038,0.385,-0.175,-0.058
970,0.0,-0.002,-0.008,0.138,-0.973,0.043,0.363,-0.186,-0.055
971,0.0,-0.004,-0.007,0.138,-0.973,0.045,0.393,-0.175,-0.054
972,0.001,-0.007,-0.006,0.139,-0.973,0.045,0.373,-0.186,-0.067
973,0.0,-0.011,-0.006,0.136,-0.975,0.048,0.373,-0.186,-0.067
974,0.0,-0.014,-0.006,0.134,-0.979,0.047,0.388,-0.162,-0.07
975,0.0,-0.016,-0.005,0.135,-0.979,0.04,0.381,-0.174,-0.046
976,0.0,-0.016,-0.005,0.135,-0.976,0.034,0.385,-0.169,-0.069
977,-0.001,-0.014,-0.003,0.137,-0.974,0.032,0.394,-0.184,-0.031
978,0.0,-0.011,-0.004,0.14,-0.973,0.031,0.39,-0.171,-0.057
979,0.001,-0.009,-0.003,0.141,-0.974,0.033,0.402,-0.163,-0.06
980,0.002,-0.009,-0.003,0.142,-0.973,0.04,0.402,-0.163,-0.06
981,0.001,-0.009,-0.004,0.142,-0.973,0.042,0.387,-0.178,-0.072
982,0.0,-0.007,-0.006,0.14,-0.973,0.04,0.379,-0.172,-0.057
983,0.0,-0.005,-0.007,0.137,-0.973,0.038,0.403,-0.184,-0.067
984,0.0,-0.003,-0.009,0.136,-0.973,0.04,0.385,-0.159,-0.051
985,0.0,-0.003,-0.009,0.137,-0.974,0.041,0.381,-0.193,-0.046
986,0.002,-0.004,-0.009,0.14,-0.974,0.04,0.381,-0.193,-0.046
987,0.001,-0.004,-0.009,0.142,-0.972,0.038,0.403,-0.172,-0.042
988,0.003,-0.005,-0.009,0.142,-0.974,0.035,0.4,-0.183,-0.061
989,0.004,-0.005,-0.008,0.14,-0.975,0.035,0.394,-0.175,-0.042
990,0.004,-0.007,-0.008,0.139,-0.976,0.036,0.402,-0.168,-0.043
991,0.002,-0.01,-0.007,0.141,-0.979,0.039,0.375,-0.171,-0.039
992,0.004,-0.007,-0.009,0.141,-0.979,0.039,0.375,-0.171,-0.039
993,0.004,-0.007,-0.009,0.142,-0.978,0.041,0.396,-0.174,-0.052
994,0.003,-0.002,-0.01,0.14,-0.975,0.041,0.39,-0.172,-0.06
995,0.002,-0.003,-0.009,0.14,-0.975,0.042,0.396,-0.18,-0.046
996,0.002,-0.003,-0.009,0.142,-0.974,0.042,0.397,-0.162,-0.022
997,0.001,-0.005,-0.009,0.142,-0.972,0.039,0.385,-0.169,-0.06
998,0.0,-0.007,-0.008,0.143,-0.975,0.038,0.385,-0.169,-0.06
999,0.0,-0.004,-0.008,0.144,-0.975,0.038,0.394,-0.172,-0.06
1000,0.001,-0.004,-0.007,0.143,-0.972,0.038,0.387,-0.175,-0.057
1001,0.002,-0.004,-0.005,0.141,-0.971,0.039,0.384,-0.171,-0.049
1002,0.001,-0.006,-0.004,0.141,-0.973,0.041,0.372,-0.196,-0.054
1003,0.001,-0.007,-0.003,0.143,-0.973,0.042,0.372,-0.196,-0.054
1004,0.0,-0.007,-0.002,0.142,-0.973,0.042,0.376,-0.196,-0.051
1005,0.0,-0.01,-0.002,0.141,-0.974,0.044,0.385,-0.171,-0.03
1006,-0.002,-0.011,-0.002,0.141,-0.976,0.044,0.385,-0.171,-0.03
1007,-0.003,-0.011,-0.002,0.139,-0.978,0.045,0.396,-0.177,-0.043
1008,-0.004,-0.011,-0.003,0.137,-0.976,0.045,0.403,-0.177,-0.06
1009,-0.005,-0.013,-0.004,0.137,-0.975,0.044,0.397,-0.171,-0.06
1010,-0.007,-0.016,-0.004,0.136,-0.973,0.042,0.397,-0.171,-0.06
1011,-0.006,-0.021,-0.004,0.136,-0.973,0.042,0.396,-0.163,-0.045
1012,-0.002,-0.017,-0.003,0.138,-0.971,0.041,0.372,-0.186,-0.048
1013,-0.002,-0.019,-0.002,0.141,-0.971,0.041,0.384,-0.165,-0.07
1014,0.0,-0.021,-0.001,0.143,-0.97,0.04,0.399,-0.183,-0.052
1015,0.001,-0.023,0.0,0.143,-0.968,0.039,0.393,-0.175,-0.063
1016,0.001,-0.023,0.0,0.144,-0.967,0.037,0.393,-0.165,-0.054
1017,0.002,-0.023,-0.001,0.146,-0.967,0.038,0.393,-0.165,-0.054
1018,0.004,-0.02,-0.002,0.144,-0.967,0.038,0.393,-0.16,-0.073
1019,0.005,-0.018,-0.001,0.144,-0.97,0.039,0.381,-0.153,-0.051
1020,0.006,-0.014,-0.002,0.147,-0.972,0.039,0.387,-0.169,-0.054
1021,0.006,-0.012,-0.002,0.149,-0.973,0.039,0.397,-0.162,-0.04
1022,0.006,-0.011,-0.002,0.148,-0.973,0.039,0.4,-0.18,-0.067
1023,0.007,-0.009,-0.002,0.148,-0.971,0.039,0.378,-0.18,-0.049
1024,0.004,-0.005,-0.003,0.148,-0.973,0.037,0.378,-0.18,-0.049
1025,0.004,-0.006,-0.003,0.147,-0.974,0.037,0.393,-0.184,-0.043
1026,0.004,-0.009,-0.002,0.147,-0.975,0.035,0.385,-0.192,-0.043
1027,0.004,-0.007,-0.002,0.146,-0.975,0.034,0.385,-0.192,-0.043
1028,0.005,-0.007,-0.002,0.143,-0.975,0.036,0.409,-0.174,-0.063
1029,0.005,-0.004,-0.003,0.143,-0.977,0.038,0.396,-0.172,-0.06
1030,0.006,-0.002,-0.002,0.141,-0.977,0.038,0.396,-0.186,-0.039
1031,0.005,-0.003,-0.002,0.142,-0.977,0.039,0.396,-0.186,-0.039
1032,0.007,-0.005,0.0,0.143,-0.974,0.035,0.378,-0.18,-0.054
1033,0.007,-0.013,0.0,0.142,-0.973,0.034,0.394,-0.169,-0.064
1034,0.007,-0.004,0.0,0.143,-0.971,0.033,0.388,-0.169,-0.058
1035,0.007,-0.004,0.0,0.143,-0.97,0.031,0.4,-0.18,-0.06
1036,0.007,0.0,-0.001,0.141,-0.973,0.03,0.385,-0.169,-0.058
1037,0.006,0.001,-0.002,0.14,-0.973,0.032,0.378,-0.177,-0.06
1038,0.005,0.0,-0.002,0.143,-0.976,0.034,0.378,-0.177,-0.06
1039,0.005,-0.003,-0.003,0.142,-0.979,0.037,0.384,-0.186,-0.051
1040,0.004,0.002,-0.005,0.138,-0.976,0.038,0.381,-0.169,-0.055
1041,0.007,-0.001,-0.007,0.139,-0.976,0.037,0.381,-0.169,-0.055
1042,0.007,-0.005,-0.006,0.139,-0.978,0.038,0.393,-0.174,-0.048
1043,0.009,-0.007,-0.005,0.138,-0.975,0.037,0.394,-0.18,-0.043
1044,0.009,-0.005,-0.005,0.14,-0.973,0.036,0.376,-0.169,-0.046
1045,0.009,-0.007,-0.005,0.142,-0.974,0.032,0.376,-0.169,-0.046
1046,0.009,-0.007,-0.005,0.146,-0.976,0.031,0.403,-0.177,-0.036
1047,0.009,-0.004,-0.004,0.148,-0.973,0.032,0.394,-0.159,-0.057
1048,0.009,-0.005,-0.004,0.145,-0.973,0.033,0.394,-0.189,-0.073
1049,0.008,-0.007,-0.004,0.145,-0.973,0.036,0.405,-0.172,-0.051
1050,0.009,-0.005,-0.004,0.145,-0.973,0.036,0.393,-0.165,-0.061
1051,0.007,-0.004,-0.003,0.146,-0.974,0.035,0.394,-0.162,-0.057
1052,0.007,-0.004,-0.004,0.146,-0.976,0.034,0.394,-0.162,-0.057
1053,0.007,-0.004,-0.004,0.145,-0.974,0.035,0.379,-0.157,-0.064
1054,0.003,-0.005,-0.004,0.144,-0.973,0.034,0.39,-0.174,-0.043
1055,0.003,-0.005,-0.004,0.144,-0.973,0.034,0.39,-0.174,-0.043
1056,0.004,-0.006,-0.004,0.145,-0.972,0.034,0.396,-0.18,-0.052
1057,0.004,-0.005,-0.004,0.146,-0.972,0.033,0.397,-0.165,-0.061
1058,0.004,-0.002,-0.003,0.146,-0.975,0.036,0.376,-0.168,-0.049
1059,0.004,-0.004,-0.002,0.149,-0.976,0.037,0.376,-0.168,-0.049
1060,0.004,-0.002,-0.002,0.149,-0.976,0.035,0.408,-0.183,-0.057
1061,0.001,-0.013,-0.002,0.148,-0.975,0.034,0.394,-0.181,-0.07
1062,0.001,-0.006,-0.003,0.147,-0.974,0.033,0.387,-0.169,-0.048
1063,0.0,-0.003,-0.004,0.146,-0.975,0.033,0.381,-0.195,-0.063
1064,-0.001,-0.002,-0.004,0.146,-0.976,0.033,0.391,-0.172,-0.052
1065,-0.002,-0.003,-0.004,0.146,-0.973,0.035,0.382,-0.163,-0.075
1066,-0.002,-0.002,-0.003,0.148,-0.973,0.035,0.382,-0.163,-0.075
1067,-0.003,-0.001,-0.003,0.149,-0.975,0.036,0.396,-0.178,-0.045
1068,-0.003,-0.004,-0.002,0.149,-0.975,0.037,0.382,-0.163,-0.048
1069,-0.002,-0.002,-0.002,0.15,-0.973,0.036,0.382,-0.163,-0.048
1070,-0.002,0.0,-0.002,0.15,-0.973,0.036,0.397,-0.162,-0.048
1071,-0.002,0.002,-0.002,0.149,-0.972,0.035,0.39,-0.174,-0.06
1072,-0.001,0.003,-0.002,0.15,-0.974,0.036,0.376,-0.154,-0.048
1073,-0.001,0.003,-0.002,0.149,-0.974,0.036,0.376,-0.154,-0.048
1074,0.0,0.003,-0.002,0.148,-0.974,0.037,0.397,-0.178,-0.045
1075,0.0,0.003,-0.002,0.148,-0.972,0.039,0.397,-0.171,-0.048
1076,0.001,0.001,-0.002,0.147,-0.973,0.036,0.381,-0.175,-0.069
1077,0.001,0.002,-0.002,0.146,-0.975,0.035,0.394,-0.177,-0.063
1078,0.0,0.001,-0.003,0.144,-0.976,0.036,0.402,-0.165,-0.061
1079,0.001,0.001,-0.003,0.142,-0.977,0.036,0.4,-0.165,-0.04
1080,0.0,0.0,-0.003,0.141,-0.975,0.034,0.4,-0.165,-0.04
1081,0.0,0.0,-0.002,0.144,-0.973,0.036,0.385,-0.174,-0.057
1082,-0.001,0.0,-0.002,0.144,-0.975,0.042,0.379,-0.183,-0.033
1083,0.0,-0.006,-0.003,0.143,-0.975,0.04,0.379,-0.183,-0.033
1084,-0.002,-0.004,-0.002,0.144,-0.973,0.035,0.378,-0.171,-0.046
1085,-0.002,-0.002,-0.002,0.147,-0.971,0.034,0.394,-0.15,-0.042
1086,-0.003,-0.004,-0.002,0.146,-0.972,0.036,0.388,-0.178,-0.069
1087,-0.003,-0.003,-0.002,0.147,-0.975,0.037,0.388,-0.178,-0.069
1088,-0.004,-0.002,-0.002,0.149,-0.976,0.037,0.385,-0.142,-0.063
1089,-0.001,0.0,-0.002,0.148,-0.974,0.035,0.375,-0.157,-0.049
1090,-0.001,0.0,-0.004,0.148,-0.972,0.033,0.394,-0.16,-0.051
1091,0.0,0.0,-0.004,0.149,-0.971,0.033,0.408,-0.162,-0.054
1092,0.0,0.0,-0.004,0.147,-0.971,0.034,0.408,-0.163,-0.039
1093,0.0,-0.001,-0.003,0.145,-0.972,0.034,0.408,-0.163,-0.039
1094,0.002,0.0,-0.004,0.145,-0.972,0.034,0.406,-0.148,-0.072
1095,0.003,-0.002,-0.005,0.148,-0.972,0.036,0.381,-0.172,-0.052
1096,0.003,-0.002,-0.005,0.147,-0.972,0.038,0.367,-0.168,-0.045
1097,0.004,-0.004,-0.006,0.146,-0.973,0.04,0.391,-0.174,-0.054
1098,0.006,-0.004,-0.006,0.145,-0.974,0.038,0.396,-0.171,-0.052
1099,0.007,-0.006,-0.006,0.146,-0.976,0.036,0.387,-0.163,-0.06
1100,0.007,-0.006,-0.006,0.145,-0.976,0.036,0.387,-0.163,-0.06
1101,0.007,-0.006,-0.007,0.143,-0.976,0.036,0.387,-0.159,-0.058
1102,0.006,-0.004,-0.007,0.145,-0.973,0.034,0.4,-0.172,-0.061
1103,0.006,-0.019,-0.006,0.146,-0.972,0.032,0.381,-0.171,-0.069
1104,0.007,-0.01,-0.007,0.146,-0.975,0.033,0.381,-0.171,-0.069
1105,0.005,-0.003,-0.009,0.146,-0.974,0.035,0.376,-0.171,-0.066
1106,0.004,-0.004,-0.007,0.147,-0.971,0.036,0.394,-0.168,-0.051
1107,0.004,-0.003,-0.008,0.149,-0.972,0.035,0.394,-0.168,-0.051
1108,0.003,-0.002,-0.007,0.15,-0.974,0.035,0.387,-0.177,-0.046
1109,0.003,-0.004,-0.006,0.15,-0.974,0.035,0.393,-0.175,-0.051
1110,0.003,-0.007,-0.006,0.15,-0.972,0.036,0.385,-0.177,-0.06
1111,0.002,-0.002,-0.007,0.149,-0.972,0.035,0.376,-0.168,-0.045
1112,0.002,-0.003,-0.008,0.146,-0.973,0.033,0.39,-0.157,-0.055
1113,0.002,-0.003,-0.008,0.146,-0.973,0.035,0.4,-0.163,-0.058
1114,0.003,-0.004,-0.007,0.148,-0.972,0.035,0.4,-0.163,-0.058
1115,0.004,-0.004,-0.007,0.147,-0.972,0.036,0.387,-0.18,-0.046
1116,0.002,-0.005,-0.009,0.144,-0.971,0.037,0.381,-0.174,-0.049
1117,0.002,0.0,-0.009,0.147,-0.971,0.037,0.355,-0.168,-0.049
1118,0.002,-0.002,-0.009,0.151,-0.972,0.035,0.355,-0.168,-0.049
1119,0.004,-0.002,-0.009,0.149,-0.973,0.034,0.394,-0.163,-0.061
1120,0.004,-0.004,-0.009,0.148,-0.973,0.034,0.381,-0.16,-0.06
1121,0.004,-0.004,-0.007,0.149,-0.973,0.033,0.381,-0.16,-0.06
1122,0.004,-0.004,-0.007,0.149,-0.973,0.033,0.394,-0.172,-0.058
1123,0.004,-0.004,-0.007,0.149,-0.974,0.034,0.382,-0.181,-0.049
1124,0.004,-0.004,-0.007,0.148,-0.975,0.037,0.391,-0.19,-0.033
1125,0.002,-0.002,-0.008,0.149,-0.976,0.036,0.402,-0.166,-0.058
1126,0.002,-0.002,-0.008,0.149,-0.975,0.036,0.372,-0.162,-0.052
1127,0.002,-0.002,-0.009,0.147,-0.975,0.038,0.397,-0.187,-0.051
1128,0.001,0.0,-0.011,0.147,-0.975,0.038,0.397,-0.187,-0.051
1129,0.0,-0.002,-0.01,0.145,-0.976,0.036,0.382,-0.174,-0.064
1130,0.0,-0.002,-0.01,0.147,-0.975,0.035,0.384,-0.184,-0.052
1131,0.002,-0.006,-0.009,0.147,-0.974,0.036,0.388,-0.168,-0.073
1132,0.002,-0.007,-0.009,0.145,-0.974,0.037,0.388,-0.168,-0.073
1133,0.002,-0.007,-0.009,0.147,-0.973,0.037,0.399,-0.171,-0.058
1134,0.002,-0.007,-0.009,0.147,-0.973,0.035,0.399,-0.171,-0.058
1135,0.002,-0.009,-0.007,0.147,-0.978,0.035,0.387,-0.178,-0.052
1136,0.002,-0.007,-0.007,0.15,-0.978,0.036,0.388,-0.159,-0.061
