,Gyroscope X (deg/s),Gyroscope Y (deg/s),Gyroscope Z (deg/s),Accelerometer X (g),Accelerometer Y (g),Accelerometer Z (g),Magnetometer X (G),Magnetometer Y (G),Magnetometer Z (G)
0,-0.01,-0.036,0.0,0.101,-0.979,0.009,0.612,-0.193,-0.403
1,-0.01,-0.036,0.0,0.101,-0.979,0.009,0.612,-0.193,-0.403
2,-0.01,-0.036,0.0,0.101,-0.979,0.009,0.612,-0.193,-0.403
3,-0.01,-0.036,0.0,0.101,-0.979,0.009,0.612,-0.193,-0.403
4,-0.01,-0.037,0.0,0.101,-0.979,0.009,0.612,-0.193,-0.403
5,-0.01,-0.039,0.001,0.102,-0.979,0.006,0.624,-0.196,-0.421
6,-0.009,-0.038,0.002,0.104,-0.978,0.001,0.613,-0.159,-0.427
7,-0.007,-0.035,0.002,0.109,-0.977,0.001,0.615,-0.168,-0.4
8,-0.004,-0.032,0.0,0.11,-0.975,0.002,0.619,-0.183,-0.417
9,-0.005,-0.028,-0.002,0.111,-0.973,0.003,0.607,-0.183,-0.408
10,-0.007,-0.025,-0.004,0.115,-0.972,0.005,0.607,-0.183,-0.408
11,-0.008,-0.025,-0.003,0.115,-0.974,0.002,0.607,-0.162,-0.424
12,-0.006,-0.023,-0.004,0.114,-0.978,-0.001,0.606,-0.178,-0.421
13,-0.006,-0.018,-0.004,0.115,-0.981,0.001,0.601,-0.181,-0.424
14,-0.004,-0.015,-0.003,0.113,-0.983,0.004,0.609,-0.18,-0.403
15,-0.004,-0.015,-0.002,0.113,-0.983,0.004,0.609,-0.18,-0.403
16,-0.003,-0.015,-0.001,0.11,-0.984,0.005,0.604,-0.175,-0.411
17,-0.002,-0.018,0.0,0.107,-0.981,0.01,0.604,-0.175,-0.411
18,-0.002,-0.024,0.001,0.106,-0.977,0.01,0.592,-0.168,-0.391
19,-0.005,-0.022,0.002,0.108,-0.974,0.008,0.606,-0.174,-0.415
20,-0.005,-0.022,0.002,0.111,-0.976,0.006,0.613,-0.177,-0.427
21,-0.005,-0.021,0.002,0.114,-0.979,0.003,0.61,-0.171,-0.411
22,-0.006,-0.011,0.001,0.116,-0.979,0.002,0.627,-0.178,-0.411
23,-0.005,-0.001,0.0,0.115,-0.979,0.001,0.624,-0.187,-0.402
24,-0.004,0.004,-0.001,0.116,-0.976,0.003,0.624,-0.187,-0.402
25,-0.003,0.005,-0.001,0.112,-0.977,0.005,0.612,-0.172,-0.39
26,-0.005,0.004,0.0,0.108,-0.979,0.007,0.622,-0.166,-0.421
27,-0.007,0.0,0.0,0.109,-0.98,0.01,0.624,-0.181,-0.42
28,-0.006,-0.005,0.002,0.109,-0.982,0.012,0.606,-0.187,-0.421
29,-0.004,-0.007,0.005,0.107,-0.982,0.014,0.591,-0.165,-0.412
30,-0.005,-0.006,0.006,0.108,-0.981,0.015,0.616,-0.181,-0.411
31,-0.004,-0.01,0.008,0.108,-0.98,0.011,0.616,-0.181,-0.411
32,-0.002,-0.012,0.009,0.107,-0.979,0.005,0.586,-0.178,-0.409
33,-0.001,-0.013,0.009,0.107,-0.98,0.003,0.588,-0.157,-0.414
34,-0.002,-0.012,0.009,0.108,-0.981,0.001,0.601,-0.171,-0.417
35,-0.006,-0.014,0.007,0.108,-0.981,0.001,0.628,-0.156,-0.411
36,-0.009,-0.007,0.004,0.107,-0.982,0.001,0.618,-0.174,-0.414
37,-0.01,-0.004,0.003,0.106,-0.981,0.004,0.597,-0.172,-0.406
38,-0.01,-0.004,0.003,0.108,-0.978,0.004,0.597,-0.172,-0.406
39,-0.009,-0.003,0.001,0.109,-0.977,0.007,0.604,-0.163,-0.421
40,-0.009,-0.003,0.001,0.111,-0.977,0.008,0.609,-0.172,-0.429
41,-0.01,0.0,0.0,0.114,-0.974,0.007,0.606,-0.184,-0.4
42,-0.01,-0.002,0.001,0.118,-0.972,0.006,0.601,-0.175,-0.411
43,-0.01,-0.002,0.002,0.119,-0.973,0.002,0.6,-0.166,-0.406
44,-0.01,0.0,0.003,0.12,-0.977,0.006,0.595,-0.183,-0.42
45,-0.011,0.002,0.004,0.12,-0.978,0.007,0.595,-0.183,-0.42
46,-0.01,0.004,0.005,0.119,-0.978,0.006,0.607,-0.177,-0.423
47,-0.009,0.004,0.006,0.118,-0.98,0.01,0.616,-0.169,-0.412
48,-0.01,0.0,0.006,0.115,-0.981,0.014,0.621,-0.163,-0.4
49,-0.012,-0.004,0.006,0.113,-0.98,0.016,0.606,-0.172,-0.397
50,-0.015,-0.005,0.007,0.114,-0.98,0.018,0.621,-0.177,-0.402
51,-0.016,-0.008,0.007,0.116,-0.98,0.016,0.61,-0.177,-0.396
52,-0.015,-0.011,0.008,0.117,-0.978,0.014,0.61,-0.177,-0.396
53,-0.015,-0.008,0.007,0.118,-0.98,0.014,0.607,-0.177,-0.42
54,-0.013,-0.005,0.007,0.124,-0.98,0.014,0.613,-0.18,-0.411
55,-0.011,-0.004,0.006,0.124,-0.98,0.014,0.609,-0.181,-0.406
56,-0.009,-0.01,0.007,0.129,-0.979,0.011,0.589,-0.19,-0.417
57,-0.009,-0.003,0.006,0.128,-0.979,0.011,0.615,-0.166,-0.405
58,-0.009,-0.003,0.006,0.127,-0.981,0.011,0.615,-0.166,-0.405
59,-0.008,-0.001,0.004,0.128,-0.98,0.01,0.622,-0.166,-0.426
60,-0.009,0.0,0.004,0.128,-0.976,0.014,0.601,-0.183,-0.421
61,-0.013,0.0,0.002,0.125,-0.975,0.017,0.6,-0.177,-0.418
62,-0.016,0.0,0.002,0.121,-0.976,0.014,0.613,-0.18,-0.414
63,-0.018,0.002,0.002,0.122,-0.979,0.016,0.601,-0.171,-0.405
64,-0.015,0.002,0.0,0.124,-0.983,0.017,0.601,-0.171,-0.405
65,-0.014,-0.001,0.001,0.128,-0.981,0.017,0.6,-0.174,-0.403
66,-0.01,-0.005,0.003,0.134,-0.98,0.014,0.606,-0.163,-0.421
67,-0.009,-0.006,0.006,0.137,-0.976,0.011,0.6,-0.163,-0.418
68,-0.007,-0.003,0.007,0.134,-0.971,0.014,0.604,-0.168,-0.411
69,-0.007,-0.001,0.007,0.134,-0.971,0.013,0.595,-0.175,-0.405
70,-0.007,0.0,0.006,0.132,-0.973,0.011,0.595,-0.175,-0.405
71,-0.004,0.005,0.004,0.125,-0.976,0.017,0.594,-0.184,-0.396
72,-0.002,0.002,0.003,0.124,-0.979,0.017,0.612,-0.168,-0.433
73,-0.001,0.001,0.002,0.124,-0.979,0.017,0.615,-0.186,-0.432
74,0.0,-0.001,0.002,0.126,-0.977,0.016,0.598,-0.169,-0.405
75,-0.001,-0.002,0.002,0.126,-0.976,0.014,0.619,-0.169,-0.415
76,-0.002,0.0,0.002,0.127,-0.976,0.011,0.619,-0.169,-0.415
77,-0.002,0.001,0.002,0.127,-0.977,0.012,0.61,-0.169,-0.415
78,-0.002,0.001,0.002,0.124,-0.978,0.015,0.597,-0.171,-0.409
79,-0.002,0.003,0.002,0.127,-0.979,0.015,0.612,-0.193,-0.424
80,-0.004,0.001,0.003,0.126,-0.98,0.015,0.618,-0.166,-0.414
81,-0.006,0.0,0.003,0.123,-0.979,0.015,0.601,-0.168,-0.42
82,-0.006,-0.002,0.002,0.123,-0.98,0.016,0.601,-0.168,-0.42
83,-0.005,-0.001,0.002,0.124,-0.98,0.014,0.606,-0.183,-0.417
84,-0.004,-0.002,0.0,0.124,-0.978,0.013,0.615,-0.168,-0.424
85,-0.007,-0.014,0.0,0.12,-0.975,0.011,0.6,-0.169,-0.415
86,-0.005,-0.008,-0.002,0.12,-0.974,0.011,0.597,-0.166,-0.423
87,-0.005,-0.007,-0.003,0.122,-0.974,0.011,0.606,-0.171,-0.426
88,-0.004,-0.005,-0.004,0.124,-0.974,0.009,0.606,-0.171,-0.426
89,-0.002,-0.005,-0.003,0.126,-0.977,0.01,0.609,-0.16,-0.433
90,-0.002,-0.003,-0.002,0.128,-0.977,0.013,0.601,-0.174,-0.42
91,-0.002,-0.001,-0.001,0.13,-0.979,0.015,0.609,-0.165,-0.424
92,-0.002,0.0,0.0,0.127,-0.976,0.011,0.612,-0.156,-0.414
93,-0.002,0.0,0.0,0.127,-0.976,0.011,0.592,-0.189,-0.408
94,0.0,0.004,0.002,0.127,-0.974,0.002,0.621,-0.189,-0.423
95,0.005,0.011,0.004,0.125,-0.977,0.0,0.621,-0.189,-0.423
96,0.009,0.026,0.0,0.116,-0.981,0.005,0.606,-0.18,-0.405
97,0.011,0.03,-0.002,0.109,-0.985,0.015,0.604,-0.175,-0.423
98,0.011,0.03,-0.002,0.106,-0.984,0.024,0.612,-0.172,-0.421
99,0.006,0.022,-0.003,0.101,-0.978,0.021,0.591,-0.186,-0.411
100,-0.001,0.017,-0.004,0.094,-0.968,0.017,0.609,-0.181,-0.426
101,-0.011,0.019,-0.007,0.092,-0.959,0.024,0.609,-0.181,-0.426
102,-0.02,0.017,-0.007,0.099,-0.957,0.026,0.606,-0.166,-0.417
103,-0.028,0.018,-0.001,0.107,-0.957,0.026,0.621,-0.178,-0.432
104,-0.031,0.025,0.004,0.116,-0.959,0.033,0.624,-0.165,-0.427
105,-0.03,0.03,0.011,0.128,-0.961,0.04,0.609,-0.169,-0.418
106,-0.03,0.02,0.02,0.138,-0.964,0.044,0.616,-0.175,-0.403
107,-0.023,0.023,0.025,0.141,-0.971,0.05,0.616,-0.175,-0.403
108,-0.018,0.021,0.028,0.142,-0.973,0.054,0.603,-0.16,-0.412
109,-0.014,0.017,0.029,0.143,-0.973,0.052,0.604,-0.162,-0.409
110,-0.012,0.021,0.029,0.144,-0.974,0.05,0.615,-0.174,-0.418
111,-0.006,0.03,0.028,0.146,-0.974,0.048,0.61,-0.157,-0.423
112,0.0,0.041,0.025,0.143,-0.974,0.047,0.597,-0.192,-0.421
113,0.007,0.044,0.023,0.143,-0.974,0.047,0.597,-0.192,-0.421
114,0.011,0.053,0.021,0.139,-0.971,0.05,0.616,-0.192,-0.405
115,0.011,0.058,0.016,0.132,-0.97,0.052,0.607,-0.189,-0.417
116,0.009,0.058,0.016,0.123,-0.974,0.052,0.603,-0.16,-0.423
117,0.009,0.058,0.016,0.116,-0.977,0.047,0.598,-0.193,-0.414
118,0.009,0.06,0.015,0.112,-0.976,0.049,0.606,-0.165,-0.415
119,0.011,0.049,0.018,0.108,-0.975,0.059,0.606,-0.165,-0.415
120,0.015,0.037,0.021,0.106,-0.974,0.061,0.582,-0.175,-0.393
121,0.016,0.028,0.024,0.108,-0.978,0.058,0.582,-0.175,-0.393
122,0.018,0.024,0.025,0.104,-0.981,0.059,0.612,-0.181,-0.409
123,0.02,0.023,0.025,0.104,-0.977,0.058,0.625,-0.163,-0.403
124,0.021,0.022,0.028,0.11,-0.974,0.056,0.61,-0.174,-0.388
125,0.021,0.017,0.03,0.113,-0.972,0.054,0.61,-0.174,-0.388
126,0.024,0.009,0.033,0.113,-0.971,0.048,0.61,-0.174,-0.421
127,0.03,0.009,0.033,0.115,-0.97,0.045,0.616,-0.175,-0.417
128,0.032,-0.002,0.033,0.114,-0.968,0.044,0.607,-0.165,-0.421
129,0.031,-0.007,0.033,0.113,-0.971,0.041,0.609,-0.171,-0.424
130,0.028,-0.007,0.033,0.115,-0.973,0.043,0.603,-0.19,-0.429
131,0.029,-0.003,0.032,0.116,-0.972,0.047,0.624,-0.166,-0.427
132,0.033,-0.006,0.032,0.122,-0.972,0.049,0.624,-0.166,-0.427
133,0.041,-0.014,0.036,0.122,-0.972,0.049,0.592,-0.174,-0.418
134,0.043,-0.014,0.038,0.123,-0.974,0.049,0.6,-0.175,-0.402
135,0.046,-0.022,0.039,0.118,-0.974,0.05,0.6,-0.175,-0.402
136,0.047,-0.025,0.042,0.117,-0.972,0.044,0.603,-0.169,-0.397
137,0.047,-0.025,0.042,0.117,-0.973,0.043,0.595,-0.168,-0.409
138,0.046,-0.021,0.043,0.114,-0.974,0.051,0.603,-0.175,-0.415
139,0.043,-0.019,0.046,0.113,-0.97,0.052,0.603,-0.175,-0.415
140,0.042,-0.025,0.048,0.108,-0.962,0.048,0.606,-0.187,-0.424
141,0.046,-0.041,0.049,0.103,-0.956,0.043,0.588,-0.159,-0.4
142,0.048,-0.051,0.047,0.105,-0.955,0.042,0.603,-0.187,-0.396
143,0.049,-0.056,0.048,0.107,-0.959,0.048,0.601,-0.18,-0.417
144,0.048,-0.063,0.05,0.11,-0.965,0.057,0.615,-0.169,-0.417
145,0.049,-0.075,0.054,0.113,-0.966,0.061,0.606,-0.198,-0.411
146,0.052,-0.093,0.058,0.115,-0.961,0.057,0.606,-0.198,-0.411
147,0.06,-0.113,0.063,0.118,-0.956,0.052,0.604,-0.159,-0.408
148,0.072,-0.131,0.068,0.118,-0.957,0.044,0.592,-0.183,-0.393
149,0.076,-0.14,0.072,0.12,-0.96,0.031,0.592,-0.183,-0.393
150,0.077,-0.138,0.074,0.132,-0.964,0.024,0.586,-0.184,-0.408
151,0.079,-0.142,0.073,0.132,-0.964,0.024,0.606,-0.168,-0.402
152,0.081,-0.156,0.07,0.142,-0.961,0.02,0.594,-0.184,-0.406
153,0.083,-0.176,0.067,0.141,-0.959,0.023,0.594,-0.184,-0.406
154,0.075,-0.185,0.063,0.142,-0.963,0.026,0.6,-0.178,-0.426
155,0.064,-0.199,0.06,0.144,-0.966,0.027,0.595,-0.172,-0.409
156,0.059,-0.219,0.063,0.153,-0.971,0.035,0.594,-0.178,-0.405
157,0.059,-0.219,0.063,0.178,-0.978,0.03,0.594,-0.192,-0.42
158,0.054,-0.242,0.063,0.191,-0.98,0.023,0.604,-0.208,-0.423
159,0.053,-0.261,0.064,0.196,-0.982,0.027,0.604,-0.208,-0.423
160,0.054,-0.282,0.068,0.207,-0.988,0.034,0.591,-0.186,-0.412
161,0.048,-0.292,0.067,0.213,-0.995,0.043,0.585,-0.177,-0.397
162,0.035,-0.304,0.063,0.222,-1.008,0.034,0.567,-0.192,-0.42
163,0.027,-0.296,0.06,0.233,-1.018,0.02,0.592,-0.171,-0.394
164,0.021,-0.28,0.05,0.241,-1.019,0.023,0.585,-0.18,-0.399
165,0.018,-0.252,0.039,0.243,-1.009,0.021,0.58,-0.192,-0.426
166,0.012,-0.232,0.028,0.236,-0.986,0.017,0.58,-0.192,-0.426
167,0.009,-0.224,0.02,0.226,-0.972,0.019,0.582,-0.175,-0.424
168,0.002,-0.23,0.011,0.217,-0.973,0.018,0.588,-0.183,-0.424
169,-0.005,-0.249,0.011,0.209,-0.984,0.015,0.565,-0.174,-0.399
170,-0.007,-0.259,0.014,0.203,-0.999,0.007,0.565,-0.174,-0.399
171,0.0,-0.249,0.019,0.203,-0.999,0.007,0.583,-0.184,-0.415
172,0.006,-0.237,0.019,0.201,-1.01,-0.002,0.573,-0.16,-0.403
173,0.014,-0.233,0.022,0.2,-1.003,-0.009,0.573,-0.16,-0.403
174,0.017,-0.235,0.016,0.198,-0.991,-0.008,0.558,-0.169,-0.415
175,0.009,-0.257,0.018,0.199,-0.959,-0.018,0.571,-0.177,-0.406
176,0.009,-0.257,0.018,0.205,-0.948,-0.014,0.561,-0.174,-0.403
177,-0.005,-0.278,0.013,0.211,-0.964,0.001,0.565,-0.175,-0.399
178,-0.005,-0.291,0.008,0.212,-0.96,-0.001,0.589,-0.186,-0.394
179,-0.004,-0.301,0.0,0.223,-0.958,-0.008,0.583,-0.186,-0.418
180,-0.008,-0.291,-0.005,0.234,-0.953,-0.015,0.583,-0.186,-0.418
181,0.0,-0.272,-0.011,0.231,-0.947,-0.02,0.591,-0.192,-0.423
182,0.008,-0.254,-0.016,0.231,-0.944,-0.022,0.588,-0.195,-0.403
183,0.018,-0.242,-0.014,0.229,-0.949,-0.007,0.549,-0.18,-0.394
184,0.02,-0.252,-0.009,0.221,-0.942,0.005,0.549,-0.18,-0.394
185,0.018,-0.262,-0.007,0.214,-0.937,0.002,0.57,-0.195,-0.399
186,0.016,-0.246,-0.018,0.217,-0.923,-0.012,0.559,-0.175,-0.412
187,0.018,-0.253,-0.012,0.219,-0.925,-0.006,0.559,-0.175,-0.412
188,0.018,-0.262,-0.01,0.223,-0.949,0.016,0.558,-0.193,-0.411
189,-0.003,-0.257,-0.022,0.234,-0.959,0.014,0.543,-0.189,-0.409
190,0.006,-0.247,-0.009,0.237,-0.94,0.01,0.576,-0.199,-0.423
191,0.007,-0.252,-0.002,0.237,-0.94,0.01,0.555,-0.177,-0.423
192,0.01,-0.255,-0.002,0.238,-0.941,-0.004,0.573,-0.193,-0.408
193,0.015,-0.25,-0.003,0.237,-0.956,-0.003,0.573,-0.193,-0.408
194,0.021,-0.242,-0.009,0.228,-0.967,0.012,0.553,-0.168,-0.405
195,0.021,-0.242,-0.009,0.222,-0.957,0.019,0.552,-0.178,-0.42
196,0.03,-0.231,-0.02,0.219,-0.948,0.017,0.55,-0.201,-0.402
197,0.034,-0.217,-0.032,0.218,-0.948,0.037,0.55,-0.201,-0.402
198,0.032,-0.211,-0.044,0.223,-0.948,0.058,0.552,-0.195,-0.405
199,0.035,-0.214,-0.051,0.236,-0.95,0.05,0.556,-0.174,-0.424
200,0.045,-0.221,-0.055,0.246,-0.942,0.027,0.556,-0.174,-0.424
201,0.048,-0.219,-0.058,0.249,-0.932,0.015,0.547,-0.189,-0.402
202,0.055,-0.219,-0.061,0.252,-0.937,0.013,0.559,-0.186,-0.424
203,0.068,-0.223,-0.062,0.249,-0.948,0.009,0.553,-0.199,-0.418
204,0.072,-0.212,-0.063,0.241,-0.958,0.011,0.559,-0.208,-0.414
205,0.069,-0.202,-0.063,0.231,-0.961,0.018,0.568,-0.189,-0.414
206,0.072,-0.193,-0.067,0.225,-0.964,0.027,0.538,-0.204,-0.427
207,0.075,-0.201,-0.072,0.222,-0.965,0.04,0.538,-0.204,-0.427
208,0.076,-0.214,-0.074,0.218,-0.957,0.042,0.549,-0.19,-0.408
209,0.081,-0.242,-0.08,0.208,-0.943,0.035,0.553,-0.165,-0.412
210,0.087,-0.259,-0.09,0.199,-0.932,0.024,0.537,-0.189,-0.391
211,0.085,-0.259,-0.102,0.199,-0.932,0.024,0.547,-0.166,-0.409
212,0.086,-0.26,-0.113,0.205,-0.93,0.007,0.546,-0.199,-0.418
213,0.095,-0.244,-0.126,0.212,-0.928,-0.003,0.564,-0.18,-0.397
214,0.095,-0.244,-0.126,0.212,-0.932,0.0,0.564,-0.18,-0.397
215,0.102,-0.226,-0.136,0.218,-0.945,0.018,0.565,-0.198,-0.421
216,0.105,-0.219,-0.144,0.218,-0.955,0.04,0.543,-0.198,-0.409
217,0.107,-0.228,-0.149,0.212,-0.959,0.049,0.558,-0.192,-0.402
218,0.109,-0.241,-0.152,0.21,-0.951,0.045,0.531,-0.189,-0.408
219,0.109,-0.254,-0.156,0.207,-0.937,0.045,0.564,-0.189,-0.394
220,0.105,-0.271,-0.164,0.211,-0.932,0.044,0.555,-0.199,-0.394
221,0.104,-0.279,-0.167,0.221,-0.921,0.035,0.555,-0.199,-0.394
222,0.109,-0.282,-0.17,0.23,-0.915,0.037,0.556,-0.196,-0.406
223,0.113,-0.275,-0.177,0.239,-0.921,0.045,0.556,-0.193,-0.406
224,0.113,-0.266,-0.184,0.246,-0.923,0.052,0.547,-0.198,-0.399
225,0.117,-0.254,-0.196,0.252,-0.924,0.06,0.546,-0.201,-0.405
226,0.114,-0.241,-0.214,0.255,-0.928,0.067,0.54,-0.195,-0.417
227,0.106,-0.228,-0.232,0.257,-0.939,0.066,0.54,-0.195,-0.417
228,0.095,-0.212,-0.247,0.258,-0.95,0.071,0.538,-0.192,-0.411
229,0.081,-0.184,-0.266,0.259,-0.968,0.081,0.547,-0.195,-0.418
230,0.056,-0.172,-0.267,0.259,-0.968,0.081,0.556,-0.207,-0.402
231,0.023,-0.165,-0.256,0.27,-0.99,0.058,0.564,-0.202,-0.405
232,-0.009,-0.145,-0.23,0.277,-1.021,0.013,0.549,-0.196,-0.408
233,-0.052,-0.13,-0.187,0.286,-1.07,0.003,0.547,-0.207,-0.406
234,-0.052,-0.13,-0.187,0.305,-1.108,0.007,0.547,-0.207,-0.406
235,-0.1,-0.107,-0.144,0.315,-1.145,-0.029,0.555,-0.199,-0.405
236,-0.156,-0.04,-0.104,0.315,-1.198,-0.064,0.562,-0.19,-0.415
237,-0.223,0.035,-0.069,0.298,-1.229,-0.056,0.562,-0.211,-0.42
238,-0.305,0.092,-0.027,0.262,-1.242,-0.031,0.538,-0.193,-0.403
239,-0.391,0.128,0.016,0.196,-1.251,-0.005,0.55,-0.199,-0.414
240,-0.497,0.161,0.074,0.106,-1.247,0.02,0.556,-0.192,-0.417
241,-0.606,0.203,0.123,0.029,-1.22,0.029,0.556,-0.192,-0.417
242,-0.707,0.266,0.157,-0.019,-1.165,0.048,0.559,-0.189,-0.414
243,-0.793,0.333,0.156,-0.053,-1.079,0.08,0.556,-0.183,-0.426
244,-0.913,0.317,0.158,-0.028,-1.013,0.057,0.562,-0.199,-0.441
245,-0.989,0.336,0.133,0.018,-1.039,0.077,0.546,-0.184,-0.439
246,-1.11,0.291,0.16,0.048,-1.059,0.093,0.546,-0.184,-0.445
247,-1.157,0.241,0.172,0.082,-1.026,0.04,0.549,-0.184,-0.453
248,-1.136,0.181,0.178,0.108,-1.023,0.03,0.549,-0.184,-0.453
249,-1.129,0.107,0.206,0.119,-1.099,0.092,0.546,-0.168,-0.454
250,-1.204,0.004,0.243,0.119,-1.099,0.092,0.561,-0.171,-0.468
251,-1.19,-0.109,0.254,0.078,-1.132,0.112,0.534,-0.153,-0.486
252,-1.131,-0.214,0.248,0.046,-1.083,0.056,0.528,-0.154,-0.481
253,-1.074,-0.219,0.296,0.066,-1.092,0.048,0.537,-0.148,-0.49
254,-1.074,-0.219,0.296,0.072,-1.11,0.036,0.55,-0.145,-0.486
255,-1.053,-0.134,0.32,0.075,-1.114,0.007,0.55,-0.145,-0.486
256,-1.046,0.005,0.341,0.118,-1.096,-0.005,0.562,-0.133,-0.489
257,-0.996,0.154,0.368,0.141,-1.025,-0.02,0.552,-0.138,-0.508
258,-0.896,0.247,0.381,0.119,-0.941,0.005,0.52,-0.127,-0.513
259,-0.867,0.35,0.357,0.156,-0.935,0.055,0.531,-0.123,-0.495
260,-0.849,0.451,0.399,0.22,-1.007,0.084,0.549,-0.111,-0.513
261,-0.851,0.555,0.41,0.207,-1.056,0.142,0.549,-0.111,-0.513
262,-0.857,0.574,0.381,0.162,-1.052,0.197,0.541,-0.114,-0.532
263,-0.823,0.604,0.351,0.159,-1.012,0.208,0.543,-0.109,-0.522
264,-0.754,0.644,0.34,0.141,-0.971,0.223,0.529,-0.105,-0.529
265,-0.662,0.657,0.352,0.148,-0.956,0.231,0.529,-0.102,-0.532
266,-0.606,0.648,0.364,0.149,-0.966,0.242,0.543,-0.091,-0.559
267,-0.6,0.616,0.326,0.066,-0.947,0.267,0.543,-0.091,-0.559
268,-0.574,0.602,0.289,0.064,-0.916,0.229,0.546,-0.091,-0.528
269,-0.524,0.689,0.305,0.046,-0.912,0.206,0.559,-0.097,-0.538
270,-0.499,0.733,0.283,0.046,-0.912,0.206,0.562,-0.084,-0.547
271,-0.461,0.802,0.268,0.036,-0.887,0.177,0.562,-0.078,-0.537
272,-0.422,0.878,0.237,0.025,-0.844,0.167,0.57,-0.082,-0.549
273,-0.408,0.955,0.207,-0.005,-0.821,0.213,0.571,-0.073,-0.546
274,-0.408,0.955,0.207,0.014,-0.816,0.225,0.571,-0.073,-0.546
275,-0.377,0.958,0.175,0.022,-0.814,0.239,0.559,-0.051,-0.552
276,-0.341,0.909,0.147,0.039,-0.811,0.269,0.573,-0.069,-0.541
277,-0.295,0.786,0.123,0.036,-0.802,0.309,0.573,-0.076,-0.564
278,-0.224,0.646,0.118,0.036,-0.788,0.344,0.579,-0.085,-0.549
279,-0.155,0.485,0.087,0.047,-0.789,0.361,0.582,-0.078,-0.564
280,-0.081,0.372,0.092,0.056,-0.785,0.357,0.582,-0.078,-0.564
281,-0.014,0.322,0.106,0.055,-0.758,0.35,0.57,-0.082,-0.55
282,0.05,0.352,0.139,0.107,-0.751,0.319,0.568,-0.081,-0.567
283,0.107,0.324,0.117,0.11,-0.731,0.315,0.603,-0.085,-0.531
284,0.155,0.311,0.095,0.053,-0.693,0.337,0.612,-0.073,-0.555
285,0.193,0.305,0.075,0.055,-0.682,0.343,0.594,-0.081,-0.571
286,0.228,0.298,0.053,0.062,-0.673,0.346,0.594,-0.081,-0.571
287,0.273,0.308,0.034,0.033,-0.663,0.379,0.574,-0.087,-0.543
288,0.331,0.243,0.007,0.036,-0.659,0.38,0.574,-0.087,-0.543
289,0.386,0.176,-0.01,0.036,-0.659,0.38,0.601,-0.084,-0.555
290,0.441,0.11,-0.018,0.072,-0.665,0.364,0.603,-0.097,-0.535
291,0.508,0.061,-0.023,0.079,-0.678,0.393,0.594,-0.088,-0.562
292,0.569,-0.015,-0.028,0.069,-0.697,0.437,0.594,-0.088,-0.562
293,0.569,-0.015,-0.028,0.079,-0.719,0.47,0.612,-0.096,-0.534
294,0.606,-0.051,-0.031,0.116,-0.746,0.479,0.567,-0.081,-0.532
295,0.612,-0.058,-0.025,0.138,-0.781,0.499,0.567,-0.081,-0.532
296,0.597,-0.032,-0.016,0.138,-0.81,0.531,0.58,-0.102,-0.541
297,0.573,-0.048,0.009,0.15,-0.821,0.528,0.601,-0.102,-0.522
298,0.546,-0.068,0.038,0.186,-0.852,0.499,0.592,-0.094,-0.523
299,0.527,-0.074,0.058,0.199,-0.888,0.48,0.592,-0.094,-0.523
300,0.499,-0.056,0.072,0.211,-0.912,0.471,0.606,-0.09,-0.54
301,0.457,-0.003,0.081,0.233,-0.951,0.481,0.606,-0.09,-0.54
302,0.415,0.07,0.086,0.232,-0.988,0.514,0.586,-0.105,-0.519
303,0.367,0.071,0.106,0.236,-1.007,0.515,0.598,-0.132,-0.507
304,0.316,0.116,0.115,0.244,-1.013,0.503,0.592,-0.132,-0.516
305,0.307,0.114,0.14,0.253,-1.002,0.5,0.597,-0.129,-0.532
306,0.34,0.149,0.161,0.245,-0.975,0.505,0.597,-0.129,-0.532
307,0.375,0.17,0.182,0.233,-0.938,0.547,0.609,-0.117,-0.519
308,0.364,0.206,0.192,0.217,-0.896,0.601,0.603,-0.139,-0.504
309,0.329,0.183,0.189,0.217,-0.896,0.601,0.603,-0.139,-0.504
310,0.301,0.121,0.168,0.196,-0.837,0.644,0.585,-0.132,-0.523
311,0.273,0.07,0.12,0.144,-0.832,0.576,0.582,-0.132,-0.523
312,0.248,-0.021,0.071,0.066,-0.927,0.426,0.594,-0.148,-0.514
313,0.248,-0.021,0.071,0.012,-1.08,0.266,0.594,-0.148,-0.514
314,0.239,-0.111,0.016,-0.054,-1.245,0.137,0.597,-0.15,-0.514
315,0.298,-0.237,-0.011,-0.096,-1.392,0.052,0.573,-0.115,-0.489
316,0.321,-0.249,-0.042,-0.077,-1.51,0.076,0.594,-0.124,-0.498
317,0.208,-0.107,-0.061,0.005,-1.521,0.24,0.595,-0.126,-0.505
318,0.025,0.054,-0.072,0.088,-1.385,0.415,0.58,-0.121,-0.505
319,-0.135,0.056,-0.058,0.116,-1.13,0.497,0.579,-0.142,-0.534
320,-0.2,-0.153,-0.048,0.087,-0.854,0.417,0.579,-0.142,-0.534
321,-0.13,-0.48,-0.051,0.029,-0.631,0.206,0.604,-0.124,-0.511
322,0.01,-0.704,-0.085,-0.014,-0.498,-0.003,0.58,-0.126,-0.502
323,0.111,-0.66,-0.147,-0.022,-0.48,-0.124,0.58,-0.126,-0.502
324,0.144,-0.424,-0.208,0.034,-0.584,-0.14,0.571,-0.136,-0.517
325,0.148,-0.171,-0.235,0.17,-0.782,-0.089,0.583,-0.118,-0.504
326,0.175,-0.037,-0.198,0.328,-0.952,-0.036,0.574,-0.139,-0.517
327,0.222,-0.021,-0.116,0.427,-1.037,-0.005,0.574,-0.139,-0.517
328,0.282,-0.039,-0.036,0.435,-1.072,-0.008,0.582,-0.136,-0.504
329,0.346,-0.141,0.04,0.435,-1.072,-0.008,0.562,-0.136,-0.531
330,0.385,-0.196,0.076,0.365,-1.065,-0.022,0.574,-0.117,-0.523
331,0.412,-0.17,0.099,0.272,-1.049,-0.016,0.576,-0.135,-0.504
332,0.412,-0.17,0.099,0.194,-1.021,-0.001,0.574,-0.135,-0.522
333,0.411,-0.105,0.107,0.153,-0.999,0.037,0.574,-0.135,-0.522
334,0.392,-0.041,0.114,0.163,-0.983,0.062,0.58,-0.13,-0.51
335,0.376,0.011,0.112,0.168,-0.969,0.104,0.576,-0.141,-0.496
336,0.335,-0.014,0.112,0.148,-0.966,0.179,0.559,-0.159,-0.513
337,0.321,-0.065,0.102,0.113,-0.953,0.206,0.559,-0.159,-0.513
338,0.29,-0.125,0.081,0.07,-0.946,0.207,0.555,-0.172,-0.508
339,0.264,-0.203,0.051,0.065,-0.925,0.171,0.57,-0.157,-0.502
340,0.238,-0.226,0.024,0.096,-0.939,0.121,0.57,-0.157,-0.502
341,0.172,-0.231,-0.034,0.131,-1.004,0.076,0.57,-0.153,-0.492
342,0.179,-0.259,0.021,0.182,-1.012,0.028,0.567,-0.139,-0.489
343,0.224,-0.277,0.058,0.228,-0.998,-0.003,0.561,-0.165,-0.499
344,0.231,-0.259,0.047,0.264,-0.976,-0.039,0.568,-0.169,-0.504
345,0.304,-0.262,0.098,0.269,-0.929,-0.054,0.553,-0.183,-0.486
346,0.341,-0.257,0.114,0.241,-0.902,-0.036,0.553,-0.183,-0.486
347,0.351,-0.245,0.1,0.234,-0.868,-0.015,0.547,-0.16,-0.498
348,0.354,-0.235,0.078,0.234,-0.853,0.0,0.555,-0.168,-0.511
349,0.352,-0.221,0.056,0.23,-0.853,0.0,0.556,-0.16,-0.492
350,0.351,-0.188,0.025,0.219,-0.857,0.005,0.556,-0.156,-0.478
351,0.364,-0.143,0.003,0.212,-0.869,0.005,0.561,-0.195,-0.478
352,0.364,-0.143,0.003,0.2,-0.881,-0.002,0.561,-0.166,-0.484
353,0.382,-0.098,-0.017,0.188,-0.89,-0.004,0.561,-0.166,-0.484
354,0.386,-0.07,-0.039,0.189,-0.902,-0.006,0.553,-0.171,-0.487
355,0.379,-0.065,-0.056,0.19,-0.931,0.0,0.55,-0.183,-0.484
356,0.368,-0.044,-0.064,0.212,-0.949,0.004,0.534,-0.172,-0.472
357,0.368,-0.025,-0.069,0.227,-0.947,-0.004,0.555,-0.177,-0.48
358,0.364,-0.025,-0.073,0.208,-0.952,-0.007,0.561,-0.192,-0.459
359,0.349,0.0,-0.075,0.205,-0.957,0.004,0.547,-0.18,-0.49
360,0.335,0.03,-0.079,0.212,-0.957,0.021,0.547,-0.18,-0.49
361,0.328,0.039,-0.08,0.21,-0.961,0.034,0.558,-0.184,-0.463
362,0.319,0.035,-0.077,0.21,-0.965,0.047,0.562,-0.19,-0.475
363,0.301,0.029,-0.081,0.206,-0.969,0.056,0.558,-0.192,-0.465
364,0.288,0.021,-0.084,0.213,-0.975,0.058,0.538,-0.189,-0.438
365,0.275,0.009,-0.089,0.221,-0.972,0.058,0.556,-0.186,-0.472
366,0.26,0.001,-0.095,0.213,-0.959,0.057,0.546,-0.192,-0.48
367,0.237,0.003,-0.103,0.217,-0.949,0.053,0.546,-0.192,-0.48
368,0.213,0.01,-0.116,0.217,-0.949,0.053,0.544,-0.205,-0.465
369,0.21,0.021,-0.118,0.233,-0.945,0.044,0.561,-0.195,-0.454
370,0.207,0.029,-0.126,0.238,-0.946,0.042,0.564,-0.198,-0.459
371,0.198,0.03,-0.135,0.23,-0.947,0.052,0.54,-0.195,-0.441
372,0.2,0.014,-0.128,0.234,-0.943,0.051,0.54,-0.195,-0.441
373,0.2,0.014,-0.128,0.244,-0.951,0.051,0.555,-0.196,-0.469
374,0.2,-0.014,-0.123,0.244,-0.957,0.055,0.555,-0.196,-0.469
375,0.191,-0.046,-0.129,0.251,-0.941,0.03,0.558,-0.181,-0.456
376,0.212,-0.067,-0.126,0.249,-0.94,0.01,0.573,-0.199,-0.436
377,0.204,-0.073,-0.153,0.238,-0.94,0.004,0.555,-0.214,-0.463
378,0.212,-0.084,-0.169,0.222,-0.944,0.002,0.561,-0.177,-0.444
379,0.221,-0.075,-0.179,0.207,-0.957,-0.003,0.556,-0.204,-0.45
380,0.222,-0.06,-0.198,0.207,-0.956,-0.013,0.559,-0.204,-0.447
381,0.229,-0.054,-0.206,0.196,-0.963,-0.002,0.559,-0.204,-0.447
382,0.224,-0.052,-0.208,0.186,-0.967,0.011,0.573,-0.196,-0.442
383,0.229,-0.068,-0.198,0.184,-0.979,0.019,0.55,-0.192,-0.448
384,0.221,-0.086,-0.184,0.171,-0.995,0.034,0.559,-0.205,-0.457
385,0.206,-0.099,-0.176,0.165,-0.993,0.039,0.549,-0.204,-0.424
386,0.195,-0.109,-0.163,0.182,-0.993,0.036,0.556,-0.19,-0.441
387,0.179,-0.104,-0.155,0.213,-0.986,0.032,0.568,-0.204,-0.447
388,0.168,-0.084,-0.151,0.213,-0.986,0.032,0.568,-0.204,-0.447
389,0.166,-0.058,-0.149,0.243,-0.968,0.022,0.568,-0.19,-0.451
390,0.171,-0.035,-0.15,0.267,-0.955,0.019,0.559,-0.217,-0.444
391,0.18,-0.01,-0.156,0.291,-0.945,0.026,0.561,-0.193,-0.436
392,0.186,0.009,-0.161,0.308,-0.941,0.043,0.574,-0.214,-0.43
393,0.186,0.009,-0.161,0.324,-0.945,0.064,0.558,-0.181,-0.429
394,0.173,0.011,-0.162,0.336,-0.955,0.075,0.582,-0.208,-0.445
395,0.162,0.01,-0.162,0.349,-0.975,0.074,0.582,-0.208,-0.445
396,0.137,0.013,-0.172,0.37,-1.016,0.061,0.595,-0.207,-0.438
397,0.088,0.009,-0.188,0.39,-1.078,0.022,0.555,-0.214,-0.43
398,0.048,0.023,-0.185,0.391,-1.135,-0.035,0.57,-0.196,-0.445
399,0.035,0.076,-0.163,0.376,-1.179,-0.051,0.565,-0.22,-0.423
400,0.012,0.121,-0.13,0.353,-1.197,-0.01,0.567,-0.219,-0.438
401,-0.039,0.14,-0.099,0.3,-1.175,0.025,0.574,-0.216,-0.43
402,-0.114,0.156,-0.079,0.243,-1.163,0.04,0.574,-0.216,-0.43
403,-0.193,0.176,-0.067,0.202,-1.173,0.063,0.57,-0.213,-0.414
404,-0.291,0.206,-0.063,0.174,-1.176,0.081,0.579,-0.192,-0.447
405,-0.415,0.256,-0.059,0.175,-1.177,0.072,0.564,-0.195,-0.433
406,-0.545,0.307,-0.042,0.175,-1.165,0.038,0.597,-0.202,-0.441
407,-0.659,0.375,-0.011,0.192,-1.165,0.038,0.579,-0.201,-0.429
408,-0.753,0.442,0.017,0.179,-1.119,-0.002,0.582,-0.193,-0.447
409,-0.812,0.52,0.025,0.139,-1.053,-0.018,0.582,-0.193,-0.447
410,-0.909,0.62,0.012,0.089,-0.987,-0.012,0.592,-0.213,-0.453
411,-0.961,0.67,0.004,0.057,-0.938,-0.004,0.592,-0.198,-0.459
412,-0.961,0.67,0.004,0.071,-0.902,0.014,0.573,-0.171,-0.471
413,-1.006,0.657,0.007,0.083,-0.871,0.024,0.579,-0.195,-0.459
414,-1.103,0.66,0.006,0.062,-0.914,0.046,0.604,-0.186,-0.477
415,-1.169,0.686,0.034,0.064,-0.912,0.039,0.591,-0.177,-0.487
416,-1.107,0.652,0.064,0.06,-0.911,0.056,0.591,-0.177,-0.487
417,-1.216,0.618,0.067,0.03,-1.029,0.125,0.618,-0.184,-0.498
418,-1.239,0.569,0.103,0.032,-1.025,0.116,0.597,-0.162,-0.504
419,-1.199,0.49,0.148,0.058,-1.014,0.105,0.598,-0.16,-0.486
420,-1.158,0.401,0.217,0.062,-1.063,0.109,0.592,-0.156,-0.492
421,-1.085,0.299,0.249,0.015,-1.04,0.099,0.592,-0.156,-0.492
422,-1.021,0.234,0.249,0.003,-1.06,0.084,0.616,-0.141,-0.508
423,-0.979,0.282,0.249,0.042,-1.08,0.044,0.616,-0.141,-0.508
424,-0.914,0.365,0.227,0.086,-1.057,0.031,0.606,-0.144,-0.52
425,-0.847,0.427,0.219,0.161,-1.057,0.075,0.618,-0.124,-0.52
426,-0.804,0.475,0.248,0.233,-1.061,0.113,0.604,-0.121,-0.514
427,-0.64,0.455,0.383,0.269,-1.044,0.132,0.613,-0.121,-0.537
428,-0.575,0.45,0.438,0.27,-1.006,0.158,0.607,-0.12,-0.562
429,-0.518,0.513,0.478,0.229,-0.967,0.194,0.607,-0.12,-0.562
430,-0.456,0.575,0.494,0.181,-0.94,0.223,0.6,-0.105,-0.541
431,-0.456,0.575,0.494,0.133,-0.924,0.244,0.604,-0.117,-0.556
432,-0.38,0.629,0.501,0.1,-0.921,0.257,0.622,-0.118,-0.55
433,-0.317,0.655,0.489,0.086,-0.931,0.254,0.621,-0.12,-0.549
434,-0.283,0.701,0.487,0.082,-0.949,0.241,0.63,-0.102,-0.541
435,-0.257,0.744,0.508,0.086,-0.955,0.219,0.63,-0.102,-0.541
436,-0.243,0.781,0.493,0.097,-0.97,0.212,0.622,-0.106,-0.546
437,-0.236,0.837,0.508,0.096,-0.962,0.224,0.613,-0.106,-0.538
438,-0.211,0.868,0.511,0.09,-0.926,0.237,0.628,-0.106,-0.531
439,-0.175,0.891,0.504,0.095,-0.907,0.261,0.633,-0.106,-0.544
440,-0.141,0.875,0.479,0.081,-0.872,0.278,0.627,-0.103,-0.532
441,-0.125,0.889,0.446,0.064,-0.826,0.29,0.627,-0.103,-0.532
442,-0.114,0.828,0.386,0.069,-0.784,0.286,0.616,-0.09,-0.532
443,-0.116,0.821,0.312,0.058,-0.772,0.284,0.634,-0.102,-0.544
444,-0.127,0.835,0.303,0.106,-0.791,0.291,0.649,-0.087,-0.541
445,-0.12,0.829,0.259,0.14,-0.789,0.29,0.642,-0.108,-0.537
446,-0.093,0.823,0.252,0.14,-0.789,0.29,0.652,-0.099,-0.534
447,-0.051,0.819,0.323,0.12,-0.784,0.314,0.652,-0.099,-0.534
448,0.024,0.777,0.27,0.088,-0.75,0.337,0.633,-0.097,-0.537
449,0.107,0.737,0.236,0.075,-0.729,0.341,0.651,-0.099,-0.537
450,0.165,0.72,0.24,0.127,-0.759,0.344,0.672,-0.111,-0.525
451,0.165,0.72,0.24,0.132,-0.749,0.358,0.655,-0.114,-0.505
452,0.213,0.7,0.228,0.149,-0.756,0.37,0.666,-0.111,-0.52
453,0.238,0.696,0.226,0.178,-0.775,0.375,0.666,-0.111,-0.52
454,0.256,0.712,0.227,0.167,-0.771,0.385,0.681,-0.124,-0.519
455,0.284,0.752,0.226,0.162,-0.774,0.4,0.651,-0.117,-0.502
456,0.325,0.788,0.231,0.174,-0.771,0.427,0.667,-0.096,-0.507
457,0.38,0.798,0.242,0.186,-0.769,0.468,0.672,-0.129,-0.504
458,0.46,0.791,0.263,0.211,-0.784,0.501,0.69,-0.118,-0.501
459,0.539,0.772,0.287,0.236,-0.806,0.52,0.679,-0.115,-0.508
460,0.592,0.754,0.31,0.247,-0.818,0.525,0.679,-0.115,-0.508
461,0.602,0.72,0.325,0.257,-0.818,0.499,0.702,-0.118,-0.502
462,0.599,0.716,0.328,0.266,-0.824,0.454,0.681,-0.124,-0.472
463,0.592,0.746,0.321,0.261,-0.834,0.411,0.681,-0.124,-0.472
464,0.585,0.776,0.307,0.25,-0.85,0.379,0.685,-0.133,-0.493
465,0.576,0.828,0.286,0.25,-0.85,0.379,0.694,-0.141,-0.474
466,0.564,0.879,0.265,0.244,-0.865,0.347,0.684,-0.148,-0.463
467,0.573,0.926,0.246,0.25,-0.866,0.311,0.684,-0.148,-0.463
468,0.576,0.97,0.223,0.228,-0.869,0.294,0.696,-0.151,-0.478
469,0.591,1.005,0.199,0.19,-0.856,0.271,0.685,-0.142,-0.456
470,0.591,1.005,0.199,0.176,-0.868,0.268,0.702,-0.138,-0.469
471,0.611,1.045,0.181,0.136,-0.915,0.303,0.721,-0.145,-0.459
472,0.611,1.094,0.159,0.083,-0.932,0.327,0.702,-0.165,-0.445
473,0.591,1.123,0.172,0.03,-0.931,0.34,0.703,-0.15,-0.436
474,0.548,1.115,0.189,-0.012,-0.93,0.346,0.703,-0.15,-0.436
475,0.496,1.069,0.203,-0.046,-0.924,0.371,0.72,-0.174,-0.429
476,0.442,0.96,0.213,-0.083,-0.917,0.364,0.715,-0.163,-0.436
477,0.379,0.84,0.198,-0.108,-0.925,0.291,0.715,-0.163,-0.436
478,0.345,0.702,0.157,-0.139,-0.924,0.202,0.714,-0.15,-0.414
479,0.376,0.541,0.113,-0.153,-0.934,0.123,0.727,-0.189,-0.426
480,0.429,0.431,0.077,-0.119,-0.992,0.081,0.726,-0.168,-0.408
481,0.494,0.397,0.048,-0.055,-1.055,0.079,0.726,-0.168,-0.408
482,0.578,0.416,0.011,0.002,-1.101,0.088,0.714,-0.186,-0.408
483,0.67,0.471,-0.036,0.061,-1.137,0.091,0.738,-0.18,-0.385
484,0.711,0.618,-0.1,0.156,-1.178,0.094,0.736,-0.168,-0.379
485,0.673,0.798,-0.171,0.26,-1.233,0.118,0.739,-0.184,-0.378
486,0.567,0.958,-0.193,0.26,-1.233,0.118,0.715,-0.171,-0.376
487,0.441,1.098,-0.149,0.352,-1.287,0.153,0.736,-0.187,-0.391
488,0.323,1.224,-0.052,0.445,-1.302,0.176,0.736,-0.187,-0.391
489,0.227,1.299,0.058,0.489,-1.244,0.224,0.745,-0.195,-0.376
490,0.227,1.299,0.058,0.458,-1.103,0.286,0.75,-0.192,-0.343
491,0.193,1.265,0.147,0.374,-0.912,0.29,0.75,-0.192,-0.343
492,0.218,1.152,0.197,0.288,-0.75,0.223,0.744,-0.178,-0.343
493,0.256,1.078,0.2,0.232,-0.657,0.112,0.741,-0.193,-0.343
494,0.303,1.115,0.18,0.2,-0.628,0.005,0.741,-0.19,-0.331
495,0.382,1.255,0.158,0.169,-0.638,-0.058,0.741,-0.19,-0.331
496,0.457,1.432,0.116,0.183,-0.705,-0.071,0.751,-0.204,-0.327
497,0.522,1.611,0.105,0.273,-0.824,-0.037,0.751,-0.21,-0.324
498,0.567,1.722,0.13,0.351,-0.935,0.013,0.748,-0.186,-0.309
499,0.568,1.782,0.167,0.372,-1.024,0.069,0.763,-0.192,-0.306
500,0.536,1.803,0.18,0.364,-1.069,0.095,0.763,-0.18,-0.267
501,0.479,1.793,0.213,0.332,-1.073,0.085,0.741,-0.189,-0.279
502,0.41,1.8,0.204,0.24,-1.051,0.077,0.741,-0.189,-0.279
503,0.352,1.795,0.224,0.207,-1.023,0.053,0.75,-0.183,-0.262
504,0.354,1.752,0.212,0.186,-0.987,0.012,0.745,-0.204,-0.237
505,0.405,1.726,0.207,0.186,-0.987,0.012,0.748,-0.201,-0.24
506,0.471,1.742,0.134,0.136,-0.962,-0.03,0.754,-0.202,-0.234
507,0.5,1.752,0.161,0.164,-0.959,-0.071,0.757,-0.195,-0.237
508,0.53,1.726,0.134,0.149,-0.927,-0.064,0.757,-0.195,-0.237
509,0.547,1.695,0.168,0.124,-0.918,-0.058,0.763,-0.195,-0.217
510,0.547,1.695,0.168,0.214,-0.957,-0.085,0.742,-0.171,-0.204
511,0.539,1.691,0.213,0.23,-0.965,-0.084,0.748,-0.198,-0.201
512,0.557,1.61,0.172,0.217,-0.985,-0.083,0.745,-0.187,-0.18
513,0.576,1.568,0.228,0.24,-1.011,-0.082,0.753,-0.202,-0.172
514,0.577,1.562,0.251,0.182,-1.011,-0.087,0.735,-0.183,-0.174
515,0.583,1.565,0.194,0.167,-1.031,-0.09,0.735,-0.183,-0.174
516,0.56,1.601,0.207,0.199,-1.048,-0.054,0.739,-0.214,-0.157
517,0.527,1.659,0.223,0.201,-1.053,-0.005,0.727,-0.195,-0.148
518,0.514,1.647,0.198,0.203,-1.027,0.006,0.717,-0.205,-0.127
519,0.512,1.612,0.189,0.216,-0.991,0.009,0.72,-0.201,-0.138
520,0.496,1.617,0.212,0.216,-0.97,0.017,0.714,-0.184,-0.123
521,0.465,1.569,0.231,0.279,-0.98,0.012,0.715,-0.201,-0.127
522,0.415,1.548,0.205,0.274,-0.991,0.006,0.715,-0.201,-0.127
523,0.384,1.485,0.16,0.199,-0.998,-0.026,0.717,-0.186,-0.114
524,0.378,1.421,0.168,0.253,-1.007,-0.084,0.688,-0.198,-0.106
525,0.374,1.394,0.184,0.253,-1.007,-0.084,0.697,-0.201,-0.064
526,0.362,1.418,0.178,0.261,-0.999,-0.119,0.697,-0.201,-0.064
527,0.357,1.424,0.158,0.244,-1.002,-0.113,0.699,-0.225,-0.079
528,0.359,1.43,0.175,0.218,-0.993,-0.082,0.66,-0.208,-0.066
529,0.359,1.43,0.175,0.187,-0.971,-0.059,0.66,-0.208,-0.066
530,0.37,1.376,0.176,0.259,-0.977,-0.053,0.661,-0.198,-0.057
531,0.366,1.321,0.158,0.26,-0.993,-0.078,0.667,-0.201,-0.045
532,0.347,1.302,0.134,0.206,-0.999,-0.112,0.651,-0.204,-0.054
533,0.328,1.296,0.105,0.194,-1.004,-0.113,0.645,-0.198,-0.061
534,0.302,1.289,0.077,0.192,-0.995,-0.093,0.643,-0.19,-0.04
535,0.262,1.27,0.049,0.18,-0.979,-0.085,0.652,-0.193,-0.04
536,0.226,1.241,0.023,0.162,-0.971,-0.102,0.652,-0.193,-0.04
537,0.201,1.207,0.002,0.152,-0.975,-0.113,0.664,-0.193,-0.048
538,0.179,1.181,-0.019,0.144,-0.976,-0.106,0.637,-0.186,-0.03
539,0.132,1.076,-0.049,0.119,-0.978,-0.05,0.606,-0.189,-0.013
540,0.116,1.014,-0.058,0.124,-0.977,-0.065,0.628,-0.21,-0.024
541,0.105,0.967,-0.07,0.118,-0.967,-0.09,0.609,-0.187,-0.027
542,0.113,0.924,-0.077,0.122,-0.965,-0.118,0.609,-0.187,-0.027
543,0.119,0.895,-0.079,0.128,-0.968,-0.13,0.624,-0.204,-0.022
544,0.117,0.881,-0.088,0.128,-0.968,-0.13,0.606,-0.171,-0.025
545,0.095,0.807,-0.095,0.124,-0.997,-0.06,0.582,-0.19,-0.013
546,0.079,0.746,-0.091,0.146,-1.019,-0.029,0.595,-0.187,-0.018
547,0.079,0.746,-0.091,0.145,-1.011,-0.029,0.603,-0.189,-0.009
548,0.07,0.7,-0.086,0.165,-1.005,-0.04,0.603,-0.189,-0.009
549,0.07,0.676,-0.086,0.187,-1.004,-0.045,0.6,-0.192,-0.013
550,0.069,0.646,-0.082,0.192,-0.994,-0.044,0.606,-0.184,-0.016
551,0.071,0.632,-0.084,0.17,-0.974,-0.046,0.6,-0.181,0.0
552,0.075,0.628,-0.097,0.172,-0.984,-0.029,0.571,-0.186,0.0
553,0.072,0.599,-0.105,0.168,-0.975,-0.019,0.571,-0.186,0.0
554,0.07,0.54,-0.105,0.14,-0.947,-0.023,0.598,-0.204,-0.01
555,0.072,0.453,-0.108,0.133,-0.954,0.006,0.603,-0.187,-0.003
556,0.067,0.378,-0.114,0.114,-0.971,0.028,0.589,-0.187,0.006
557,0.051,0.312,-0.125,0.097,-0.985,0.038,0.582,-0.174,-0.018
558,0.03,0.247,-0.143,0.12,-0.996,0.054,0.568,-0.192,0.0
559,0.005,0.202,-0.165,0.132,-1.0,0.049,0.568,-0.192,0.0
560,-0.017,0.158,-0.184,0.13,-0.991,0.031,0.583,-0.195,-0.015
561,-0.037,0.126,-0.196,0.153,-0.987,0.025,0.594,-0.184,-0.01
562,-0.051,0.099,-0.199,0.153,-0.987,0.025,0.577,-0.192,-0.003
563,-0.052,0.08,-0.2,0.18,-0.984,0.014,0.576,-0.18,-0.015
564,-0.045,0.084,-0.205,0.197,-0.969,-0.005,0.579,-0.178,-0.012
565,-0.035,0.109,-0.212,0.205,-0.959,-0.018,0.579,-0.178,-0.012
566,-0.025,0.156,-0.217,0.223,-0.964,-0.029,0.58,-0.204,0.007
567,-0.025,0.156,-0.217,0.236,-0.967,-0.027,0.58,-0.204,0.007
568,-0.016,0.207,-0.217,0.238,-0.972,-0.014,0.582,-0.184,-0.012
569,-0.005,0.241,-0.215,0.229,-0.969,-0.013,0.586,-0.178,-0.001
570,0.01,0.271,-0.216,0.22,-0.956,-0.02,0.574,-0.177,-0.018
571,0.02,0.294,-0.214,0.212,-0.954,-0.011,0.574,-0.177,-0.018
572,0.037,0.303,-0.209,0.192,-0.96,-0.011,0.591,-0.184,0.004
573,0.058,0.319,-0.214,0.154,-0.964,-0.01,0.58,-0.175,-0.022
574,0.072,0.368,-0.229,0.139,-0.976,0.009,0.573,-0.168,0.004
575,0.079,0.422,-0.238,0.156,-0.991,0.045,0.582,-0.186,0.003
576,0.072,0.459,-0.249,0.176,-0.987,0.071,0.588,-0.187,0.013
577,0.053,0.481,-0.257,0.174,-0.963,0.062,0.588,-0.187,0.013
578,0.03,0.478,-0.266,0.173,-0.942,0.03,0.588,-0.189,-0.022
579,0.018,0.507,-0.28,0.182,-0.938,0.004,0.573,-0.178,-0.003
580,0.009,0.541,-0.284,0.176,-0.941,0.011,0.573,-0.168,0.018
581,0.001,0.572,-0.283,0.166,-0.951,0.027,0.574,-0.172,-0.006
582,-0.015,0.604,-0.284,0.166,-0.951,0.027,0.583,-0.181,0.0
583,-0.036,0.601,-0.276,0.157,-0.959,0.048,0.586,-0.202,-0.001
584,-0.06,0.581,-0.269,0.15,-0.954,0.069,0.586,-0.202,-0.001
585,-0.088,0.592,-0.27,0.152,-0.947,0.071,0.568,-0.184,-0.01
586,-0.133,0.612,-0.255,0.153,-0.93,0.059,0.574,-0.181,0.001
587,-0.133,0.612,-0.255,0.169,-0.929,0.056,0.564,-0.175,0.013
588,-0.177,0.639,-0.24,0.194,-0.946,0.066,0.574,-0.183,-0.003
589,-0.22,0.688,-0.232,0.208,-0.935,0.061,0.582,-0.175,0.012
590,-0.252,0.74,-0.214,0.215,-0.928,0.055,0.562,-0.159,-0.009
591,-0.276,0.802,-0.2,0.212,-0.936,0.056,0.562,-0.159,-0.009
592,-0.306,0.871,-0.184,0.199,-0.94,0.046,0.558,-0.172,-0.009
593,-0.347,0.935,-0.164,0.169,-0.941,0.052,0.562,-0.201,-0.009
594,-0.406,0.989,-0.133,0.14,-0.957,0.068,0.561,-0.187,0.006
595,-0.469,1.033,-0.088,0.103,-0.98,0.076,0.571,-0.183,-0.006
596,-0.516,1.066,-0.042,0.051,-0.997,0.101,0.537,-0.184,-0.001
597,-0.557,1.092,0.007,0.011,-1.022,0.119,0.547,-0.204,-0.018
598,-0.606,1.097,0.059,-0.004,-1.037,0.109,0.547,-0.204,-0.018
599,-0.644,1.083,0.112,-0.012,-1.049,0.11,0.544,-0.198,-0.027
600,-0.683,1.049,0.163,-0.031,-1.067,0.119,0.544,-0.192,-0.013
601,-0.721,0.96,0.219,-0.031,-1.067,0.119,0.538,-0.204,-0.045
602,-0.76,0.868,0.258,-0.054,-1.067,0.114,0.516,-0.186,-0.015
603,-0.783,0.8,0.308,-0.056,-1.083,0.114,0.528,-0.202,-0.024
604,-0.78,0.693,0.355,-0.062,-1.093,0.133,0.496,-0.21,-0.048
605,-0.78,0.693,0.355,-0.074,-1.106,0.158,0.496,-0.21,-0.048
606,-0.785,0.613,0.411,-0.078,-1.141,0.16,0.511,-0.207,-0.036
607,-0.782,0.61,0.438,-0.076,-1.235,0.208,0.501,-0.216,-0.064
608,-0.8,0.546,0.534,-0.007,-1.3,0.181,0.493,-0.21,-0.072
609,-0.791,0.613,0.595,0.043,-1.27,0.078,0.507,-0.234,-0.081
610,-0.791,0.707,0.627,0.049,-1.235,0.084,0.493,-0.223,-0.096
611,-0.8,0.737,0.665,0.097,-1.221,0.147,0.469,-0.223,-0.081
612,-0.807,0.785,0.774,0.196,-1.231,0.146,0.469,-0.223,-0.081
613,-0.729,0.857,0.936,0.266,-1.217,0.112,0.484,-0.232,-0.085
614,-0.604,0.932,1.111,0.234,-1.143,0.139,0.463,-0.222,-0.082
615,-0.49,0.923,1.183,0.119,-1.068,0.155,0.435,-0.22,-0.099
616,-0.416,0.989,1.178,0.017,-1.043,0.127,0.435,-0.22,-0.099
617,-0.389,1.117,1.139,-0.022,-1.034,0.137,0.415,-0.225,-0.108
618,-0.404,1.211,1.049,-0.075,-1.017,0.169,0.406,-0.217,-0.126
619,-0.452,1.27,0.934,-0.089,-0.999,0.165,0.406,-0.217,-0.126
620,-0.517,1.318,0.806,-0.077,-0.958,0.185,0.421,-0.229,-0.106
621,-0.509,1.342,0.711,-0.027,-0.93,0.256,0.399,-0.211,-0.123
622,-0.462,1.389,0.677,-0.027,-0.93,0.256,0.387,-0.225,-0.121
623,-0.424,1.284,0.58,0.022,-0.92,0.324,0.369,-0.216,-0.148
624,-0.397,1.147,0.539,-0.004,-0.891,0.336,0.379,-0.223,-0.133
625,-0.397,1.147,0.539,-0.018,-0.888,0.351,0.379,-0.223,-0.133
626,-0.382,1.034,0.485,-0.015,-0.881,0.353,0.382,-0.208,-0.148
627,-0.349,0.906,0.441,-0.042,-0.851,0.322,0.366,-0.21,-0.175
628,-0.348,0.812,0.298,-0.108,-0.798,0.32,0.37,-0.217,-0.159
629,-0.323,0.742,0.189,-0.103,-0.798,0.335,0.354,-0.201,-0.169
630,-0.283,0.678,0.099,-0.104,-0.751,0.306,0.373,-0.213,-0.178
631,-0.22,0.615,0.025,-0.14,-0.669,0.264,0.358,-0.207,-0.187
632,-0.149,0.564,-0.029,-0.139,-0.653,0.27,0.358,-0.207,-0.187
633,-0.07,0.502,-0.077,-0.122,-0.648,0.284,0.373,-0.21,-0.189
634,0.001,0.449,-0.063,-0.108,-0.615,0.276,0.366,-0.208,-0.193
635,0.092,0.409,-0.114,-0.08,-0.611,0.297,0.345,-0.214,-0.187
636,0.21,0.392,-0.146,-0.03,-0.647,0.336,0.354,-0.237,-0.177
637,0.346,0.352,-0.127,-0.004,-0.617,0.344,0.351,-0.213,-0.178
638,0.489,0.306,-0.136,0.04,-0.617,0.366,0.379,-0.231,-0.177
639,0.6,0.263,-0.122,0.099,-0.663,0.401,0.379,-0.231,-0.177
640,0.676,0.232,-0.081,0.14,-0.696,0.427,0.369,-0.234,-0.195
641,0.715,0.184,-0.018,0.14,-0.696,0.427,0.366,-0.225,-0.175
642,0.716,0.13,0.053,0.168,-0.725,0.464,0.354,-0.214,-0.186
643,0.675,-0.039,0.193,0.184,-0.781,0.541,0.357,-0.195,-0.156
644,0.675,-0.039,0.193,0.169,-0.785,0.575,0.343,-0.22,-0.153
645,0.664,-0.116,0.228,0.144,-0.792,0.619,0.343,-0.22,-0.153
646,0.594,-0.187,0.255,0.139,-0.829,0.658,0.354,-0.216,-0.156
647,0.49,-0.212,0.25,0.132,-0.869,0.673,0.358,-0.205,-0.145
648,0.364,-0.196,0.233,0.122,-0.915,0.654,0.358,-0.198,-0.148
649,0.287,-0.141,0.197,0.136,-0.973,0.596,0.348,-0.184,-0.145
650,0.206,0.027,0.152,0.178,-1.028,0.396,0.334,-0.217,-0.139
651,0.189,0.168,0.145,0.142,-0.981,0.377,0.334,-0.217,-0.139
652,0.179,0.254,0.149,0.101,-0.873,0.429,0.343,-0.198,-0.136
653,0.152,0.29,0.143,0.055,-0.744,0.519,0.352,-0.193,-0.118
654,0.139,0.318,0.119,0.013,-0.616,0.529,0.327,-0.201,-0.171
655,0.183,0.308,0.095,-0.024,-0.553,0.475,0.34,-0.19,-0.154
656,0.238,0.154,0.114,-0.065,-0.61,0.404,0.34,-0.19,-0.154
657,0.282,-0.13,0.163,-0.062,-0.815,0.328,0.346,-0.204,-0.142
658,0.281,-0.389,0.178,-0.024,-1.182,0.259,0.346,-0.204,-0.142
659,0.24,-0.547,0.141,-0.024,-1.182,0.259,0.351,-0.183,-0.138
660,0.067,-0.462,0.111,0.063,-1.687,0.192,0.339,-0.193,-0.135
661,-0.14,-0.229,0.135,0.268,-1.981,0.159,0.348,-0.169,-0.132
662,-0.14,-0.229,0.135,0.465,-1.998,0.191,0.348,-0.169,-0.132
663,-0.055,-0.309,0.287,0.478,-1.694,0.251,0.343,-0.183,-0.124
664,-0.055,-0.309,0.287,0.266,-1.071,0.184,0.357,-0.192,-0.139
665,0.198,-0.698,0.262,-0.021,-0.592,0.0,0.334,-0.171,-0.132
666,0.338,-0.885,0.141,-0.16,-0.414,-0.081,0.342,-0.178,-0.135
667,0.27,-0.732,0.002,-0.126,-0.425,-0.001,0.333,-0.183,-0.123
668,0.125,-0.492,-0.102,0.0,-0.495,0.089,0.334,-0.196,-0.121
669,0.086,-0.436,-0.162,0.176,-0.606,0.058,0.334,-0.196,-0.121
670,0.201,-0.508,-0.167,0.362,-0.782,-0.073,0.346,-0.198,-0.126
671,0.336,-0.562,-0.138,0.476,-0.968,-0.183,0.325,-0.171,-0.109
672,0.434,-0.5,-0.108,0.48,-1.085,-0.212,0.325,-0.171,-0.109
673,0.452,-0.344,-0.081,0.449,-1.116,-0.164,0.357,-0.177,-0.102
674,0.448,-0.187,-0.042,0.402,-1.055,-0.096,0.349,-0.171,-0.093
675,0.42,-0.073,-0.007,0.361,-1.01,-0.03,0.358,-0.168,-0.112
676,0.401,-0.053,0.046,0.321,-0.993,0.04,0.358,-0.168,-0.112
677,0.424,-0.093,0.1,0.228,-0.929,0.091,0.342,-0.189,-0.093
678,0.421,-0.138,0.119,0.228,-0.929,0.091,0.36,-0.159,-0.108
679,0.416,-0.278,0.144,0.146,-0.887,0.167,0.342,-0.181,-0.093
680,0.379,-0.457,0.13,0.049,-0.882,0.247,0.342,-0.178,-0.087
681,0.34,-0.643,0.077,-0.049,-0.875,0.271,0.351,-0.174,-0.093
682,0.34,-0.643,0.077,-0.048,-0.879,0.233,0.355,-0.181,-0.097
683,0.336,-0.78,0.051,0.044,-0.918,0.165,0.355,-0.181,-0.097
684,0.322,-0.842,0.027,0.164,-0.938,0.074,0.331,-0.187,-0.09
685,0.302,-0.795,-0.007,0.265,-0.941,-0.013,0.354,-0.162,-0.06
686,0.284,-0.679,-0.008,0.329,-0.942,-0.057,0.373,-0.166,-0.06
687,0.261,-0.505,-0.033,0.371,-0.93,-0.069,0.357,-0.175,-0.064
688,0.304,-0.41,0.016,0.384,-0.912,-0.08,0.372,-0.166,-0.072
689,0.331,-0.337,0.052,0.376,-0.891,-0.053,0.378,-0.171,-0.063
690,0.325,-0.239,0.042,0.362,-0.889,-0.022,0.378,-0.171,-0.063
691,0.279,-0.104,-0.023,0.314,-0.883,-0.03,0.343,-0.174,-0.064
692,0.33,-0.085,0.016,0.28,-0.885,-0.034,0.351,-0.159,-0.043
693,0.333,-0.063,0.029,0.27,-0.897,0.003,0.351,-0.159,-0.043
694,0.303,-0.061,0.011,0.257,-0.903,0.053,0.366,-0.168,-0.067
695,0.243,0.002,-0.079,0.266,-0.943,0.074,0.375,-0.166,-0.058
696,0.24,-0.06,-0.067,0.238,-0.928,0.087,0.358,-0.168,-0.03
697,0.255,-0.13,-0.044,0.215,-0.911,0.055,0.358,-0.168,-0.03
698,0.247,-0.119,-0.05,0.215,-0.946,0.021,0.352,-0.133,-0.051
699,0.24,-0.093,-0.063,0.241,-0.942,0.013,0.352,-0.16,-0.043
700,0.185,-0.027,-0.131,0.241,-0.942,0.013,0.369,-0.171,-0.037
701,0.214,-0.042,-0.091,0.271,-0.961,0.003,0.345,-0.159,-0.067
702,0.218,-0.051,-0.074,0.254,-0.957,0.016,0.354,-0.142,-0.058
703,0.218,-0.051,-0.074,0.235,-0.938,0.025,0.382,-0.148,-0.049
704,0.21,-0.052,-0.08,0.24,-0.95,0.017,0.382,-0.148,-0.049
705,0.171,-0.036,-0.116,0.234,-0.948,0.003,0.378,-0.144,-0.045
706,0.164,-0.051,-0.112,0.223,-0.945,0.015,0.342,-0.145,-0.036
707,0.163,-0.072,-0.111,0.202,-0.959,0.056,0.342,-0.145,-0.036
708,0.17,-0.084,-0.113,0.209,-0.945,0.048,0.372,-0.156,-0.039
709,0.196,-0.104,-0.106,0.217,-0.912,0.024,0.388,-0.156,-0.039
710,0.231,-0.116,-0.101,0.208,-0.905,0.012,0.352,-0.159,-0.031
711,0.268,-0.116,-0.102,0.199,-0.883,0.001,0.352,-0.159,-0.031
712,0.298,-0.13,-0.109,0.203,-0.873,0.01,0.369,-0.16,-0.028
713,0.318,-0.156,-0.117,0.214,-0.894,0.017,0.378,-0.159,-0.04
714,0.331,-0.2,-0.128,0.23,-0.922,0.019,0.358,-0.162,-0.033
715,0.341,-0.233,-0.129,0.219,-0.935,0.022,0.367,-0.162,-0.028
716,0.328,-0.252,-0.147,0.203,-0.931,0.025,0.369,-0.153,-0.037
717,0.329,-0.267,-0.15,0.231,-0.943,0.032,0.369,-0.153,-0.037
718,0.262,-0.233,-0.196,0.231,-0.943,0.032,0.388,-0.163,-0.036
719,0.274,-0.277,-0.191,0.248,-0.958,0.022,0.391,-0.151,-0.039
720,0.252,-0.271,-0.193,0.242,-0.966,0.002,0.372,-0.139,-0.015
721,0.236,-0.259,-0.211,0.248,-0.973,0.004,0.388,-0.157,-0.009
722,0.23,-0.282,-0.212,0.265,-0.981,0.021,0.39,-0.153,-0.009
723,0.23,-0.282,-0.212,0.277,-0.978,0.031,0.384,-0.148,-0.021
724,0.249,-0.336,-0.179,0.272,-0.967,0.026,0.384,-0.148,-0.021
725,0.226,-0.314,-0.183,0.285,-0.978,0.006,0.4,-0.159,-0.007
726,0.219,-0.268,-0.169,0.314,-0.987,-0.009,0.384,-0.147,-0.006
727,0.209,-0.186,-0.165,0.352,-0.977,-0.019,0.394,-0.15,0.012
728,0.207,-0.125,-0.149,0.396,-0.963,-0.037,0.394,-0.133,-0.006
729,0.207,-0.066,-0.136,0.416,-0.946,-0.055,0.393,-0.15,-0.007
730,0.211,-0.035,-0.117,0.408,-0.938,-0.045,0.403,-0.144,-0.009
731,0.22,-0.029,-0.095,0.364,-0.951,-0.008,0.403,-0.144,-0.009
732,0.221,-0.031,-0.088,0.318,-0.976,0.031,0.411,-0.139,0.003
733,0.198,-0.055,-0.095,0.294,-1.005,0.066,0.408,-0.153,-0.007
734,0.167,-0.091,-0.111,0.276,-1.023,0.09,0.402,-0.129,0.013
735,0.123,-0.119,-0.139,0.259,-1.03,0.094,0.405,-0.15,-0.004
736,0.081,-0.158,-0.162,0.242,-1.017,0.082,0.417,-0.148,-0.001
737,0.058,-0.184,-0.195,0.247,-1.002,0.051,0.405,-0.132,-0.004
738,0.034,-0.198,-0.217,0.247,-1.002,0.051,0.405,-0.132,-0.004
739,-0.006,-0.186,-0.226,0.274,-1.015,0.012,0.403,-0.139,0.006
740,-0.042,-0.17,-0.208,0.302,-1.048,-0.01,0.403,-0.135,0.0
741,-0.042,-0.17,-0.208,0.331,-1.09,-0.018,0.396,-0.135,0.0
742,-0.088,-0.133,-0.176,0.372,-1.138,-0.022,0.396,-0.135,0.0
743,-0.138,-0.072,-0.126,0.411,-1.173,-0.025,0.418,-0.16,-0.007
744,-0.213,0.025,-0.08,0.426,-1.19,-0.037,0.396,-0.145,-0.012
745,-0.296,0.144,-0.049,0.425,-1.218,-0.046,0.396,-0.145,-0.012
746,-0.381,0.252,-0.018,0.4,-1.252,-0.052,0.396,-0.136,-0.007
747,-0.466,0.333,0.016,0.346,-1.274,-0.063,0.417,-0.147,0.016
748,-0.545,0.398,0.063,0.262,-1.267,-0.056,0.388,-0.169,-0.018
749,-0.623,0.44,0.105,0.145,-1.243,-0.019,0.403,-0.151,-0.024
750,-0.726,0.5,0.116,0.044,-1.221,0.009,0.412,-0.13,-0.027
751,-0.837,0.548,0.105,-0.005,-1.157,-0.008,0.393,-0.156,-0.04
752,-0.902,0.583,0.081,-0.021,-1.045,-0.014,0.393,-0.156,-0.04
753,-1.012,0.567,0.066,-0.011,-0.99,0.036,0.406,-0.162,-0.045
754,-1.106,0.562,0.068,-0.002,-0.935,0.022,0.393,-0.169,-0.052
755,-1.131,0.559,0.082,-0.005,-0.896,0.0,0.378,-0.175,-0.051
756,-1.171,0.503,0.107,-0.004,-0.942,0.064,0.378,-0.175,-0.051
757,-1.206,0.368,0.137,-0.004,-0.942,0.064,0.376,-0.172,-0.073
758,-1.211,0.222,0.163,-0.002,-0.983,0.098,0.378,-0.174,-0.075
759,-1.208,0.09,0.176,-0.007,-1.025,0.091,0.378,-0.174,-0.075
760,-1.205,-0.006,0.203,-0.004,-1.081,0.073,0.375,-0.177,-0.09
761,-1.166,-0.095,0.228,0.011,-1.127,0.043,0.366,-0.186,-0.087
762,-1.166,-0.095,0.228,0.018,-1.139,-0.005,0.366,-0.205,-0.097
763,-1.064,-0.177,0.242,0.029,-1.124,-0.039,0.372,-0.174,-0.096
764,-1.088,-0.058,0.221,0.019,-1.09,-0.057,0.393,-0.186,-0.118
765,-1.045,0.107,0.171,0.043,-1.045,-0.093,0.375,-0.189,-0.12
766,-0.983,0.283,0.133,0.067,-0.973,-0.075,0.375,-0.189,-0.12
767,-0.907,0.428,0.088,0.086,-0.957,0.006,0.382,-0.186,-0.133
768,-0.886,0.532,0.084,0.154,-1.013,0.079,0.37,-0.189,-0.138
769,-0.885,0.676,0.098,0.202,-1.015,0.166,0.345,-0.198,-0.139
770,-0.833,0.665,0.133,0.208,-0.986,0.197,0.357,-0.205,-0.154
771,-0.777,0.616,0.182,0.165,-0.947,0.226,0.366,-0.192,-0.172
772,-0.73,0.529,0.219,0.102,-0.91,0.249,0.366,-0.192,-0.172
773,-0.663,0.45,0.24,0.035,-0.888,0.244,0.361,-0.187,-0.168
774,-0.569,0.382,0.251,-0.012,-0.886,0.23,0.363,-0.216,-0.184
775,-0.409,0.436,0.275,-0.037,-0.885,0.196,0.34,-0.199,-0.184
776,-0.374,0.534,0.281,-0.032,-0.888,0.171,0.357,-0.187,-0.198
777,-0.342,0.642,0.28,-0.013,-0.896,0.177,0.351,-0.199,-0.192
778,-0.317,0.672,0.249,-0.028,-0.892,0.197,0.351,-0.199,-0.192
779,-0.291,0.658,0.221,-0.035,-0.88,0.228,0.345,-0.187,-0.199
780,-0.291,0.658,0.221,-0.026,-0.863,0.252,0.342,-0.19,-0.202
781,-0.246,0.604,0.195,-0.033,-0.834,0.266,0.343,-0.198,-0.193
782,-0.204,0.525,0.166,-0.043,-0.799,0.273,0.331,-0.184,-0.193
783,-0.174,0.403,0.111,-0.048,-0.762,0.275,0.33,-0.178,-0.208
784,-0.102,0.315,0.059,-0.031,-0.741,0.263,0.33,-0.178,-0.208
785,-0.043,0.25,0.046,0.037,-0.77,0.259,0.342,-0.166,-0.241
786,-0.011,0.207,0.062,0.022,-0.773,0.3,0.34,-0.172,-0.235
787,0.042,0.181,0.036,-0.002,-0.75,0.322,0.349,-0.193,-0.222
788,0.1,0.163,0.023,0.066,-0.771,0.327,0.324,-0.195,-0.225
789,0.144,0.172,0.016,0.095,-0.777,0.35,0.339,-0.186,-0.237
790,0.2,0.191,0.002,0.1,-0.742,0.358,0.339,-0.186,-0.237
791,0.283,0.191,-0.018,0.095,-0.704,0.363,0.325,-0.19,-0.217
792,0.392,0.184,-0.039,0.086,-0.683,0.359,0.345,-0.195,-0.228
793,0.502,0.18,-0.06,0.089,-0.696,0.356,0.352,-0.189,-0.225
794,0.592,0.182,-0.063,0.103,-0.737,0.363,0.342,-0.184,-0.225
795,0.648,0.179,-0.049,0.103,-0.737,0.363,0.34,-0.193,-0.231
796,0.676,0.169,-0.015,0.12,-0.796,0.394,0.34,-0.193,-0.231
797,0.689,0.144,0.034,0.135,-0.853,0.445,0.324,-0.199,-0.201
798,0.688,0.1,0.086,0.156,-0.889,0.49,0.34,-0.175,-0.208
799,0.671,0.042,0.127,0.163,-0.915,0.529,0.34,-0.178,-0.223
800,0.671,0.042,0.127,0.147,-0.933,0.549,0.348,-0.174,-0.223
801,0.637,-0.041,0.15,0.146,-0.94,0.525,0.336,-0.184,-0.18
802,0.572,-0.103,0.161,0.165,-0.943,0.49,0.336,-0.184,-0.18
803,0.476,-0.114,0.165,0.185,-0.941,0.466,0.337,-0.189,-0.19
804,0.366,-0.13,0.161,0.189,-0.919,0.45,0.319,-0.169,-0.204
805,0.294,-0.141,0.139,0.166,-0.887,0.427,0.334,-0.166,-0.186
806,0.264,-0.126,0.095,0.126,-0.873,0.394,0.34,-0.174,-0.19
807,0.241,-0.086,0.044,0.098,-0.881,0.365,0.312,-0.171,-0.189
808,0.223,-0.008,-0.002,0.094,-0.897,0.337,0.312,-0.171,-0.189
809,0.197,0.09,-0.029,0.114,-0.914,0.316,0.337,-0.186,-0.181
810,0.174,0.204,-0.03,0.133,-0.923,0.313,0.327,-0.187,-0.16
811,0.17,0.3,-0.011,0.129,-0.91,0.322,0.327,-0.187,-0.16
812,0.198,0.342,0.021,0.128,-0.881,0.328,0.306,-0.178,-0.186
813,0.257,0.294,0.067,0.113,-0.854,0.329,0.336,-0.19,-0.187
814,0.329,0.145,0.124,0.113,-0.858,0.329,0.322,-0.177,-0.198
815,0.385,-0.048,0.175,0.086,-0.858,0.311,0.322,-0.177,-0.198
816,0.399,-0.191,0.198,0.074,-0.911,0.288,0.327,-0.18,-0.19
817,0.425,-0.268,0.193,0.075,-0.999,0.251,0.322,-0.169,-0.181
818,0.454,-0.344,0.166,0.09,-1.097,0.177,0.322,-0.169,-0.181
819,0.454,-0.344,0.166,0.115,-1.201,0.101,0.315,-0.15,-0.175
820,0.415,-0.387,0.122,0.121,-1.298,0.078,0.316,-0.156,-0.162
821,0.314,-0.326,0.077,0.119,-1.336,0.115,0.325,-0.178,-0.157
822,0.212,-0.221,0.045,0.13,-1.288,0.158,0.325,-0.178,-0.157
823,0.164,-0.187,0.032,0.12,-1.16,0.144,0.318,-0.154,-0.159
824,0.179,-0.219,0.011,0.07,-1.004,0.083,0.319,-0.168,-0.151
825,0.186,-0.223,-0.035,-0.002,-0.893,0.054,0.324,-0.16,-0.151
826,0.132,-0.149,-0.106,-0.051,-0.838,0.093,0.328,-0.163,-0.16
827,0.059,-0.069,-0.163,-0.025,-0.825,0.137,0.328,-0.162,-0.147
828,0.04,-0.065,-0.165,0.061,-0.837,0.132,0.328,-0.157,-0.162
829,0.079,-0.13,-0.118,0.137,-0.865,0.101,0.328,-0.157,-0.162
830,0.156,-0.217,-0.053,0.181,-0.887,0.068,0.337,-0.171,-0.16
831,0.23,-0.274,0.007,0.222,-0.912,0.045,0.333,-0.169,-0.141
832,0.28,-0.31,0.07,0.26,-0.958,0.031,0.333,-0.169,-0.141
833,0.289,-0.31,0.118,0.277,-1.006,0.03,0.343,-0.166,-0.148
834,0.256,-0.291,0.142,0.277,-1.006,0.03,0.33,-0.175,-0.15
835,0.224,-0.242,0.144,0.26,-1.021,0.052,0.322,-0.145,-0.145
836,0.214,-0.114,0.123,0.23,-1.02,0.085,0.322,-0.145,-0.145
837,0.201,-0.15,0.113,0.227,-1.012,0.091,0.33,-0.154,-0.118
838,0.201,-0.15,0.113,0.202,-0.992,0.135,0.321,-0.16,-0.126
839,0.203,-0.174,0.109,0.161,-0.973,0.163,0.333,-0.15,-0.144
840,0.189,-0.172,0.093,0.162,-0.957,0.135,0.328,-0.169,-0.156
841,0.164,-0.185,0.079,0.174,-0.935,0.134,0.337,-0.168,-0.141
842,0.172,-0.179,0.068,0.194,-0.92,0.107,0.318,-0.145,-0.135
843,0.182,-0.147,0.064,0.227,-0.93,0.062,0.318,-0.145,-0.135
844,0.192,-0.112,0.066,0.249,-0.952,0.051,0.319,-0.15,-0.141
845,0.191,-0.098,0.076,0.252,-0.969,0.073,0.331,-0.157,-0.133
846,0.196,-0.1,0.083,0.25,-0.978,0.093,0.331,-0.157,-0.133
847,0.208,-0.107,0.087,0.242,-0.985,0.101,0.328,-0.16,-0.142
848,0.215,-0.13,0.094,0.219,-0.98,0.113,0.337,-0.15,-0.133
849,0.214,-0.175,0.089,0.208,-0.964,0.129,0.339,-0.16,-0.126
850,0.203,-0.221,0.073,0.207,-0.946,0.123,0.339,-0.16,-0.126
851,0.191,-0.256,0.056,0.202,-0.935,0.101,0.331,-0.129,-0.129
852,0.18,-0.261,0.035,0.207,-0.938,0.077,0.336,-0.141,-0.112
853,0.175,-0.245,0.02,0.215,-0.941,0.059,0.315,-0.138,-0.121
854,0.165,-0.213,0.002,0.215,-0.941,0.059,0.328,-0.145,-0.114
855,0.156,-0.184,-0.006,0.227,-0.951,0.052,0.3,-0.142,-0.127
856,0.154,-0.158,-0.011,0.239,-0.953,0.044,0.3,-0.142,-0.127
857,0.161,-0.137,-0.011,0.246,-0.946,0.038,0.345,-0.145,-0.118
858,0.166,-0.112,-0.011,0.242,-0.946,0.035,0.333,-0.147,-0.129
859,0.166,-0.112,-0.011,0.24,-0.946,0.029,0.318,-0.153,-0.091
860,0.17,-0.081,-0.013,0.244,-0.943,0.033,0.342,-0.148,-0.103
861,0.171,-0.06,-0.015,0.249,-0.939,0.042,0.343,-0.153,-0.108
862,0.17,-0.049,-0.014,0.251,-0.937,0.049,0.334,-0.145,-0.108
863,0.169,-0.037,-0.017,0.248,-0.943,0.058,0.334,-0.145,-0.108
864,0.157,-0.03,-0.021,0.251,-0.954,0.064,0.328,-0.135,-0.102
865,0.14,-0.027,-0.024,0.251,-0.963,0.063,0.339,-0.156,-0.108
866,0.125,-0.031,-0.027,0.25,-0.97,0.061,0.331,-0.13,-0.099
867,0.118,-0.039,-0.019,0.247,-0.971,0.055,0.331,-0.148,-0.091
868,0.112,-0.049,-0.021,0.234,-0.975,0.058,0.315,-0.15,-0.114
869,0.112,-0.069,-0.018,0.227,-0.977,0.062,0.328,-0.147,-0.112
870,0.112,-0.088,-0.01,0.22,-0.964,0.064,0.328,-0.147,-0.112
871,0.095,-0.109,-0.009,0.219,-0.959,0.068,0.324,-0.145,-0.114
872,0.077,-0.125,-0.025,0.232,-0.963,0.06,0.325,-0.139,-0.088
873,0.074,-0.154,-0.01,0.234,-0.959,0.044,0.34,-0.132,-0.09
874,0.07,-0.155,-0.005,0.234,-0.959,0.044,0.33,-0.139,-0.093
875,0.065,-0.139,-0.014,0.229,-0.955,0.029,0.349,-0.154,-0.097
876,0.077,-0.124,-0.016,0.191,-0.972,0.052,0.327,-0.132,-0.094
877,0.077,-0.124,-0.016,0.195,-0.969,0.05,0.327,-0.132,-0.094
878,0.077,-0.11,-0.021,0.235,-0.953,0.02,0.339,-0.157,-0.1
879,0.077,-0.09,-0.021,0.235,-0.961,0.021,0.313,-0.148,-0.088
880,0.08,-0.071,-0.028,0.226,-0.964,0.023,0.331,-0.156,-0.084
881,0.084,-0.057,-0.035,0.216,-0.963,0.03,0.34,-0.15,-0.088
882,0.079,-0.049,-0.045,0.216,-0.96,0.037,0.342,-0.154,-0.099
883,0.077,-0.045,-0.053,0.216,-0.956,0.04,0.33,-0.133,-0.105
884,0.071,-0.033,-0.062,0.216,-0.953,0.039,0.33,-0.133,-0.105
885,0.065,-0.021,-0.067,0.227,-0.955,0.042,0.337,-0.133,-0.081
886,0.061,-0.017,-0.068,0.239,-0.956,0.044,0.33,-0.151,-0.081
887,0.059,-0.026,-0.063,0.218,-0.988,0.056,0.339,-0.141,-0.108
888,0.058,-0.036,-0.048,0.252,-0.979,0.03,0.334,-0.133,-0.105
889,0.056,-0.048,-0.037,0.249,-0.98,0.035,0.345,-0.124,-0.093
890,0.06,-0.067,-0.025,0.253,-0.977,0.041,0.345,-0.124,-0.093
891,0.071,-0.088,-0.017,0.25,-0.97,0.042,0.343,-0.139,-0.091
892,0.075,-0.097,-0.014,0.243,-0.964,0.039,0.331,-0.141,-0.093
893,0.066,-0.091,-0.021,0.19,-0.977,0.067,0.333,-0.144,-0.082
894,0.07,-0.092,-0.023,0.19,-0.977,0.067,0.333,-0.144,-0.082
895,0.073,-0.081,-0.025,0.188,-0.973,0.06,0.345,-0.135,-0.096
896,0.071,-0.07,-0.035,0.234,-0.95,0.02,0.339,-0.145,-0.096
897,0.071,-0.07,-0.035,0.233,-0.947,0.023,0.339,-0.145,-0.096
898,0.065,-0.068,-0.044,0.235,-0.947,0.027,0.339,-0.136,-0.093
899,0.06,-0.065,-0.052,0.23,-0.95,0.029,0.336,-0.138,-0.108
900,0.055,-0.055,-0.06,0.226,-0.953,0.036,0.342,-0.132,-0.085
901,0.05,-0.042,-0.066,0.228,-0.957,0.045,0.324,-0.141,-0.094
902,0.042,-0.041,-0.067,0.232,-0.959,0.05,0.348,-0.147,-0.09
903,0.04,-0.048,-0.068,0.236,-0.955,0.043,0.339,-0.141,-0.096
904,0.037,-0.053,-0.067,0.236,-0.951,0.033,0.339,-0.141,-0.096
905,0.027,-0.051,-0.072,0.233,-0.934,0.02,0.34,-0.136,-0.09
906,0.036,-0.052,-0.067,0.239,-0.943,0.008,0.34,-0.142,-0.091
907,0.042,-0.037,-0.065,0.244,-0.969,0.002,0.34,-0.133,-0.078
908,0.038,-0.013,-0.068,0.251,-0.973,-0.007,0.34,-0.133,-0.078
909,0.042,0.016,-0.065,0.253,-0.981,-0.008,0.342,-0.138,-0.094
910,0.046,0.048,-0.064,0.241,-0.987,-0.003,0.358,-0.15,-0.094
911,0.019,0.087,-0.079,0.238,-0.972,-0.013,0.358,-0.15,-0.094
912,0.038,0.089,-0.067,0.238,-0.972,-0.013,0.331,-0.132,-0.081
913,0.046,0.091,-0.062,0.218,-0.975,-0.007,0.357,-0.141,-0.075
914,0.042,0.1,-0.071,0.167,-0.991,0.015,0.348,-0.133,-0.078
915,0.023,0.109,-0.084,0.155,-0.981,0.026,0.331,-0.147,-0.084
916,0.023,0.109,-0.084,0.153,-0.956,0.022,0.334,-0.136,-0.088
917,0.035,0.099,-0.079,0.155,-0.949,0.012,0.334,-0.136,-0.088
918,0.041,0.094,-0.076,0.16,-0.958,0.012,0.352,-0.144,-0.081
919,0.044,0.086,-0.072,0.162,-0.958,0.016,0.352,-0.129,-0.084
920,0.049,0.078,-0.069,0.161,-0.956,0.014,0.349,-0.144,-0.081
921,0.053,0.061,-0.065,0.157,-0.955,0.015,0.336,-0.124,-0.076
922,0.051,0.04,-0.063,0.153,-0.955,0.015,0.357,-0.139,-0.081
923,0.05,0.015,-0.058,0.149,-0.957,0.009,0.357,-0.139,-0.081
924,0.042,0.002,-0.058,0.151,-0.967,0.007,0.352,-0.127,-0.105
925,0.036,-0.009,-0.056,0.156,-0.978,0.012,0.364,-0.138,-0.09
926,0.036,-0.016,-0.053,0.153,-0.984,0.019,0.348,-0.15,-0.091
927,0.036,-0.027,-0.049,0.151,-0.985,0.02,0.339,-0.151,-0.075
928,0.032,-0.04,-0.044,0.149,-0.983,0.013,0.354,-0.132,-0.093
929,0.019,-0.037,-0.043,0.139,-0.96,0.0,0.354,-0.132,-0.093
930,0.027,-0.054,-0.039,0.136,-0.956,-0.006,0.352,-0.142,-0.094
931,0.026,-0.055,-0.039,0.136,-0.956,-0.006,0.336,-0.141,-0.079
932,0.016,-0.044,-0.045,0.142,-0.972,-0.003,0.355,-0.132,-0.072
933,0.007,-0.032,-0.049,0.147,-0.972,-0.001,0.342,-0.141,-0.079
934,0.001,-0.023,-0.051,0.158,-0.975,0.001,0.336,-0.144,-0.106
935,0.001,-0.023,-0.051,0.166,-0.974,0.0,0.336,-0.144,-0.106
936,-0.002,-0.018,-0.05,0.174,-0.975,-0.006,0.358,-0.132,-0.076
937,0.002,-0.008,-0.049,0.176,-0.976,-0.005,0.343,-0.141,-0.09
938,0.004,-0.002,-0.048,0.172,-0.972,0.0,0.351,-0.139,-0.094
939,0.007,-0.002,-0.046,0.17,-0.972,0.002,0.348,-0.145,-0.067
940,0.006,-0.007,-0.044,0.168,-0.973,0.001,0.349,-0.136,-0.07
941,0.009,-0.006,-0.042,0.163,-0.973,0.002,0.349,-0.136,-0.07
942,0.014,0.002,-0.041,0.156,-0.971,0.008,0.355,-0.145,-0.084
943,0.017,0.0,-0.037,0.152,-0.972,0.01,0.355,-0.138,-0.087
944,0.021,-0.001,-0.037,0.149,-0.97,0.009,0.348,-0.136,-0.096
945,0.026,-0.002,-0.035,0.144,-0.967,0.007,0.34,-0.133,-0.07
946,0.029,-0.003,-0.034,0.14,-0.969,0.004,0.339,-0.135,-0.097
947,0.033,-0.009,-0.032,0.143,-0.969,0.006,0.339,-0.135,-0.097
948,0.036,-0.018,-0.03,0.145,-0.968,0.003,0.348,-0.141,-0.082
949,0.037,-0.03,-0.026,0.143,-0.968,-0.004,0.349,-0.148,-0.064
950,0.034,-0.023,-0.026,0.138,-0.969,-0.002,0.349,-0.148,-0.064
951,0.034,-0.017,-0.028,0.138,-0.969,-0.002,0.354,-0.132,-0.079
952,0.031,-0.023,-0.029,0.134,-0.968,0.008,0.345,-0.136,-0.09
953,0.023,-0.028,-0.03,0.137,-0.965,0.015,0.36,-0.141,-0.085
954,0.023,-0.028,-0.03,0.14,-0.967,0.012,0.36,-0.141,-0.085
955,0.016,-0.03,-0.031,0.143,-0.969,0.005,0.367,-0.145,-0.1
956,0.012,-0.029,-0.03,0.146,-0.972,0.005,0.349,-0.13,-0.093
957,0.011,-0.03,-0.03,0.147,-0.977,0.008,0.349,-0.13,-0.093
958,0.009,-0.027,-0.03,0.148,-0.976,0.011,0.352,-0.147,-0.094
959,0.005,-0.03,-0.029,0.148,-0.977,0.015,0.382,-0.151,-0.093
960,0.004,-0.035,-0.026,0.149,-0.977,0.015,0.37,-0.136,-0.1
961,0.004,-0.039,-0.024,0.152,-0.976,0.015,0.37,-0.136,-0.1
962,0.002,-0.039,-0.022,0.151,-0.979,0.015,0.355,-0.142,-0.09
963,0.001,-0.035,-0.021,0.15,-0.978,0.019,0.349,-0.142,-0.09
964,0.002,-0.028,-0.021,0.152,-0.974,0.026,0.349,-0.12,-0.091
965,0.002,-0.028,-0.021,0.155,-0.968,0.026,0.366,-0.147,-0.088
966,0.0,-0.031,-0.019,0.159,-0.966,0.023,0.376,-0.145,-0.078
967,-0.001,-0.037,-0.017,0.162,-0.966,0.02,0.346,-0.141,-0.096
968,0.001,-0.042,-0.016,0.159,-0.965,0.019,0.346,-0.141,-0.096
969,0.004,-0.042,-0.015,0.156,-0.968,0.022,0.354,-0.142,-0.075
970,0.009,-0.042,-0.015,0.157,-0.971,0.018,0.36,-0.141,-0.069
971,0.009,-0.046,-0.014,0.157,-0.971,0.018,0.36,-0.141,-0.069
972,0.009,-0.044,-0.014,0.158,-0.973,0.018,0.346,-0.142,-0.075
973,0.009,-0.042,-0.016,0.158,-0.975,0.02,0.366,-0.127,-0.079
974,0.009,-0.042,-0.016,0.156,-0.977,0.018,0.349,-0.154,-0.091
975,0.005,-0.039,-0.016,0.154,-0.979,0.021,0.349,-0.154,-0.091
976,0.002,-0.041,-0.016,0.156,-0.98,0.017,0.336,-0.148,-0.082
977,-0.002,-0.039,-0.018,0.159,-0.979,0.011,0.349,-0.163,-0.057
978,-0.003,-0.032,-0.018,0.159,-0.98,0.014,0.334,-0.151,-0.073
979,-0.004,-0.029,-0.017,0.159,-0.981,0.021,0.36,-0.147,-0.078
980,-0.004,-0.031,-0.017,0.159,-0.978,0.025,0.363,-0.138,-0.09
981,-0.007,-0.035,-0.016,0.156,-0.978,0.027,0.355,-0.127,-0.103
982,-0.011,-0.037,-0.018,0.157,-0.979,0.026,0.355,-0.127,-0.103
983,-0.014,-0.036,-0.018,0.162,-0.978,0.022,0.36,-0.141,-0.091
984,-0.015,-0.032,-0.019,0.161,-0.975,0.019,0.357,-0.142,-0.058
985,-0.01,-0.03,-0.018,0.159,-0.971,0.016,0.357,-0.142,-0.058
986,-0.008,-0.026,-0.018,0.159,-0.968,0.015,0.366,-0.127,-0.075
987,-0.005,-0.025,-0.016,0.159,-0.967,0.013,0.385,-0.15,-0.073
988,-0.001,-0.023,-0.015,0.157,-0.967,0.016,0.354,-0.135,-0.085
989,0.0,-0.025,-0.015,0.157,-0.967,0.016,0.354,-0.135,-0.085
990,0.001,-0.03,-0.016,0.154,-0.966,0.024,0.361,-0.151,-0.079
991,0.001,-0.025,-0.017,0.154,-0.971,0.021,0.367,-0.138,-0.082
992,0.0,-0.023,-0.016,0.155,-0.971,0.012,0.37,-0.138,-0.087
993,0.001,-0.02,-0.016,0.157,-0.97,0.01,0.36,-0.16,-0.075
994,0.001,-0.02,-0.016,0.16,-0.971,0.014,0.358,-0.156,-0.084
995,0.002,-0.018,-0.015,0.164,-0.974,0.015,0.358,-0.156,-0.084
996,0.002,-0.021,-0.013,0.166,-0.974,0.014,0.358,-0.127,-0.064
997,0.002,-0.023,-0.012,0.162,-0.977,0.012,0.361,-0.147,-0.081
998,0.004,-0.024,-0.013,0.158,-0.977,0.013,0.358,-0.153,-0.076
999,0.004,-0.023,-0.013,0.155,-0.973,0.016,0.36,-0.15,-0.085
1000,0.002,-0.025,-0.014,0.157,-0.973,0.017,0.348,-0.151,-0.069
1001,0.0,-0.023,-0.014,0.157,-0.977,0.015,0.361,-0.141,-0.081
1002,0.001,-0.02,-0.014,0.157,-0.978,0.013,0.361,-0.141,-0.081
1003,0.001,-0.017,-0.014,0.158,-0.976,0.01,0.375,-0.145,-0.07
1004,0.003,-0.014,-0.014,0.159,-0.976,0.007,0.373,-0.139,-0.082
1005,0.002,-0.009,-0.013,0.159,-0.976,0.007,0.373,-0.139,-0.082
1006,0.002,-0.016,-0.012,0.155,-0.976,0.007,0.337,-0.141,-0.072
1007,0.0,-0.018,-0.012,0.149,-0.976,0.013,0.372,-0.132,-0.099
1008,-0.002,-0.021,-0.014,0.146,-0.973,0.02,0.351,-0.148,-0.066
1009,-0.007,-0.023,-0.014,0.146,-0.975,0.019,0.351,-0.148,-0.066
1010,-0.009,-0.024,-0.014,0.146,-0.975,0.019,0.345,-0.159,-0.094
1011,-0.009,-0.022,-0.016,0.144,-0.975,0.014,0.366,-0.136,-0.097
1012,-0.008,-0.021,-0.011,0.155,-0.971,0.012,0.352,-0.13,-0.09
1013,-0.006,-0.024,-0.009,0.158,-0.972,0.012,0.367,-0.141,-0.087
1014,-0.006,-0.024,-0.009,0.159,-0.968,0.012,0.367,-0.124,-0.091
1015,-0.007,-0.021,-0.005,0.159,-0.964,0.01,0.367,-0.124,-0.091
1016,-0.004,-0.018,-0.004,0.16,-0.967,0.01,0.358,-0.135,-0.081
1017,-0.002,-0.02,-0.004,0.159,-0.97,0.012,0.352,-0.13,-0.073
1018,-0.004,-0.02,-0.004,0.155,-0.971,0.011,0.358,-0.142,-0.069
1019,-0.007,-0.033,-0.003,0.154,-0.974,0.01,0.358,-0.16,-0.055
1020,-0.005,-0.023,-0.007,0.153,-0.975,0.011,0.342,-0.142,-0.091
1021,-0.004,-0.013,-0.009,0.153,-0.973,0.013,0.342,-0.142,-0.091
1022,-0.001,-0.008,-0.011,0.153,-0.97,0.015,0.37,-0.145,-0.067
1023,-0.001,-0.006,-0.014,0.155,-0.969,0.01,0.366,-0.144,-0.081
1024,-0.001,-0.004,-0.014,0.158,-0.969,0.006,0.358,-0.135,-0.079
1025,0.0,-0.003,-0.013,0.159,-0.968,0.01,0.333,-0.144,-0.091
1026,0.001,-0.004,-0.011,0.158,-0.969,0.014,0.346,-0.136,-0.075
1027,0.002,-0.005,-0.011,0.157,-0.97,0.012,0.346,-0.136,-0.075
1028,0.0,-0.002,-0.009,0.155,-0.97,0.009,0.351,-0.153,-0.076
1029,0.0,0.0,-0.008,0.155,-0.97,0.009,0.369,-0.141,-0.087
1030,0.002,0.002,-0.008,0.155,-0.973,0.011,0.372,-0.132,-0.082
1031,0.002,0.004,-0.007,0.155,-0.972,0.013,0.375,-0.126,-0.076
1032,0.002,0.004,-0.007,0.153,-0.971,0.014,0.37,-0.142,-0.066
1033,0.001,0.005,-0.007,0.154,-0.97,0.017,0.37,-0.142,-0.066
1034,0.0,0.001,-0.007,0.154,-0.969,0.014,0.342,-0.145,-0.09
1035,-0.002,0.001,-0.005,0.155,-0.971,0.011,0.349,-0.151,-0.072
1036,0.0,0.002,-0.004,0.153,-0.972,0.006,0.349,-0.148,-0.087
1037,0.002,0.004,-0.005,0.151,-0.971,0.005,0.367,-0.136,-0.078
1038,0.002,0.006,-0.005,0.15,-0.973,0.011,0.355,-0.151,-0.066
1039,0.002,0.007,-0.006,0.148,-0.975,0.014,0.355,-0.151,-0.066
1040,-0.003,0.0,-0.004,0.148,-0.976,0.014,0.348,-0.135,-0.076
1041,-0.006,0.0,-0.006,0.146,-0.977,0.012,0.364,-0.15,-0.081
1042,-0.007,0.0,-0.007,0.147,-0.976,0.01,0.349,-0.135,-0.07
1043,-0.007,0.0,-0.006,0.147,-0.976,0.008,0.328,-0.13,-0.094
1044,-0.005,0.0,-0.005,0.147,-0.976,0.007,0.37,-0.139,-0.079
1045,-0.004,0.0,-0.003,0.146,-0.974,0.011,0.37,-0.139,-0.079
1046,-0.004,-0.002,-0.002,0.143,-0.973,0.016,0.367,-0.156,-0.073
1047,-0.007,-0.007,-0.001,0.143,-0.974,0.021,0.342,-0.129,-0.067
1048,-0.008,-0.009,-0.002,0.142,-0.974,0.021,0.342,-0.129,-0.067
1049,-0.009,-0.009,-0.004,0.142,-0.974,0.023,0.36,-0.147,-0.078
1050,-0.009,-0.008,-0.006,0.147,-0.971,0.022,0.355,-0.153,-0.055
1051,-0.009,-0.005,-0.007,0.153,-0.969,0.021,0.367,-0.151,-0.088
1052,-0.009,-0.005,-0.007,0.158,-0.967,0.019,0.367,-0.151,-0.088
1053,-0.007,-0.002,-0.005,0.163,-0.968,0.018,0.367,-0.145,-0.073
1054,-0.004,0.0,-0.004,0.164,-0.971,0.019,0.369,-0.135,-0.064
1055,-0.002,0.007,-0.004,0.163,-0.973,0.022,0.367,-0.154,-0.088
1056,0.0,0.007,-0.003,0.163,-0.975,0.028,0.361,-0.145,-0.085
1057,-0.001,0.009,-0.004,0.159,-0.976,0.029,0.355,-0.136,-0.093
1058,-0.002,0.008,-0.006,0.157,-0.977,0.031,0.361,-0.163,-0.081
1059,-0.002,0.01,-0.007,0.155,-0.979,0.032,0.361,-0.163,-0.081
1060,-0.001,0.013,-0.007,0.155,-0.979,0.029,0.363,-0.144,-0.079
1061,0.0,0.024,-0.009,0.153,-0.975,0.027,0.352,-0.126,-0.067
1062,0.0,0.021,-0.009,0.153,-0.972,0.026,0.352,-0.126,-0.067
1063,0.0,0.014,-0.008,0.155,-0.973,0.024,0.363,-0.156,-0.061
1064,0.0,0.009,-0.007,0.154,-0.972,0.024,0.345,-0.126,-0.075
1065,0.002,0.008,-0.006,0.152,-0.969,0.025,0.345,-0.126,-0.075
1066,0.004,0.011,-0.007,0.151,-0.97,0.022,0.348,-0.147,-0.076
1067,0.007,0.013,-0.007,0.151,-0.971,0.02,0.357,-0.157,-0.081
1068,0.005,0.02,-0.009,0.151,-0.971,0.02,0.361,-0.147,-0.067
1069,0.004,0.009,-0.007,0.151,-0.971,0.023,0.363,-0.139,-0.072
1070,0.001,0.0,-0.004,0.153,-0.971,0.028,0.337,-0.139,-0.087
1071,0.001,-0.004,-0.002,0.158,-0.974,0.028,0.363,-0.159,-0.079
1072,0.001,-0.004,-0.002,0.157,-0.977,0.024,0.363,-0.159,-0.079
1073,0.002,-0.007,-0.002,0.154,-0.977,0.015,0.348,-0.15,-0.082
1074,0.003,0.0,-0.003,0.156,-0.977,0.014,0.357,-0.138,-0.07
1075,0.002,0.009,-0.004,0.157,-0.974,0.022,0.343,-0.144,-0.063
1076,0.003,0.011,-0.007,0.159,-0.971,0.027,0.343,-0.144,-0.063
1077,0.0,0.011,-0.007,0.159,-0.973,0.025,0.361,-0.147,-0.075
1078,-0.001,0.007,-0.007,0.158,-0.975,0.022,0.357,-0.156,-0.087
1079,-0.001,0.001,-0.007,0.157,-0.976,0.02,0.357,-0.156,-0.087
1080,0.0,-0.002,-0.006,0.153,-0.976,0.018,0.376,-0.15,-0.079
1081,0.002,-0.004,-0.004,0.153,-0.973,0.017,0.357,-0.154,-0.078
1082,0.002,-0.001,-0.006,0.152,-0.97,0.017,0.349,-0.147,-0.082
1083,0.0,0.0,-0.007,0.152,-0.972,0.017,0.351,-0.133,-0.091
1084,0.0,0.002,-0.007,0.153,-0.973,0.018,0.363,-0.151,-0.069
1085,-0.002,0.002,-0.007,0.153,-0.974,0.016,0.351,-0.147,-0.079
1086,-0.002,0.003,-0.007,0.151,-0.976,0.014,0.351,-0.147,-0.079
1087,-0.002,0.002,-0.007,0.151,-0.972,0.017,0.363,-0.141,-0.088
1088,-0.003,0.0,-0.007,0.151,-0.972,0.017,0.361,-0.16,-0.078
1089,-0.004,-0.002,-0.005,0.151,-0.97,0.018,0.352,-0.153,-0.085
1090,-0.003,-0.006,-0.004,0.151,-0.973,0.019,0.367,-0.142,-0.07
1091,-0.003,-0.007,-0.003,0.152,-0.976,0.019,0.367,-0.144,-0.084
1092,-0.003,-0.007,-0.003,0.152,-0.977,0.018,0.373,-0.145,-0.088
1093,-0.002,-0.004,-0.004,0.151,-0.974,0.019,0.373,-0.145,-0.088
1094,-0.002,-0.007,-0.004,0.151,-0.975,0.018,0.376,-0.145,-0.084
1095,-0.005,0.0,-0.007,0.152,-0.976,0.017,0.385,-0.148,-0.087
1096,-0.005,0.003,-0.008,0.151,-0.974,0.017,0.364,-0.153,-0.078
1097,-0.007,0.004,-0.007,0.151,-0.973,0.019,0.352,-0.145,-0.064
1098,-0.007,0.002,-0.007,0.152,-0.972,0.019,0.352,-0.145,-0.088
1099,-0.008,0.0,-0.006,0.15,-0.972,0.019,0.354,-0.147,-0.09
1100,-0.007,-0.002,-0.004,0.147,-0.973,0.023,0.354,-0.147,-0.09
1101,-0.008,-0.004,-0.003,0.147,-0.974,0.026,0.358,-0.142,-0.079
1102,-0.007,-0.004,-0.003,0.148,-0.976,0.025,0.357,-0.153,-0.072
1103,-0.004,-0.002,-0.002,0.148,-0.976,0.023,0.352,-0.145,-0.085
1104,-0.005,-0.004,-0.002,0.151,-0.973,0.025,0.357,-0.159,-0.079
1105,-0.006,-0.002,-0.003,0.155,-0.974,0.025,0.357,-0.145,-0.075
1106,-0.004,-0.004,-0.004,0.155,-0.974,0.023,0.367,-0.138,-0.079
1107,-0.006,-0.002,-0.004,0.153,-0.972,0.02,0.367,-0.138,-0.079
1108,-0.004,-0.001,-0.004,0.153,-0.972,0.02,0.364,-0.156,-0.087
1109,-0.002,0.0,-0.004,0.152,-0.971,0.02,0.372,-0.154,-0.081
1110,0.0,0.003,-0.005,0.152,-0.972,0.021,0.357,-0.13,-0.076
1111,0.0,0.0,-0.004,0.153,-0.975,0.02,0.357,-0.13,-0.076
1112,0.0,0.0,-0.004,0.155,-0.975,0.022,0.342,-0.154,-0.084
1113,-0.001,-0.002,-0.003,0.155,-0.973,0.026,0.348,-0.138,-0.088
1114,-0.001,-0.004,-0.004,0.154,-0.972,0.026,0.348,-0.138,-0.088
1115,-0.001,-0.002,-0.004,0.153,-0.971,0.023,0.367,-0.141,-0.079
1116,-0.003,-0.002,-0.004,0.152,-0.972,0.024,0.36,-0.15,-0.085
1117,0.0,0.002,-0.005,0.154,-0.973,0.024,0.346,-0.132,-0.079
1118,-0.002,0.0,-0.004,0.154,-0.972,0.023,0.357,-0.141,-0.076
1119,-0.002,-0.002,-0.004,0.155,-0.97,0.026,0.366,-0.144,-0.085
1120,-0.002,0.0,-0.004,0.154,-0.971,0.028,0.363,-0.144,-0.087
1121,-0.001,0.0,-0.004,0.157,-0.973,0.028,0.363,-0.144,-0.087
1122,-0.001,-0.004,-0.004,0.159,-0.973,0.027,0.369,-0.147,-0.081
1123,-0.001,-0.002,-0.004,0.156,-0.973,0.023,0.367,-0.151,-0.09
1124,0.0,-0.003,-0.004,0.155,-0.974,0.022,0.351,-0.142,-0.088
1125,-0.001,-0.003,-0.004,0.155,-0.973,0.023,0.351,-0.142,-0.088
1126,0.0,-0.004,-0.004,0.155,-0.973,0.023,0.351,-0.141,-0.085
1127,0.0,-0.005,-0.003,0.156,-0.97,0.024,0.36,-0.148,-0.09
1128,0.0,-0.002,-0.003,0.157,-0.97,0.023,0.36,-0.148,-0.09
1129,0.0,0.0,-0.003,0.156,-0.971,0.024,0.345,-0.138,-0.085
1130,0.0,0.002,-0.003,0.155,-0.971,0.024,0.366,-0.145,-0.093
1131,0.002,0.001,-0.002,0.155,-0.971,0.027,0.343,-0.135,-0.075
1132,0.002,0.004,-0.002,0.159,-0.971,0.025,0.361,-0.15,-0.084
1133,0.0,0.007,-0.002,0.158,-0.971,0.026,0.367,-0.144,-0.091
1134,0.0,0.008,-0.002,0.158,-0.971,0.028,0.367,-0.144,-0.091
1135,0.0,0.009,-0.002,0.16,-0.97,0.027,0.364,-0.147,-0.069
1136,0.0,0.007,-0.002,0.158,-0.971,0.023,0.346,-0.153,-0.081
1137,-0.002,0.009,-0.002,0.154,-0.976,0.026,0.361,-0.138,-0.09
1138,0.002,0.011,-0.003,0.153,-0.978,0.024,0.36,-0.136,-0.097
1139,0.0,0.01,-0.002,0.152,-0.976,0.025,0.363,-0.157,-0.084
1140,-0.002,0.009,-0.003,0.153,-0.974,0.025,0.363,-0.157,-0.084
1141,-0.004,0.009,-0.004,0.154,-0.975,0.024,0.351,-0.147,-0.097
1142,-0.003,0.007,-0.004,0.153,-0.976,0.023,0.376,-0.151,-0.073
1143,-0.003,0.008,-0.004,0.151,-0.975,0.026,0.352,-0.145,-0.061
1144,-0.002,0.007,-0.004,0.15,-0.975,0.029,0.355,-0.147,-0.079
1145,-0.003,0.002,-0.004,0.15,-0.975,0.029,0.366,-0.147,-0.078
1146,-0.005,0.001,-0.004,0.151,-0.975,0.028,0.366,-0.147,-0.078
1147,-0.004,-0.002,-0.006,0.153,-0.974,0.027,0.354,-0.148,-0.078
1148,-0.002,0.001,-0.006,0.153,-0.972,0.024,0.363,-0.153,-0.067
1149,-0.002,0.002,-0.007,0.152,-0.972,0.024,0.355,-0.127,-0.094
1150,-0.002,0.002,-0.007,0.153,-0.973,0.027,0.372,-0.157,-0.078
1151,-0.001,0.0,-0.007,0.155,-0.971,0.026,0.355,-0.16,-0.081
1152,0.0,0.001,-0.006,0.154,-0.971,0.027,0.355,-0.16,-0.081
1153,0.002,0.002,-0.006,0.155,-0.973,0.028,0.346,-0.141,-0.069
1154,0.004,-0.001,-0.007,0.155,-0.973,0.03,0.352,-0.151,-0.078
1155,0.002,-0.004,-0.007,0.154,-0.974,0.028,0.388,-0.141,-0.096
1156,0.002,-0.004,-0.006,0.155,-0.971,0.025,0.369,-0.136,-0.09
1157,0.003,-0.003,-0.006,0.158,-0.972,0.025,0.361,-0.139,-0.081
1158,0.004,-0.002,-0.005,0.159,-0.974,0.026,0.361,-0.139,-0.081
1159,0.003,0.011,-0.007,0.157,-0.97,0.026,0.346,-0.133,-0.082
1160,0.0,0.004,-0.007,0.157,-0.971,0.027,0.367,-0.156,-0.07
1161,0.0,0.002,-0.008,0.159,-0.973,0.029,0.361,-0.141,-0.081
1162,0.0,0.001,-0.006,0.158,-0.972,0.03,0.352,-0.142,-0.088
1163,0.0,0.001,-0.006,0.156,-0.973,0.026,0.36,-0.142,-0.084
1164,0.0,0.002,-0.006,0.157,-0.974,0.026,0.36,-0.142,-0.084
1165,0.001,0.002,-0.006,0.157,-0.974,0.026,0.357,-0.151,-0.094
1166,0.003,0.003,-0.005,0.155,-0.97,0.029,0.355,-0.142,-0.075
1167,0.002,0.003,-0.006,0.154,-0.969,0.029,0.355,-0.142,-0.075
1168,0.002,0.003,-0.006,0.154,-0.973,0.029,0.36,-0.15,-0.078
1169,-0.001,0.0,-0.007,0.154,-0.973,0.027,0.361,-0.136,-0.079
1170,-0.002,-0.003,-0.007,0.155,-0.97,0.025,0.361,-0.136,-0.079
1171,0.0,-0.001,-0.007,0.156,-0.969,0.028,0.37,-0.148,-0.081
1172,0.002,0.0,-0.009,0.156,-0.971,0.031,0.366,-0.156,-0.091
1173,0.001,0.0,-0.009,0.158,-0.973,0.03,0.367,-0.133,-0.078
1174,0.002,0.0,-0.008,0.16,-0.969,0.027,0.348,-0.142,-0.078
1175,0.004,0.0,-0.006,0.16,-0.969,0.028,0.363,-0.16,-0.105
1176,0.006,0.0,-0.006,0.158,-0.971,0.03,0.349,-0.147,-0.078
1177,0.007,-0.002,-0.005,0.155,-0.972,0.032,0.349,-0.147,-0.078
1178,0.004,-0.002,-0.005,0.156,-0.974,0.032,0.355,-0.162,-0.097
1179,0.003,0.0,-0.005,0.157,-0.975,0.03,0.351,-0.151,-0.079
1180,0.002,0.001,-0.005,0.158,-0.975,0.031,0.357,-0.141,-0.067
1181,0.002,0.001,-0.004,0.156,-0.974,0.032,0.373,-0.136,-0.094
1182,0.002,0.002,-0.004,0.155,-0.972,0.034,0.351,-0.138,-0.091
1183,0.002,0.004,-0.005,0.155,-0.971,0.034,0.372,-0.144,-0.079
1184,0.002,0.002,-0.004,0.155,-0.971,0.03,0.372,-0.144,-0.079
1185,0.0,0.0,-0.004,0.155,-0.971,0.03,0.352,-0.132,-0.106
1186,0.0,0.0,-0.004,0.154,-0.971,0.028,0.366,-0.172,-0.088
1187,0.002,0.0,-0.004,0.155,-0.972,0.029,0.336,-0.145,-0.069
1188,0.002,0.002,-0.004,0.156,-0.973,0.028,0.336,-0.145,-0.069
1189,0.002,0.002,-0.004,0.155,-0.97,0.027,0.352,-0.154,-0.091
1190,0.002,0.002,-0.004,0.154,-0.97,0.027,0.354,-0.148,-0.093
1191,0.003,0.001,-0.002,0.151,-0.973,0.029,0.354,-0.148,-0.093
1192,0.004,0.0,-0.003,0.15,-0.975,0.03,0.352,-0.144,-0.084
1193,0.004,0.0,-0.002,0.152,-0.974,0.031,0.354,-0.157,-0.09
1194,0.001,-0.007,-0.002,0.152,-0.972,0.031,0.339,-0.144,-0.06
1195,0.002,-0.005,-0.003,0.155,-0.971,0.03,0.358,-0.157,-0.093
1196,0.002,-0.007,-0.003,0.158,-0.971,0.031,0.352,-0.151,-0.09
1197,0.002,-0.007,-0.002,0.155,-0.972,0.031,0.355,-0.151,-0.073
1198,0.001,-0.006,-0.002,0.154,-0.972,0.031,0.355,-0.151,-0.073
1199,0.0,-0.004,-0.003,0.155,-0.973,0.03,0.36,-0.159,-0.085
