,Gyroscope X (deg/s),Gyroscope Y (deg/s),Gyroscope Z (deg/s),Accelerometer X (g),Accelerometer Y (g),Accelerometer Z (g),Magnetometer X (G),Magnetometer Y (G),Magnetometer Z (G)
0,0.002,-0.002,-0.012,-0.082,1.004,0.074,0.436,0.424,-0.414
1,0.002,-0.002,-0.012,-0.082,1.004,0.074,0.436,0.424,-0.414
2,0.002,-0.002,-0.012,-0.082,1.004,0.074,0.436,0.424,-0.414
3,0.002,-0.002,-0.012,-0.082,1.004,0.074,0.436,0.424,-0.414
4,0.007,0.0,-0.009,-0.084,1.01,0.07,0.436,0.424,-0.414
5,0.009,0.0,-0.009,-0.083,1.009,0.071,0.448,0.439,-0.424
6,0.009,-0.004,-0.011,-0.085,1.006,0.071,0.447,0.408,-0.438
7,0.007,-0.009,-0.011,-0.086,1.005,0.071,0.454,0.409,-0.423
8,0.008,-0.014,-0.011,-0.085,1.006,0.073,0.441,0.411,-0.438
9,0.009,-0.014,-0.011,-0.082,1.004,0.073,0.459,0.396,-0.415
10,0.009,-0.009,-0.011,-0.082,1.002,0.072,0.448,0.421,-0.427
11,0.003,-0.009,-0.009,-0.08,1.005,0.069,0.448,0.418,-0.423
12,0.002,-0.006,-0.011,-0.079,1.007,0.074,0.454,0.414,-0.426
13,0.002,-0.009,-0.012,-0.076,1.006,0.072,0.456,0.426,-0.432
14,0.004,-0.009,-0.011,-0.074,1.005,0.069,0.454,0.423,-0.426
15,0.004,-0.009,-0.011,-0.076,1.006,0.069,0.465,0.415,-0.432
16,0.003,-0.008,-0.011,-0.078,1.005,0.068,0.454,0.403,-0.429
17,0.004,-0.009,-0.012,-0.076,1.005,0.066,0.474,0.432,-0.421
18,0.005,-0.014,-0.014,-0.076,1.005,0.065,0.448,0.43,-0.421
19,0.006,-0.015,-0.014,-0.077,1.005,0.066,0.439,0.424,-0.427
20,0.006,-0.011,-0.015,-0.075,1.005,0.07,0.459,0.439,-0.414
21,0.007,-0.009,-0.014,-0.073,1.007,0.069,0.457,0.405,-0.399
22,0.007,-0.004,-0.014,-0.072,1.006,0.066,0.448,0.415,-0.417
23,0.007,-0.004,-0.015,-0.072,1.005,0.069,0.456,0.424,-0.417
24,0.007,-0.009,-0.014,-0.073,1.007,0.068,0.456,0.424,-0.417
25,0.007,-0.004,-0.014,-0.072,1.007,0.068,0.459,0.409,-0.417
26,0.007,-0.005,-0.016,-0.072,1.008,0.07,0.457,0.417,-0.412
27,0.006,-0.004,-0.016,-0.072,1.007,0.067,0.469,0.426,-0.42
28,0.005,0.0,-0.016,-0.072,1.002,0.066,0.451,0.412,-0.435
29,0.005,0.002,-0.016,-0.072,1.002,0.066,0.442,0.42,-0.411
30,0.005,0.003,-0.016,-0.073,1.0,0.071,0.445,0.414,-0.42
31,0.006,0.002,-0.013,-0.075,1.003,0.072,0.445,0.414,-0.42
32,0.006,0.006,-0.012,-0.077,1.006,0.068,0.448,0.421,-0.409
33,0.007,0.006,-0.013,-0.076,1.007,0.068,0.448,0.426,-0.436
34,0.007,0.006,-0.013,-0.076,1.007,0.072,0.453,0.405,-0.432
35,0.009,0.002,-0.013,-0.08,1.009,0.072,0.453,0.418,-0.426
36,0.009,0.0,-0.014,-0.079,1.007,0.071,0.442,0.423,-0.433
37,0.009,-0.002,-0.014,-0.078,1.006,0.073,0.472,0.403,-0.421
38,0.009,0.0,-0.015,-0.08,1.008,0.075,0.472,0.403,-0.421
39,0.009,-0.002,-0.014,-0.08,1.007,0.073,0.448,0.414,-0.414
40,0.008,-0.002,-0.014,-0.079,1.005,0.069,0.438,0.423,-0.427
41,0.007,-0.005,-0.014,-0.079,1.003,0.07,0.442,0.433,-0.424
42,0.007,-0.008,-0.013,-0.077,1.002,0.073,0.451,0.417,-0.418
43,0.007,-0.009,-0.013,-0.076,1.002,0.073,0.456,0.412,-0.42
44,0.005,-0.009,-0.011,-0.076,1.003,0.073,0.447,0.411,-0.426
45,0.004,-0.017,-0.012,-0.076,1.004,0.075,0.447,0.411,-0.426
46,0.004,-0.016,-0.012,-0.076,1.006,0.073,0.433,0.426,-0.426
47,0.003,-0.011,-0.011,-0.074,1.005,0.071,0.439,0.399,-0.417
48,0.002,-0.009,-0.012,-0.074,1.004,0.071,0.442,0.427,-0.418
49,0.002,-0.009,-0.014,-0.074,1.004,0.071,0.444,0.411,-0.423
50,0.004,-0.011,-0.014,-0.074,1.007,0.072,0.435,0.423,-0.42
51,0.007,-0.006,-0.014,-0.072,1.008,0.072,0.448,0.406,-0.448
52,0.007,-0.007,-0.014,-0.07,1.006,0.073,0.448,0.406,-0.448
53,0.007,-0.007,-0.014,-0.071,1.004,0.074,0.457,0.424,-0.418
54,0.007,-0.006,-0.014,-0.07,1.003,0.074,0.456,0.423,-0.438
55,0.006,-0.006,-0.014,-0.069,1.004,0.072,0.439,0.412,-0.421
56,0.005,-0.007,-0.013,-0.07,1.005,0.072,0.456,0.42,-0.439
57,0.006,-0.007,-0.014,-0.07,1.005,0.075,0.448,0.421,-0.421
58,0.005,-0.006,-0.012,-0.07,1.007,0.078,0.462,0.429,-0.42
59,0.008,-0.004,-0.013,-0.072,1.008,0.075,0.462,0.429,-0.42
60,0.006,-0.003,-0.013,-0.071,1.009,0.072,0.433,0.406,-0.417
61,0.004,-0.003,-0.012,-0.071,1.008,0.072,0.459,0.418,-0.391
62,0.004,-0.002,-0.012,-0.072,1.006,0.072,0.468,0.414,-0.426
63,0.004,-0.003,-0.011,-0.072,1.004,0.073,0.451,0.433,-0.423
64,0.005,-0.003,-0.012,-0.072,1.004,0.073,0.457,0.421,-0.417
65,0.006,-0.003,-0.014,-0.074,1.004,0.075,0.435,0.417,-0.421
66,0.005,-0.006,-0.013,-0.075,1.006,0.075,0.435,0.417,-0.421
67,0.007,-0.004,-0.014,-0.073,1.007,0.074,0.456,0.414,-0.417
68,0.006,-0.003,-0.014,-0.073,1.007,0.074,0.451,0.399,-0.424
69,0.004,-0.004,-0.014,-0.071,1.004,0.075,0.421,0.411,-0.412
70,0.002,-0.006,-0.012,-0.072,1.003,0.073,0.453,0.418,-0.438
71,0.002,-0.002,-0.012,-0.073,1.005,0.073,0.453,0.409,-0.43
72,0.002,-0.002,-0.012,-0.074,1.004,0.072,0.436,0.433,-0.438
73,0.002,0.002,-0.011,-0.072,1.004,0.072,0.436,0.433,-0.438
74,0.003,0.001,-0.011,-0.071,1.005,0.075,0.441,0.414,-0.42
75,0.003,0.002,-0.013,-0.071,1.006,0.076,0.442,0.42,-0.424
76,0.002,0.003,-0.012,-0.07,1.006,0.074,0.439,0.415,-0.429
77,0.002,0.004,-0.011,-0.069,1.007,0.072,0.457,0.408,-0.433
78,0.002,0.002,-0.012,-0.068,1.007,0.076,0.448,0.408,-0.429
79,0.002,0.001,-0.014,-0.069,1.006,0.076,0.468,0.438,-0.432
80,0.006,0.006,-0.014,-0.07,1.005,0.072,0.468,0.438,-0.432
81,0.004,0.007,-0.014,-0.071,1.005,0.074,0.447,0.417,-0.406
82,0.004,0.004,-0.014,-0.07,1.004,0.074,0.457,0.424,-0.424
83,0.002,0.004,-0.014,-0.07,1.003,0.074,0.442,0.424,-0.436
84,0.0,0.002,-0.012,-0.071,1.002,0.074,0.444,0.403,-0.399
85,-0.002,0.0,-0.012,-0.072,1.003,0.074,0.453,0.411,-0.43
86,-0.002,0.0,-0.011,-0.072,1.006,0.077,0.448,0.403,-0.43
87,0.0,0.002,-0.011,-0.073,1.009,0.079,0.448,0.403,-0.43
88,0.001,0.003,-0.011,-0.073,1.009,0.079,0.444,0.426,-0.417
89,0.002,0.004,-0.012,-0.075,1.008,0.076,0.456,0.426,-0.433
90,0.002,0.002,-0.014,-0.074,1.008,0.074,0.462,0.421,-0.442
91,0.002,0.0,-0.014,-0.071,1.008,0.077,0.433,0.429,-0.418
92,0.0,0.001,-0.014,-0.071,1.007,0.076,0.453,0.411,-0.423
93,0.0,0.001,-0.014,-0.071,1.006,0.073,0.451,0.412,-0.424
94,0.0,0.005,-0.014,-0.068,1.005,0.073,0.451,0.412,-0.424
95,-0.002,0.004,-0.014,-0.067,1.006,0.076,0.444,0.43,-0.414
96,0.0,0.004,-0.014,-0.068,1.007,0.076,0.445,0.408,-0.427
97,0.0,0.007,-0.013,-0.069,1.005,0.076,0.447,0.423,-0.432
98,0.0,0.007,-0.01,-0.071,1.001,0.076,0.448,0.421,-0.414
99,0.0,0.009,-0.01,-0.073,1.001,0.073,0.454,0.42,-0.423
100,0.0,0.009,-0.011,-0.071,1.002,0.07,0.444,0.426,-0.418
101,0.006,0.005,-0.011,-0.07,1.003,0.072,0.444,0.426,-0.418
102,0.003,0.003,-0.011,-0.07,1.005,0.074,0.433,0.433,-0.439
103,0.002,0.007,-0.011,-0.073,1.004,0.074,0.429,0.406,-0.421
104,0.003,0.007,-0.011,-0.072,1.005,0.073,0.451,0.405,-0.435
105,0.004,0.004,-0.012,-0.071,1.009,0.074,0.475,0.412,-0.445
106,0.004,0.002,-0.012,-0.073,1.011,0.077,0.441,0.426,-0.417
107,0.004,0.005,-0.011,-0.073,1.011,0.077,0.451,0.42,-0.426
108,0.002,0.006,-0.011,-0.074,1.011,0.077,0.451,0.42,-0.426
109,0.001,0.005,-0.009,-0.072,1.01,0.075,0.448,0.43,-0.424
110,0.0,0.006,-0.011,-0.072,1.009,0.076,0.444,0.424,-0.415
111,0.0,0.007,-0.011,-0.074,1.008,0.076,0.444,0.418,-0.432
112,0.0,0.007,-0.011,-0.074,1.006,0.075,0.463,0.409,-0.435
113,0.0,0.002,-0.011,-0.075,1.003,0.076,0.453,0.421,-0.433
114,0.0,0.003,-0.011,-0.073,1.003,0.074,0.442,0.424,-0.417
115,0.0,0.002,-0.011,-0.072,1.003,0.073,0.442,0.424,-0.417
116,0.0,0.0,-0.011,-0.072,1.004,0.072,0.439,0.4,-0.43
117,0.001,0.0,-0.01,-0.071,1.007,0.073,0.465,0.411,-0.399
118,0.002,-0.001,-0.009,-0.071,1.006,0.073,0.448,0.414,-0.427
119,0.002,0.001,-0.009,-0.07,1.005,0.069,0.46,0.424,-0.435
120,0.002,0.0,-0.009,-0.07,1.007,0.07,0.465,0.414,-0.433
121,0.004,-0.003,-0.011,-0.069,1.007,0.077,0.465,0.411,-0.411
122,0.004,0.004,-0.011,-0.07,1.005,0.079,0.465,0.411,-0.411
123,0.003,0.0,-0.011,-0.073,1.004,0.074,0.429,0.426,-0.409
124,0.002,0.0,-0.009,-0.074,1.005,0.07,0.447,0.429,-0.423
125,0.001,0.0,-0.008,-0.074,1.005,0.071,0.459,0.394,-0.415
126,0.0,0.002,-0.007,-0.075,1.005,0.071,0.448,0.409,-0.436
127,-0.002,0.002,-0.004,-0.075,1.005,0.071,0.445,0.415,-0.424
128,-0.002,0.0,-0.005,-0.075,1.006,0.068,0.459,0.429,-0.43
129,-0.002,-0.005,-0.009,-0.07,1.008,0.071,0.444,0.424,-0.412
130,-0.001,-0.006,-0.01,-0.071,1.008,0.072,0.442,0.415,-0.43
131,-0.001,-0.006,-0.01,-0.071,1.006,0.072,0.451,0.415,-0.423
132,-0.001,-0.007,-0.011,-0.069,1.008,0.07,0.457,0.421,-0.43
133,0.0,-0.005,-0.012,-0.068,1.009,0.071,0.441,0.433,-0.441
134,-0.001,-0.004,-0.011,-0.067,1.007,0.07,0.445,0.426,-0.444
135,-0.002,-0.003,-0.011,-0.066,1.005,0.068,0.445,0.426,-0.444
136,-0.002,-0.009,-0.011,-0.063,1.003,0.071,0.447,0.429,-0.406
137,-0.002,-0.007,-0.013,-0.061,1.005,0.072,0.435,0.411,-0.412
138,0.002,-0.007,-0.014,-0.062,1.007,0.071,0.441,0.405,-0.435
139,0.004,-0.002,-0.014,-0.06,1.01,0.074,0.45,0.405,-0.424
140,0.004,0.002,-0.012,-0.06,1.013,0.075,0.454,0.426,-0.421
141,0.004,0.009,-0.011,-0.06,1.011,0.074,0.441,0.412,-0.427
142,0.004,0.014,-0.01,-0.059,1.008,0.071,0.441,0.412,-0.427
143,0.001,0.023,-0.011,-0.061,1.006,0.068,0.46,0.435,-0.424
144,0.0,0.017,-0.011,-0.065,1.006,0.068,0.46,0.435,-0.424
145,0.0,0.013,-0.009,-0.071,1.005,0.07,0.457,0.417,-0.426
146,-0.001,0.009,-0.009,-0.071,1.005,0.07,0.441,0.424,-0.43
147,0.0,0.004,-0.009,-0.071,1.002,0.071,0.459,0.412,-0.426
148,0.0,0.005,-0.009,-0.069,1.001,0.075,0.447,0.403,-0.438
149,0.0,0.009,-0.009,-0.072,1.001,0.076,0.447,0.403,-0.438
150,0.0,0.009,-0.009,-0.073,0.999,0.072,0.444,0.424,-0.418
151,0.0,0.009,-0.009,-0.07,1.001,0.074,0.45,0.397,-0.433
152,-0.002,0.007,-0.009,-0.069,1.002,0.076,0.451,0.415,-0.43
153,-0.002,0.006,-0.01,-0.071,1.003,0.076,0.471,0.42,-0.424
154,-0.002,0.004,-0.009,-0.072,1.006,0.076,0.445,0.414,-0.433
155,-0.001,0.004,-0.009,-0.074,1.009,0.076,0.445,0.414,-0.433
156,-0.001,0.002,-0.009,-0.076,1.008,0.077,0.444,0.411,-0.436
157,-0.001,0.003,-0.007,-0.074,1.008,0.077,0.448,0.411,-0.42
158,-0.001,0.002,-0.007,-0.073,1.01,0.077,0.448,0.411,-0.42
159,0.0,0.002,-0.006,-0.071,1.01,0.074,0.441,0.403,-0.417
160,0.002,0.002,-0.007,-0.07,1.006,0.071,0.439,0.411,-0.418
161,0.002,0.004,-0.007,-0.069,1.003,0.072,0.436,0.414,-0.417
162,0.002,0.005,-0.005,-0.071,1.002,0.074,0.436,0.414,-0.417
163,0.003,0.004,-0.006,-0.073,1.004,0.073,0.454,0.415,-0.424
164,0.002,0.007,-0.007,-0.072,1.005,0.071,0.447,0.415,-0.429
165,0.001,0.006,-0.007,-0.071,1.003,0.069,0.43,0.414,-0.43
166,0.002,0.003,-0.008,-0.071,1.003,0.069,0.451,0.411,-0.43
167,0.001,0.002,-0.007,-0.07,1.002,0.071,0.45,0.414,-0.414
168,0.002,0.007,-0.007,-0.068,1.003,0.073,0.466,0.421,-0.418
169,0.002,0.007,-0.007,-0.07,1.007,0.071,0.466,0.421,-0.418
170,0.004,0.008,-0.006,-0.073,1.01,0.072,0.448,0.421,-0.418
171,0.004,0.009,-0.005,-0.071,1.011,0.072,0.418,0.417,-0.409
172,0.002,0.009,-0.004,-0.071,1.009,0.07,0.418,0.417,-0.409
173,0.002,0.007,-0.004,-0.073,1.007,0.071,0.448,0.412,-0.444
174,0.003,0.002,-0.004,-0.074,1.007,0.074,0.453,0.409,-0.427
175,0.002,0.0,-0.004,-0.078,1.006,0.077,0.46,0.423,-0.441
176,0.002,0.001,-0.004,-0.081,1.005,0.076,0.46,0.423,-0.441
177,0.004,0.001,-0.006,-0.08,1.005,0.073,0.451,0.415,-0.426
178,0.005,0.005,-0.006,-0.08,1.008,0.074,0.457,0.414,-0.418
179,0.006,-0.002,-0.004,-0.08,1.009,0.074,0.448,0.417,-0.432
180,0.005,-0.007,-0.002,-0.078,1.008,0.071,0.445,0.411,-0.436
181,0.006,-0.007,-0.002,-0.075,1.008,0.07,0.447,0.426,-0.426
182,0.005,-0.004,-0.001,-0.071,1.008,0.069,0.448,0.441,-0.432
183,0.005,-0.006,0.0,-0.069,1.009,0.068,0.448,0.441,-0.432
184,0.004,-0.009,-0.002,-0.068,1.009,0.07,0.444,0.408,-0.426
185,0.002,-0.01,-0.002,-0.068,1.009,0.07,0.453,0.411,-0.42
186,0.0,-0.005,-0.003,-0.07,1.005,0.07,0.453,0.411,-0.42
187,0.0,-0.006,-0.005,-0.07,1.003,0.067,0.454,0.415,-0.439
188,0.0,-0.006,-0.005,-0.069,1.003,0.068,0.448,0.417,-0.418
189,0.0,-0.006,-0.005,-0.069,1.002,0.069,0.456,0.424,-0.424
190,-0.001,-0.002,-0.006,-0.069,1.002,0.064,0.456,0.424,-0.424
191,-0.002,0.002,-0.005,-0.069,1.002,0.062,0.445,0.414,-0.427
192,-0.005,0.004,-0.003,-0.067,1.006,0.068,0.445,0.426,-0.411
193,-0.005,0.005,-0.002,-0.065,1.008,0.069,0.445,0.426,-0.411
194,-0.004,0.007,-0.004,-0.065,1.007,0.065,0.456,0.414,-0.43
195,-0.004,0.004,-0.004,-0.065,1.009,0.065,0.445,0.424,-0.42
196,-0.001,0.004,-0.004,-0.068,1.009,0.068,0.457,0.405,-0.438
197,0.0,0.005,-0.004,-0.072,1.01,0.067,0.457,0.405,-0.438
198,0.0,0.007,-0.004,-0.073,1.012,0.065,0.451,0.424,-0.423
199,0.0,0.008,-0.004,-0.073,1.008,0.066,0.447,0.423,-0.409
200,0.0,0.011,-0.005,-0.072,1.002,0.065,0.451,0.421,-0.418
201,0.0,0.01,-0.007,-0.072,1.001,0.064,0.456,0.406,-0.424
202,0.0,0.009,-0.007,-0.071,1.004,0.066,0.459,0.426,-0.433
203,0.0,0.009,-0.007,-0.072,1.005,0.065,0.463,0.42,-0.408
204,-0.001,0.009,-0.005,-0.072,1.004,0.066,0.463,0.42,-0.408
205,0.0,0.009,-0.004,-0.072,1.004,0.066,0.451,0.439,-0.424
206,0.0,0.009,-0.004,-0.078,1.006,0.066,0.442,0.42,-0.424
207,0.0,0.012,-0.004,-0.08,1.007,0.066,0.445,0.4,-0.424
208,0.001,0.01,-0.004,-0.083,1.006,0.065,0.454,0.42,-0.423
209,0.001,0.01,-0.004,-0.083,1.005,0.066,0.459,0.411,-0.427
210,0.002,0.002,-0.004,-0.078,1.006,0.071,0.463,0.42,-0.438
211,0.002,-0.004,-0.005,-0.078,1.006,0.07,0.463,0.42,-0.438
212,0.003,-0.007,-0.005,-0.081,1.005,0.067,0.457,0.417,-0.433
213,0.002,-0.011,-0.004,-0.081,1.006,0.067,0.444,0.42,-0.411
214,0.0,-0.009,-0.004,-0.083,1.005,0.068,0.438,0.435,-0.424
215,0.0,-0.006,-0.004,-0.082,1.005,0.068,0.453,0.445,-0.423
216,0.0,-0.01,-0.005,-0.082,1.007,0.07,0.456,0.418,-0.432
217,-0.002,-0.013,-0.006,-0.081,1.007,0.072,0.45,0.418,-0.421
218,-0.002,-0.014,-0.005,-0.078,1.007,0.069,0.45,0.418,-0.421
219,0.0,-0.014,-0.006,-0.077,1.006,0.067,0.468,0.426,-0.43
220,0.001,-0.021,-0.005,-0.079,1.005,0.07,0.436,0.411,-0.414
221,0.0,-0.018,-0.005,-0.078,1.005,0.072,0.436,0.411,-0.414
222,-0.001,-0.018,-0.004,-0.078,1.006,0.07,0.45,0.403,-0.439
223,-0.002,-0.016,-0.004,-0.078,1.006,0.07,0.438,0.417,-0.426
224,-0.003,-0.011,-0.004,-0.079,1.006,0.069,0.444,0.405,-0.438
225,-0.002,-0.009,-0.004,-0.077,1.003,0.067,0.444,0.405,-0.438
226,-0.002,-0.009,-0.004,-0.077,0.999,0.066,0.459,0.409,-0.421
227,-0.002,-0.013,-0.004,-0.077,1.0,0.067,0.454,0.414,-0.429
228,-0.003,-0.017,-0.005,-0.075,1.005,0.07,0.459,0.417,-0.439
229,-0.003,-0.017,-0.005,-0.077,1.005,0.069,0.454,0.411,-0.417
230,-0.004,-0.017,-0.004,-0.08,1.006,0.068,0.451,0.43,-0.417
231,-0.004,-0.015,-0.005,-0.078,1.006,0.07,0.457,0.427,-0.42
232,-0.007,-0.014,-0.005,-0.077,1.006,0.069,0.457,0.427,-0.42
233,-0.007,-0.01,-0.005,-0.078,1.005,0.066,0.463,0.417,-0.43
234,-0.009,-0.018,-0.006,-0.078,1.002,0.067,0.436,0.433,-0.418
235,-0.009,-0.015,-0.005,-0.078,1.004,0.071,0.436,0.433,-0.418
236,-0.007,-0.015,-0.005,-0.077,1.007,0.072,0.447,0.415,-0.442
237,-0.008,-0.014,-0.005,-0.076,1.008,0.07,0.465,0.424,-0.42
238,-0.009,-0.014,-0.005,-0.076,1.008,0.071,0.468,0.426,-0.403
239,-0.011,-0.014,-0.004,-0.076,1.009,0.071,0.468,0.426,-0.403
240,-0.011,-0.007,-0.004,-0.078,1.009,0.065,0.454,0.43,-0.417
241,-0.011,0.0,-0.004,-0.076,1.008,0.06,0.456,0.423,-0.439
242,-0.011,-0.006,-0.005,-0.072,1.007,0.065,0.45,0.421,-0.406
243,-0.007,-0.009,-0.006,-0.073,1.008,0.069,0.429,0.417,-0.426
244,-0.005,-0.007,-0.008,-0.073,1.008,0.069,0.462,0.402,-0.444
245,-0.006,-0.006,-0.007,-0.072,1.008,0.069,0.459,0.427,-0.42
246,-0.007,-0.007,-0.008,-0.072,1.008,0.066,0.46,0.415,-0.433
247,-0.007,-0.007,-0.008,-0.072,1.007,0.06,0.46,0.415,-0.433
248,-0.007,-0.01,-0.007,-0.071,1.008,0.06,0.46,0.415,-0.433
249,-0.006,-0.007,-0.007,-0.073,1.009,0.061,0.436,0.426,-0.423
250,-0.002,-0.008,-0.007,-0.073,1.007,0.061,0.444,0.412,-0.427
251,0.0,-0.006,-0.007,-0.071,1.005,0.065,0.459,0.417,-0.417
252,0.0,-0.003,-0.006,-0.073,1.003,0.065,0.45,0.436,-0.433
253,0.0,-0.003,-0.007,-0.073,1.004,0.063,0.442,0.423,-0.427
254,-0.002,-0.003,-0.007,-0.072,1.006,0.064,0.442,0.423,-0.427
255,-0.003,-0.011,-0.006,-0.074,1.006,0.067,0.441,0.411,-0.414
256,-0.005,-0.004,-0.006,-0.076,1.008,0.069,0.45,0.412,-0.423
257,-0.001,0.003,-0.006,-0.076,1.008,0.064,0.456,0.418,-0.421
258,0.002,0.004,-0.006,-0.076,1.006,0.061,0.459,0.433,-0.397
259,0.003,0.004,-0.006,-0.078,1.01,0.063,0.456,0.418,-0.433
260,0.002,0.0,-0.007,-0.077,1.011,0.064,0.457,0.43,-0.426
261,0.0,-0.002,-0.006,-0.075,1.011,0.062,0.457,0.43,-0.426
262,0.0,-0.007,-0.007,-0.079,1.009,0.059,0.432,0.418,-0.417
263,0.001,-0.004,-0.006,-0.079,1.005,0.061,0.432,0.418,-0.417
264,0.004,-0.002,-0.005,-0.08,1.005,0.061,0.439,0.414,-0.424
265,0.007,-0.003,-0.006,-0.079,1.003,0.063,0.445,0.424,-0.408
266,0.009,-0.006,-0.006,-0.078,1.004,0.066,0.444,0.424,-0.421
267,0.009,-0.006,-0.006,-0.077,1.008,0.07,0.444,0.424,-0.421
268,0.01,-0.003,-0.007,-0.078,1.009,0.071,0.447,0.414,-0.429
269,0.01,-0.005,-0.007,-0.081,1.007,0.07,0.45,0.433,-0.399
270,0.011,-0.009,-0.009,-0.083,1.006,0.071,0.447,0.417,-0.415
271,0.008,-0.011,-0.009,-0.082,1.004,0.07,0.453,0.427,-0.435
272,0.005,-0.011,-0.01,-0.082,1.002,0.067,0.454,0.408,-0.426
273,0.003,-0.009,-0.01,-0.082,1.002,0.067,0.453,0.418,-0.42
274,0.001,-0.011,-0.009,-0.08,1.004,0.068,0.453,0.418,-0.42
275,0.0,-0.014,-0.009,-0.081,1.004,0.071,0.459,0.421,-0.429
276,0.002,-0.015,-0.009,-0.081,1.003,0.07,0.444,0.433,-0.412
277,0.003,-0.015,-0.01,-0.078,1.003,0.068,0.444,0.433,-0.412
278,0.0,-0.013,-0.011,-0.078,1.004,0.067,0.436,0.43,-0.429
279,-0.001,-0.011,-0.011,-0.081,1.005,0.066,0.454,0.426,-0.43
280,-0.001,-0.01,-0.01,-0.08,1.007,0.067,0.463,0.42,-0.424
281,-0.002,-0.006,-0.009,-0.075,1.008,0.068,0.463,0.42,-0.424
282,-0.002,-0.004,-0.009,-0.071,1.008,0.069,0.453,0.433,-0.43
283,-0.001,-0.003,-0.01,-0.071,1.008,0.069,0.466,0.424,-0.426
284,0.0,-0.004,-0.01,-0.069,1.008,0.07,0.433,0.418,-0.426
285,0.001,-0.001,-0.011,-0.072,1.008,0.065,0.444,0.421,-0.418
286,0.003,0.0,-0.012,-0.071,1.007,0.061,0.457,0.412,-0.433
287,0.003,0.0,-0.012,-0.072,1.005,0.065,0.442,0.435,-0.427
288,0.004,0.0,-0.011,-0.076,1.007,0.069,0.442,0.435,-0.427
289,0.004,-0.001,-0.01,-0.078,1.007,0.067,0.454,0.408,-0.442
290,0.007,0.004,-0.009,-0.079,1.008,0.063,0.444,0.418,-0.4
291,0.005,0.01,-0.009,-0.079,1.009,0.06,0.447,0.39,-0.421
292,0.006,0.009,-0.009,-0.079,1.008,0.059,0.447,0.409,-0.439
293,0.007,0.009,-0.01,-0.076,1.008,0.06,0.457,0.424,-0.408
294,0.006,0.007,-0.011,-0.072,1.009,0.067,0.451,0.42,-0.423
295,0.005,0.0,-0.011,-0.074,1.007,0.07,0.451,0.42,-0.423
296,0.005,0.0,-0.011,-0.079,1.004,0.067,0.462,0.423,-0.421
297,0.008,0.001,-0.009,-0.082,1.002,0.063,0.436,0.432,-0.42
298,0.008,0.0,-0.01,-0.083,1.001,0.062,0.436,0.432,-0.42
299,0.007,0.002,-0.01,-0.084,1.003,0.063,0.445,0.418,-0.414
300,0.006,0.004,-0.009,-0.082,1.006,0.065,0.448,0.411,-0.406
301,0.007,0.004,-0.009,-0.08,1.008,0.066,0.441,0.421,-0.417
302,0.008,0.002,-0.009,-0.08,1.007,0.068,0.441,0.421,-0.417
303,0.01,0.0,-0.008,-0.08,1.007,0.068,0.444,0.429,-0.418
304,0.011,-0.005,-0.008,-0.08,1.007,0.071,0.442,0.427,-0.411
305,0.011,-0.009,-0.009,-0.08,1.008,0.069,0.456,0.409,-0.442
306,0.011,-0.006,-0.009,-0.08,1.009,0.067,0.454,0.421,-0.406
307,0.011,-0.006,-0.009,-0.082,1.011,0.064,0.447,0.42,-0.423
308,0.009,-0.002,-0.009,-0.081,1.01,0.063,0.468,0.42,-0.418
309,0.007,-0.002,-0.009,-0.078,1.01,0.061,0.468,0.42,-0.418
310,0.004,-0.008,-0.009,-0.077,1.006,0.063,0.445,0.405,-0.42
311,0.002,-0.011,-0.011,-0.078,1.005,0.066,0.436,0.424,-0.399
312,0.004,-0.009,-0.011,-0.076,1.006,0.065,0.436,0.424,-0.399
313,0.006,-0.007,-0.012,-0.074,1.003,0.064,0.445,0.409,-0.414
314,0.006,-0.006,-0.012,-0.073,1.003,0.063,0.459,0.414,-0.418
315,0.005,-0.007,-0.011,-0.075,1.003,0.061,0.462,0.426,-0.429
316,0.003,-0.006,-0.011,-0.078,1.003,0.059,0.46,0.429,-0.418
317,0.001,-0.006,-0.011,-0.077,1.005,0.058,0.46,0.429,-0.418
318,0.001,-0.007,-0.011,-0.077,1.007,0.059,0.459,0.417,-0.424
319,0.005,-0.007,-0.012,-0.077,1.008,0.063,0.447,0.415,-0.429
320,0.008,-0.006,-0.013,-0.077,1.009,0.066,0.45,0.424,-0.427
321,0.009,-0.007,-0.015,-0.077,1.01,0.068,0.451,0.418,-0.427
322,0.009,-0.007,-0.015,-0.077,1.01,0.068,0.46,0.423,-0.438
323,0.008,-0.005,-0.015,-0.079,1.01,0.067,0.441,0.42,-0.423
324,0.008,-0.004,-0.016,-0.079,1.007,0.065,0.441,0.42,-0.423
325,0.007,-0.007,-0.015,-0.079,1.005,0.066,0.451,0.427,-0.411
326,0.009,-0.002,-0.016,-0.078,1.005,0.066,0.451,0.427,-0.411
327,0.009,-0.002,-0.016,-0.079,1.007,0.065,0.448,0.418,-0.42
328,0.008,0.002,-0.016,-0.079,1.009,0.064,0.463,0.424,-0.432
329,0.007,0.004,-0.015,-0.079,1.007,0.065,0.444,0.423,-0.43
330,0.007,0.002,-0.016,-0.077,1.006,0.065,0.459,0.426,-0.418
331,0.004,-0.002,-0.016,-0.075,1.005,0.063,0.459,0.426,-0.418
332,0.007,-0.012,-0.017,-0.073,1.003,0.068,0.435,0.423,-0.421
333,0.007,-0.011,-0.018,-0.075,1.007,0.073,0.441,0.402,-0.421
334,0.009,-0.005,-0.016,-0.076,1.009,0.071,0.45,0.427,-0.417
335,0.009,-0.002,-0.016,-0.076,1.008,0.068,0.454,0.418,-0.433
336,0.007,-0.002,-0.015,-0.078,1.006,0.068,0.451,0.417,-0.423
337,0.004,-0.004,-0.014,-0.079,1.006,0.065,0.451,0.417,-0.423
338,0.004,-0.006,-0.016,-0.078,1.006,0.066,0.445,0.409,-0.427
339,0.004,-0.007,-0.017,-0.075,1.004,0.07,0.438,0.408,-0.405
340,0.006,-0.012,-0.016,-0.072,1.003,0.072,0.438,0.408,-0.405
341,0.009,-0.012,-0.017,-0.071,1.006,0.071,0.447,0.408,-0.441
342,0.011,-0.009,-0.017,-0.071,1.006,0.071,0.454,0.42,-0.439
343,0.011,-0.009,-0.016,-0.073,1.006,0.069,0.444,0.418,-0.423
344,0.009,-0.009,-0.016,-0.073,1.005,0.069,0.444,0.418,-0.423
345,0.008,-0.006,-0.015,-0.072,1.007,0.071,0.465,0.427,-0.427
346,0.007,-0.004,-0.015,-0.076,1.008,0.072,0.454,0.439,-0.426
347,0.007,-0.004,-0.015,-0.074,1.011,0.07,0.444,0.405,-0.435
348,0.006,-0.008,-0.015,-0.07,1.012,0.07,0.444,0.423,-0.433
349,0.007,-0.011,-0.016,-0.07,1.01,0.072,0.459,0.418,-0.432
350,0.008,-0.014,-0.016,-0.068,1.008,0.074,0.436,0.421,-0.429
351,0.008,-0.013,-0.017,-0.068,1.005,0.074,0.436,0.421,-0.429
352,0.009,-0.008,-0.016,-0.071,1.0,0.071,0.433,0.42,-0.432
353,0.007,-0.009,-0.015,-0.072,0.999,0.069,0.433,0.426,-0.396
354,0.006,-0.001,-0.016,-0.071,0.999,0.068,0.433,0.426,-0.396
355,0.005,0.0,-0.016,-0.072,1.0,0.068,0.474,0.427,-0.439
356,0.004,-0.002,-0.016,-0.074,1.003,0.07,0.448,0.417,-0.423
357,0.004,-0.007,-0.016,-0.074,1.004,0.075,0.454,0.427,-0.429
358,0.006,-0.016,-0.017,-0.074,1.006,0.078,0.454,0.427,-0.429
359,0.009,-0.014,-0.017,-0.073,1.007,0.074,0.444,0.42,-0.439
360,0.011,-0.007,-0.017,-0.074,1.006,0.069,0.448,0.433,-0.451
361,0.011,-0.007,-0.016,-0.072,1.008,0.069,0.442,0.415,-0.423
362,0.011,-0.011,-0.016,-0.072,1.008,0.069,0.445,0.418,-0.435
363,0.011,-0.008,-0.014,-0.069,1.009,0.071,0.46,0.424,-0.433
364,0.009,-0.004,-0.014,-0.069,1.007,0.073,0.451,0.411,-0.42
365,0.009,-0.004,-0.014,-0.069,1.006,0.072,0.451,0.411,-0.42
366,0.009,-0.01,-0.014,-0.072,1.004,0.074,0.453,0.444,-0.448
367,0.009,-0.01,-0.014,-0.074,1.006,0.076,0.447,0.426,-0.402
368,0.009,-0.011,-0.014,-0.071,1.007,0.075,0.445,0.412,-0.42
369,0.009,-0.012,-0.014,-0.071,1.004,0.074,0.441,0.418,-0.418
370,0.009,-0.009,-0.015,-0.07,1.005,0.075,0.459,0.408,-0.436
371,0.009,-0.007,-0.016,-0.07,1.005,0.075,0.447,0.394,-0.432
372,0.008,-0.006,-0.016,-0.067,1.004,0.072,0.447,0.394,-0.432
373,0.008,-0.008,-0.016,-0.063,1.002,0.072,0.454,0.429,-0.43
374,0.008,-0.012,-0.015,-0.069,1.006,0.072,0.439,0.396,-0.405
375,0.004,-0.011,-0.015,-0.068,1.008,0.076,0.445,0.414,-0.426
376,0.003,-0.009,-0.014,-0.068,1.007,0.078,0.447,0.415,-0.411
377,0.002,-0.008,-0.014,-0.07,1.005,0.077,0.436,0.432,-0.433
378,0.001,-0.005,-0.014,-0.072,1.004,0.076,0.435,0.417,-0.424
379,0.002,-0.006,-0.014,-0.074,1.004,0.075,0.435,0.417,-0.424
380,0.0,-0.004,-0.015,-0.072,1.005,0.073,0.45,0.409,-0.429
381,0.0,-0.007,-0.014,-0.072,1.005,0.073,0.45,0.409,-0.429
382,0.001,-0.007,-0.012,-0.069,1.005,0.069,0.46,0.424,-0.414
383,0.001,-0.005,-0.013,-0.069,1.006,0.069,0.463,0.418,-0.415
384,0.002,-0.007,-0.013,-0.07,1.007,0.073,0.453,0.426,-0.429
385,0.002,-0.007,-0.013,-0.068,1.009,0.075,0.438,0.405,-0.436
386,0.004,-0.011,-0.014,-0.068,1.009,0.075,0.438,0.405,-0.436
387,0.003,-0.011,-0.015,-0.069,1.006,0.073,0.453,0.427,-0.399
388,0.005,-0.009,-0.016,-0.069,1.004,0.073,0.453,0.427,-0.399
389,0.004,-0.005,-0.016,-0.069,1.005,0.069,0.448,0.406,-0.418
390,0.005,-0.004,-0.015,-0.066,1.005,0.07,0.457,0.42,-0.42
391,0.006,-0.007,-0.014,-0.066,1.006,0.076,0.457,0.426,-0.415
392,0.004,-0.01,-0.015,-0.069,1.007,0.078,0.465,0.412,-0.423
393,0.002,-0.009,-0.014,-0.071,1.007,0.074,0.465,0.412,-0.423
394,0.004,-0.01,-0.015,-0.069,1.006,0.068,0.456,0.42,-0.435
395,0.0,-0.011,-0.015,-0.067,1.006,0.064,0.442,0.418,-0.418
396,0.0,-0.016,-0.014,-0.068,1.006,0.068,0.429,0.427,-0.424
397,0.001,-0.016,-0.015,-0.068,1.005,0.073,0.438,0.411,-0.411
398,0.003,-0.014,-0.014,-0.067,1.004,0.072,0.462,0.415,-0.436
399,0.004,-0.011,-0.014,-0.068,1.004,0.072,0.448,0.411,-0.432
400,0.001,-0.011,-0.014,-0.068,1.004,0.074,0.448,0.411,-0.432
401,0.0,-0.007,-0.014,-0.065,1.004,0.074,0.439,0.415,-0.403
402,-0.002,-0.009,-0.014,-0.062,1.004,0.075,0.439,0.415,-0.403
403,-0.006,-0.008,-0.013,-0.061,1.005,0.075,0.448,0.409,-0.439
404,-0.004,-0.009,-0.012,-0.062,1.005,0.075,0.448,0.418,-0.444
405,-0.004,-0.009,-0.012,-0.06,1.002,0.078,0.454,0.406,-0.417
406,-0.002,-0.004,-0.011,-0.059,1.002,0.077,0.454,0.406,-0.417
407,-0.002,0.001,-0.01,-0.062,1.002,0.071,0.436,0.411,-0.417
408,0.0,0.0,-0.009,-0.063,0.999,0.067,0.444,0.411,-0.397
409,0.001,-0.003,-0.009,-0.063,0.999,0.07,0.439,0.43,-0.427
410,0.003,-0.009,-0.009,-0.063,1.001,0.075,0.445,0.397,-0.426
411,0.003,-0.013,-0.009,-0.064,1.005,0.08,0.454,0.423,-0.411
412,0.005,-0.016,-0.008,-0.066,1.011,0.083,0.444,0.424,-0.418
413,0.009,-0.012,-0.008,-0.066,1.017,0.084,0.444,0.424,-0.418
414,0.009,-0.005,-0.006,-0.065,1.021,0.082,0.442,0.417,-0.436
415,0.009,-0.001,-0.005,-0.062,1.017,0.076,0.447,0.421,-0.435
416,0.008,-0.006,-0.007,-0.062,1.011,0.076,0.438,0.403,-0.411
417,0.006,-0.01,-0.008,-0.062,1.006,0.081,0.438,0.403,-0.411
418,0.0,-0.013,-0.009,-0.059,1.002,0.081,0.451,0.417,-0.417
419,0.001,-0.015,-0.01,-0.059,0.999,0.081,0.441,0.411,-0.409
420,0.0,-0.009,-0.008,-0.059,0.999,0.081,0.441,0.411,-0.409
421,-0.003,0.0,-0.006,-0.061,0.999,0.081,0.459,0.423,-0.414
422,-0.004,0.002,-0.005,-0.06,1.002,0.078,0.462,0.418,-0.408
423,-0.006,-0.001,-0.005,-0.059,1.004,0.074,0.436,0.406,-0.42
424,-0.008,-0.003,-0.004,-0.058,1.005,0.075,0.451,0.415,-0.432
425,-0.008,-0.003,-0.004,-0.06,1.006,0.076,0.451,0.4,-0.412
426,-0.008,-0.002,-0.006,-0.06,1.003,0.072,0.463,0.421,-0.412
427,-0.005,-0.002,-0.007,-0.059,1.005,0.072,0.463,0.421,-0.412
428,-0.005,0.0,-0.007,-0.062,1.01,0.076,0.456,0.421,-0.411
429,-0.004,-0.003,-0.007,-0.062,1.009,0.077,0.456,0.414,-0.405
430,-0.005,0.001,-0.007,-0.061,1.006,0.075,0.436,0.42,-0.411
431,-0.004,-0.003,-0.006,-0.064,1.007,0.075,0.451,0.409,-0.412
432,-0.004,-0.006,-0.005,-0.066,1.005,0.072,0.453,0.412,-0.421
433,-0.007,-0.008,-0.006,-0.066,1.002,0.072,0.445,0.417,-0.43
434,-0.009,-0.007,-0.004,-0.066,1.003,0.073,0.445,0.417,-0.43
435,-0.01,-0.006,-0.004,-0.065,1.005,0.075,0.454,0.42,-0.436
436,-0.012,-0.009,-0.003,-0.064,1.006,0.079,0.457,0.417,-0.423
437,-0.016,-0.025,-0.002,-0.064,1.004,0.079,0.459,0.417,-0.427
438,-0.014,-0.019,-0.001,-0.066,1.003,0.078,0.433,0.424,-0.405
439,-0.013,-0.014,0.0,-0.066,1.003,0.078,0.465,0.426,-0.423
440,-0.015,-0.012,0.0,-0.066,1.003,0.075,0.444,0.427,-0.421
441,-0.016,-0.011,0.0,-0.066,1.001,0.075,0.444,0.427,-0.421
442,-0.015,-0.016,0.0,-0.069,1.001,0.07,0.451,0.429,-0.421
443,-0.012,-0.022,0.0,-0.071,1.0,0.064,0.439,0.417,-0.436
444,-0.012,-0.022,0.0,-0.07,0.998,0.063,0.447,0.43,-0.414
445,-0.009,-0.026,0.002,-0.069,0.995,0.064,0.453,0.423,-0.435
446,-0.005,-0.034,0.004,-0.067,0.99,0.065,0.46,0.429,-0.421
447,-0.004,-0.041,0.005,-0.063,0.988,0.063,0.451,0.42,-0.429
448,-0.005,-0.048,0.006,-0.058,0.987,0.066,0.451,0.42,-0.429
449,-0.005,-0.057,0.009,-0.056,0.99,0.076,0.438,0.427,-0.426
450,-0.009,-0.06,0.011,-0.056,0.988,0.091,0.441,0.411,-0.438
451,-0.028,-0.059,0.024,-0.056,1.026,0.089,0.439,0.424,-0.429
452,-0.019,-0.056,0.019,-0.064,1.049,0.084,0.439,0.424,-0.429
453,-0.019,-0.046,0.018,-0.069,1.024,0.086,0.444,0.402,-0.412
454,-0.02,-0.042,0.022,-0.062,1.016,0.076,0.456,0.432,-0.412
455,-0.02,-0.044,0.027,-0.051,1.009,0.075,0.456,0.432,-0.412
456,-0.023,-0.052,0.028,-0.04,1.003,0.077,0.454,0.432,-0.42
457,-0.05,-0.055,0.034,-0.02,1.021,0.059,0.45,0.406,-0.423
458,-0.03,-0.077,0.028,-0.019,1.017,0.047,0.426,0.448,-0.417
459,-0.017,-0.066,0.022,-0.033,0.993,0.049,0.454,0.421,-0.411
460,-0.014,-0.046,0.021,-0.033,0.993,0.049,0.447,0.412,-0.432
461,-0.013,-0.027,0.02,-0.031,0.999,0.048,0.447,0.415,-0.433
462,-0.014,-0.013,0.021,-0.025,1.001,0.054,0.447,0.415,-0.433
463,-0.016,-0.004,0.023,-0.015,1.003,0.066,0.445,0.429,-0.418
464,-0.016,-0.004,0.023,-0.009,1.008,0.077,0.45,0.411,-0.423
465,-0.023,0.003,0.025,-0.009,1.018,0.081,0.433,0.403,-0.42
466,-0.029,0.016,0.028,-0.011,1.029,0.078,0.433,0.403,-0.42
467,-0.033,0.046,0.032,-0.014,1.034,0.064,0.448,0.436,-0.412
468,-0.032,0.076,0.035,-0.014,1.03,0.044,0.46,0.409,-0.43
469,-0.035,0.093,0.039,-0.011,0.995,0.055,0.46,0.409,-0.43
470,-0.042,0.107,0.048,-0.001,0.997,0.045,0.438,0.408,-0.411
471,-0.028,0.118,0.035,0.006,1.013,0.028,0.448,0.417,-0.406
472,-0.019,0.129,0.025,0.008,1.003,0.048,0.441,0.426,-0.406
473,-0.011,0.141,0.021,0.009,1.016,0.059,0.45,0.42,-0.432
474,-0.004,0.161,0.022,0.007,1.026,0.065,0.457,0.411,-0.442
475,0.003,0.188,0.026,0.003,1.025,0.066,0.445,0.417,-0.415
476,0.004,0.218,0.034,-0.001,1.018,0.06,0.445,0.417,-0.415
477,0.0,0.252,0.042,-0.004,1.006,0.047,0.451,0.442,-0.418
478,-0.006,0.288,0.051,-0.002,0.994,0.034,0.444,0.429,-0.421
479,-0.021,0.314,0.072,0.003,0.976,0.037,0.447,0.418,-0.406
480,-0.023,0.359,0.06,0.003,0.976,0.037,0.447,0.418,-0.406
481,-0.017,0.375,0.049,0.015,0.986,0.04,0.46,0.421,-0.42
482,-0.008,0.394,0.04,0.028,1.017,0.039,0.453,0.424,-0.429
483,-0.008,0.394,0.04,0.035,1.03,0.055,0.453,0.424,-0.429
484,0.003,0.414,0.027,0.038,1.031,0.068,0.456,0.435,-0.421
485,0.011,0.443,0.01,0.034,1.022,0.065,0.454,0.421,-0.436
486,0.017,0.496,-0.008,0.026,1.01,0.043,0.459,0.442,-0.426
487,0.014,0.548,-0.016,0.008,0.997,0.017,0.462,0.414,-0.42
488,-0.016,0.564,0.008,-0.015,1.003,-0.02,0.472,0.441,-0.435
489,-0.039,0.612,0.028,-0.019,1.024,-0.052,0.468,0.421,-0.445
490,-0.044,0.676,0.024,-0.027,1.025,-0.043,0.468,0.421,-0.445
491,-0.074,0.641,0.115,-0.06,1.021,-0.03,0.474,0.418,-0.433
492,-0.086,0.746,0.104,-0.07,1.021,-0.008,0.475,0.418,-0.432
493,-0.091,0.8,0.137,-0.069,1.031,-0.035,0.477,0.43,-0.421
494,-0.058,0.858,0.119,-0.081,1.009,-0.017,0.486,0.435,-0.435
495,-0.03,0.878,0.11,-0.093,1.019,-0.018,0.48,0.429,-0.423
496,0.009,0.935,0.077,-0.115,1.025,-0.032,0.49,0.42,-0.417
497,0.042,0.969,0.063,-0.139,1.03,-0.029,0.49,0.42,-0.417
498,0.053,1.004,0.063,-0.139,1.03,-0.029,0.495,0.424,-0.439
499,0.062,1.057,0.063,-0.166,1.051,-0.019,0.505,0.417,-0.438
500,0.061,1.064,0.06,-0.188,1.062,-0.021,0.51,0.43,-0.426
501,0.065,1.064,0.088,-0.195,1.065,-0.029,0.516,0.43,-0.426
502,0.086,1.108,0.06,-0.186,1.078,-0.061,0.517,0.442,-0.42
503,0.086,1.108,0.06,-0.178,1.073,-0.064,0.559,0.411,-0.436
504,0.102,1.127,0.039,-0.162,1.061,-0.038,0.559,0.411,-0.436
505,0.12,1.144,0.028,-0.148,1.05,-0.042,0.544,0.414,-0.438
506,0.137,1.208,0.014,-0.153,1.03,-0.046,0.549,0.433,-0.424
507,0.134,1.242,0.014,-0.16,1.02,-0.051,0.549,0.433,-0.424
508,0.144,1.243,0.02,-0.142,1.025,-0.062,0.561,0.42,-0.438
509,0.135,1.288,0.003,-0.138,1.03,-0.077,0.547,0.417,-0.438
510,0.133,1.32,0.0,-0.145,1.034,-0.078,0.558,0.421,-0.432
511,0.151,1.323,0.004,-0.147,1.038,-0.101,0.558,0.421,-0.432
512,0.158,1.312,-0.023,-0.163,1.009,-0.132,0.558,0.429,-0.45
513,0.166,1.339,-0.041,-0.155,1.011,-0.107,0.583,0.415,-0.432
514,0.172,1.342,-0.05,-0.148,1.037,-0.085,0.55,0.427,-0.439
515,0.193,1.34,-0.068,-0.158,1.032,-0.1,0.576,0.421,-0.46
516,0.207,1.37,-0.084,-0.169,1.009,-0.111,0.583,0.424,-0.438
517,0.216,1.374,-0.093,-0.169,1.009,-0.111,0.586,0.414,-0.445
518,0.245,1.375,-0.104,-0.177,1.005,-0.11,0.586,0.414,-0.445
519,0.268,1.346,-0.121,-0.19,1.019,-0.101,0.585,0.424,-0.454
520,0.293,1.32,-0.126,-0.197,1.01,-0.092,0.604,0.403,-0.447
521,0.315,1.316,-0.121,-0.206,0.99,-0.095,0.604,0.403,-0.447
522,0.315,1.316,-0.121,-0.228,0.97,-0.101,0.61,0.423,-0.447
523,0.326,1.353,-0.114,-0.235,0.988,-0.09,0.628,0.409,-0.451
524,0.338,1.371,-0.094,-0.234,0.999,-0.082,0.622,0.424,-0.471
525,0.329,1.378,-0.099,-0.242,0.972,-0.083,0.622,0.424,-0.471
526,0.337,1.4,-0.094,-0.26,0.971,-0.083,0.63,0.402,-0.441
527,0.352,1.376,-0.08,-0.258,0.99,-0.083,0.633,0.402,-0.441
528,0.359,1.391,-0.092,-0.255,1.015,-0.083,0.63,0.397,-0.441
529,0.36,1.386,-0.1,-0.262,1.026,-0.081,0.643,0.4,-0.441
530,0.362,1.36,-0.088,-0.256,1.026,-0.093,0.631,0.399,-0.444
531,0.346,1.365,-0.094,-0.258,1.005,-0.091,0.652,0.418,-0.451
532,0.345,1.359,-0.109,-0.241,1.004,-0.073,0.652,0.418,-0.451
533,0.357,1.356,-0.12,-0.224,1.012,-0.063,0.651,0.396,-0.439
534,0.366,1.339,-0.12,-0.233,0.989,-0.052,0.645,0.409,-0.441
535,0.373,1.341,-0.123,-0.242,0.989,-0.043,0.652,0.402,-0.433
536,0.376,1.335,-0.126,-0.26,0.998,-0.027,0.684,0.385,-0.441
537,0.39,1.309,-0.134,-0.26,0.998,-0.027,0.672,0.393,-0.444
538,0.416,1.283,-0.147,-0.285,0.988,-0.008,0.69,0.405,-0.423
539,0.455,1.26,-0.164,-0.318,0.981,-0.014,0.69,0.405,-0.423
540,0.492,1.23,-0.179,-0.35,0.98,-0.028,0.678,0.378,-0.447
541,0.523,1.199,-0.194,-0.369,0.974,-0.023,0.699,0.382,-0.427
542,0.523,1.199,-0.194,-0.386,0.97,-0.022,0.699,0.382,-0.427
543,0.545,1.141,-0.205,-0.406,0.967,-0.034,0.697,0.394,-0.435
544,0.564,1.048,-0.212,-0.42,0.963,-0.042,0.69,0.39,-0.432
545,0.592,0.908,-0.217,-0.427,0.962,-0.035,0.721,0.411,-0.444
546,0.63,0.735,-0.214,-0.42,0.968,-0.004,0.721,0.411,-0.444
547,0.652,0.603,-0.242,-0.405,0.961,0.043,0.706,0.381,-0.414
548,0.656,0.502,-0.266,-0.389,0.941,0.051,0.717,0.373,-0.424
549,0.669,0.436,-0.286,-0.362,0.926,0.025,0.715,0.382,-0.426
550,0.683,0.344,-0.282,-0.321,0.9,0.018,0.732,0.384,-0.454
551,0.668,0.255,-0.289,-0.259,0.871,0.013,0.717,0.385,-0.439
552,0.622,0.143,-0.24,-0.192,0.88,0.01,0.708,0.379,-0.457
553,0.557,0.163,-0.238,-0.105,0.903,0.03,0.708,0.379,-0.457
554,0.462,0.177,-0.177,-0.011,0.958,0.046,0.718,0.358,-0.463
555,0.395,0.315,-0.172,0.054,1.018,0.082,0.699,0.358,-0.445
556,0.352,0.4,-0.153,0.089,1.063,0.113,0.699,0.358,-0.445
557,0.326,0.441,-0.156,0.089,1.063,0.113,0.711,0.373,-0.454
558,0.298,0.394,-0.126,0.089,1.098,0.109,0.738,0.366,-0.445
559,0.333,0.455,-0.205,0.045,1.085,0.137,0.718,0.366,-0.454
560,0.333,0.455,-0.205,0.044,1.089,0.145,0.718,0.366,-0.454
561,0.33,0.527,-0.379,0.08,1.068,0.129,0.694,0.355,-0.448
562,0.33,0.527,-0.379,0.075,1.013,0.13,0.702,0.369,-0.462
563,0.306,0.513,-0.427,0.078,0.997,0.116,0.715,0.36,-0.445
564,0.256,0.577,-0.501,0.08,0.983,0.124,0.714,0.358,-0.433
565,0.211,0.657,-0.541,0.077,0.974,0.154,0.735,0.358,-0.46
566,0.169,0.781,-0.552,0.09,0.986,0.177,0.709,0.375,-0.448
567,0.117,0.918,-0.553,0.109,0.978,0.205,0.709,0.375,-0.448
568,0.074,1.058,-0.56,0.128,0.963,0.211,0.711,0.361,-0.442
569,0.059,1.188,-0.571,0.134,0.948,0.203,0.718,0.382,-0.45
570,0.049,1.3,-0.587,0.123,0.934,0.187,0.718,0.382,-0.45
571,0.049,1.354,-0.604,0.103,0.925,0.162,0.721,0.376,-0.439
572,0.052,1.329,-0.626,0.066,0.918,0.137,0.73,0.375,-0.436
573,0.059,1.246,-0.655,0.013,0.917,0.119,0.727,0.366,-0.442
574,0.062,1.132,-0.689,-0.044,0.927,0.109,0.727,0.366,-0.442
575,0.056,1.045,-0.716,-0.098,0.933,0.116,0.751,0.394,-0.417
576,0.037,0.996,-0.735,-0.137,0.933,0.146,0.742,0.388,-0.43
577,0.0,1.0,-0.738,-0.137,0.933,0.146,0.714,0.367,-0.405
578,-0.149,0.891,-0.779,-0.151,0.932,0.176,0.729,0.382,-0.399
579,-0.185,0.983,-0.688,-0.09,0.87,0.173,0.735,0.385,-0.415
580,-0.185,0.983,-0.688,-0.099,0.909,0.21,0.72,0.397,-0.418
581,-0.168,1.134,-0.642,-0.099,1.004,0.258,0.72,0.397,-0.418
582,-0.15,1.176,-0.632,-0.02,0.975,0.245,0.744,0.396,-0.388
583,-0.168,1.187,-0.61,0.0,0.965,0.215,0.73,0.406,-0.387
584,-0.196,1.201,-0.584,0.027,0.974,0.194,0.73,0.406,-0.387
585,-0.22,1.185,-0.563,0.058,0.98,0.177,0.745,0.382,-0.388
586,-0.238,1.15,-0.554,0.076,1.008,0.173,0.724,0.403,-0.379
587,-0.253,1.121,-0.537,0.076,1.048,0.173,0.744,0.4,-0.366
588,-0.266,1.113,-0.527,0.065,1.072,0.174,0.744,0.4,-0.366
589,-0.266,1.08,-0.51,0.06,1.098,0.184,0.741,0.435,-0.369
590,-0.282,1.092,-0.455,-0.03,1.071,0.154,0.751,0.412,-0.364
591,-0.27,1.104,-0.439,-0.052,1.081,0.16,0.738,0.427,-0.348
592,-0.277,1.115,-0.412,-0.062,1.039,0.149,0.736,0.438,-0.366
593,-0.321,1.128,-0.379,-0.092,1.002,0.132,0.733,0.417,-0.331
594,-0.392,1.172,-0.37,-0.094,0.972,0.133,0.741,0.427,-0.34
595,-0.434,1.197,-0.323,-0.076,0.967,0.149,0.741,0.427,-0.34
596,-0.455,1.218,-0.287,-0.076,0.967,0.149,0.732,0.432,-0.319
597,-0.452,1.213,-0.266,-0.044,0.966,0.171,0.732,0.432,-0.319
598,-0.431,1.191,-0.247,-0.001,0.977,0.189,0.75,0.415,-0.321
599,-0.416,1.174,-0.231,0.01,1.004,0.191,0.744,0.424,-0.289
600,-0.416,1.174,-0.231,0.015,1.005,0.171,0.748,0.436,-0.313
601,-0.401,1.152,-0.2,0.031,0.998,0.141,0.754,0.433,-0.295
602,-0.382,1.115,-0.175,0.04,1.002,0.118,0.754,0.433,-0.295
603,-0.361,1.143,-0.145,0.047,1.014,0.132,0.745,0.43,-0.273
604,-0.344,1.163,-0.13,0.053,1.011,0.145,0.745,0.43,-0.273
605,-0.34,1.202,-0.114,0.058,1.002,0.132,0.759,0.43,-0.271
606,-0.333,1.232,-0.099,0.052,1.007,0.128,0.75,0.454,-0.268
607,-0.315,1.251,-0.087,0.036,1.008,0.127,0.747,0.438,-0.276
608,-0.283,1.249,-0.079,0.022,1.004,0.133,0.747,0.438,-0.276
609,-0.247,1.226,-0.068,0.011,0.994,0.141,0.754,0.447,-0.264
610,-0.22,1.174,-0.056,0.0,0.984,0.136,0.747,0.432,-0.241
611,-0.196,1.113,-0.045,-0.013,0.978,0.123,0.756,0.43,-0.216
612,-0.187,1.057,-0.035,-0.019,0.972,0.118,0.783,0.435,-0.231
613,-0.177,1.017,-0.024,-0.022,0.977,0.118,0.76,0.442,-0.237
614,-0.153,0.999,-0.011,-0.027,0.982,0.133,0.754,0.444,-0.226
615,-0.121,0.998,0.002,-0.027,0.982,0.133,0.754,0.444,-0.226
616,-0.098,0.997,0.015,-0.033,0.984,0.151,0.754,0.436,-0.219
617,-0.087,0.975,0.028,-0.04,0.985,0.157,0.75,0.447,-0.213
618,-0.082,0.929,0.043,-0.049,0.987,0.158,0.75,0.447,-0.213
619,-0.085,0.863,0.061,-0.065,0.992,0.16,0.751,0.441,-0.216
620,-0.085,0.863,0.061,-0.08,0.996,0.171,0.766,0.43,-0.217
621,-0.089,0.795,0.08,-0.089,0.998,0.186,0.753,0.412,-0.199
622,-0.079,0.737,0.1,-0.095,0.999,0.201,0.762,0.441,-0.195
623,-0.052,0.693,0.119,-0.097,0.997,0.207,0.762,0.441,-0.195
624,-0.031,0.657,0.142,-0.083,0.993,0.205,0.753,0.442,-0.166
625,-0.023,0.621,0.164,-0.063,0.988,0.199,0.76,0.447,-0.189
626,-0.025,0.577,0.189,-0.046,0.994,0.191,0.775,0.435,-0.193
627,-0.025,0.528,0.213,-0.036,1.001,0.188,0.766,0.435,-0.198
628,-0.038,0.504,0.234,-0.034,0.996,0.18,0.775,0.423,-0.198
629,-0.051,0.498,0.248,-0.033,0.99,0.16,0.775,0.423,-0.198
630,-0.051,0.483,0.252,-0.029,0.984,0.141,0.76,0.444,-0.19
631,-0.049,0.462,0.253,-0.024,0.97,0.122,0.763,0.439,-0.177
632,-0.066,0.448,0.252,-0.017,0.953,0.088,0.763,0.439,-0.177
633,-0.093,0.421,0.248,-0.003,0.948,0.059,0.763,0.432,-0.187
634,-0.113,0.363,0.245,-0.003,0.948,0.059,0.763,0.424,-0.196
635,-0.128,0.319,0.234,0.002,0.965,0.056,0.765,0.433,-0.177
636,-0.138,0.323,0.221,0.002,0.992,0.065,0.765,0.433,-0.177
637,-0.138,0.333,0.208,-0.002,1.02,0.067,0.75,0.421,-0.165
638,-0.138,0.333,0.208,-0.002,1.049,0.065,0.78,0.421,-0.169
639,-0.127,0.303,0.198,0.008,1.079,0.071,0.754,0.418,-0.18
640,-0.095,0.23,0.186,0.019,1.089,0.079,0.765,0.432,-0.177
641,-0.084,0.226,0.184,0.014,1.085,0.091,0.772,0.432,-0.156
642,-0.063,0.265,0.18,0.0,1.086,0.078,0.772,0.42,-0.174
643,-0.019,0.273,0.18,-0.023,1.07,0.035,0.772,0.432,-0.15
644,0.028,0.247,0.181,-0.057,1.04,0.0,0.772,0.432,-0.15
645,0.06,0.276,0.178,-0.079,1.001,-0.008,0.757,0.417,-0.136
646,0.044,0.374,0.173,-0.099,0.966,0.009,0.757,0.417,-0.136
647,0.015,0.437,0.163,-0.116,0.964,0.026,0.792,0.418,-0.166
648,0.007,0.431,0.156,-0.134,0.977,0.039,0.78,0.414,-0.147
649,0.019,0.397,0.159,-0.147,0.998,0.063,0.771,0.43,-0.162
650,0.032,0.39,0.163,-0.148,1.024,0.083,0.771,0.43,-0.162
651,0.035,0.413,0.165,-0.137,1.056,0.071,0.795,0.418,-0.145
652,0.028,0.445,0.172,-0.142,1.053,0.067,0.78,0.412,-0.166
653,0.027,0.486,0.17,-0.162,1.017,0.084,0.769,0.418,-0.142
654,0.023,0.548,0.149,-0.178,0.985,0.1,0.789,0.414,-0.151
655,0.03,0.581,0.135,-0.178,0.985,0.1,0.769,0.412,-0.153
656,0.06,0.576,0.11,-0.191,0.975,0.086,0.795,0.391,-0.139
657,0.095,0.56,0.081,-0.189,0.992,0.062,0.795,0.391,-0.139
658,0.095,0.56,0.081,-0.183,1.014,0.069,0.79,0.42,-0.135
659,0.129,0.543,0.052,-0.172,1.045,0.082,0.766,0.415,-0.141
660,0.157,0.523,0.029,-0.166,1.067,0.099,0.766,0.415,-0.141
661,0.172,0.523,0.011,-0.165,1.072,0.105,0.78,0.435,-0.144
662,0.186,0.547,-0.001,-0.165,1.062,0.095,0.781,0.411,-0.151
663,0.196,0.591,-0.009,-0.167,1.036,0.076,0.78,0.418,-0.136
664,0.195,0.654,-0.016,-0.17,1.008,0.056,0.78,0.418,-0.136
665,0.189,0.713,-0.019,-0.175,0.981,0.038,0.777,0.409,-0.163
666,0.169,0.762,-0.016,-0.182,0.963,0.019,0.778,0.418,-0.135
667,0.143,0.795,-0.009,-0.186,0.965,0.01,0.778,0.411,-0.117
668,0.112,0.809,-0.002,-0.184,0.968,0.015,0.787,0.424,-0.148
669,0.081,0.81,0.006,-0.186,0.973,0.025,0.789,0.42,-0.114
670,0.055,0.805,0.011,-0.185,0.98,0.031,0.78,0.444,-0.135
671,0.04,0.799,0.012,-0.182,0.991,0.036,0.78,0.444,-0.135
672,0.039,0.805,0.011,-0.173,1.006,0.048,0.769,0.426,-0.121
673,0.03,0.802,0.009,-0.173,1.007,0.048,0.756,0.412,-0.088
674,0.021,0.798,0.002,-0.158,1.007,0.059,0.756,0.412,-0.088
675,0.015,0.805,0.002,-0.146,1.005,0.058,0.754,0.412,-0.118
676,0.013,0.802,0.001,-0.14,1.002,0.05,0.766,0.412,-0.124
677,0.011,0.795,0.004,-0.134,0.997,0.043,0.78,0.426,-0.111
678,0.011,0.795,0.004,-0.13,0.996,0.041,0.78,0.426,-0.111
679,0.016,0.786,0.009,-0.143,0.996,0.034,0.778,0.412,-0.1
680,0.022,0.77,0.011,-0.162,0.996,0.025,0.756,0.418,-0.096
681,0.032,0.773,0.014,-0.177,0.997,0.021,0.756,0.418,-0.096
682,0.032,0.782,0.024,-0.197,0.996,0.018,0.765,0.421,-0.094
683,0.026,0.767,0.033,-0.223,0.994,0.018,0.763,0.421,-0.079
684,0.025,0.728,0.036,-0.243,0.993,0.024,0.766,0.411,-0.091
685,0.032,0.69,0.038,-0.256,0.985,0.045,0.766,0.405,-0.081
686,0.041,0.613,0.018,-0.256,0.975,0.057,0.766,0.405,-0.081
687,0.046,0.533,0.001,-0.251,0.97,0.057,0.753,0.414,-0.072
688,0.042,0.466,-0.007,-0.252,0.97,0.058,0.75,0.427,-0.072
689,0.037,0.404,-0.014,-0.257,0.974,0.061,0.759,0.411,-0.075
690,0.03,0.354,-0.019,-0.268,0.981,0.063,0.756,0.414,-0.093
691,0.021,0.317,-0.023,-0.275,0.986,0.058,0.76,0.436,-0.078
692,0.014,0.275,-0.028,-0.271,0.983,0.054,0.76,0.436,-0.078
693,0.016,0.227,-0.03,-0.267,0.983,0.059,0.745,0.427,-0.081
694,0.016,0.191,-0.035,-0.267,0.983,0.059,0.768,0.411,-0.054
695,0.018,0.158,-0.044,-0.266,0.985,0.059,0.768,0.411,-0.054
696,0.009,0.135,-0.057,-0.262,0.985,0.067,0.751,0.414,-0.058
697,-0.006,0.116,-0.068,-0.257,0.979,0.072,0.753,0.427,-0.073
698,-0.006,0.116,-0.068,-0.249,0.965,0.07,0.744,0.436,-0.075
699,-0.025,0.125,-0.074,-0.244,0.957,0.096,0.744,0.436,-0.075
700,-0.039,0.135,-0.077,-0.242,0.957,0.118,0.75,0.415,-0.078
701,-0.044,0.116,-0.084,-0.238,0.96,0.121,0.742,0.417,-0.066
702,-0.049,0.087,-0.091,-0.238,0.959,0.119,0.751,0.433,-0.063
703,-0.053,0.073,-0.095,-0.242,0.959,0.119,0.744,0.424,-0.069
704,-0.046,0.07,-0.097,-0.247,0.971,0.116,0.75,0.433,-0.069
705,-0.042,0.078,-0.093,-0.247,0.997,0.107,0.736,0.447,-0.066
706,-0.042,0.075,-0.088,-0.24,1.019,0.102,0.724,0.424,-0.082
707,-0.039,0.044,-0.087,-0.239,1.03,0.089,0.724,0.424,-0.082
708,-0.031,0.027,-0.088,-0.247,1.033,0.073,0.732,0.429,-0.055
709,-0.031,0.039,-0.081,-0.245,1.022,0.064,0.732,0.429,-0.055
710,-0.042,0.052,-0.074,-0.228,1.002,0.05,0.735,0.427,-0.079
711,-0.047,0.07,-0.074,-0.204,0.985,0.034,0.748,0.42,-0.081
712,-0.05,0.092,-0.074,-0.175,0.986,0.026,0.742,0.414,-0.072
713,-0.057,0.113,-0.07,-0.148,0.995,0.018,0.742,0.414,-0.072
714,-0.058,0.12,-0.062,-0.148,0.995,0.018,0.744,0.42,-0.075
715,-0.062,0.108,-0.052,-0.129,1.006,0.009,0.736,0.415,-0.069
716,-0.074,0.088,-0.043,-0.117,1.011,-0.002,0.727,0.442,-0.048
717,-0.084,0.059,-0.04,-0.109,1.013,-0.01,0.726,0.429,-0.075
718,-0.084,0.059,-0.04,-0.106,1.014,-0.017,0.721,0.412,-0.069
719,-0.084,0.03,-0.044,-0.109,1.013,-0.028,0.738,0.433,-0.061
720,-0.077,0.009,-0.055,-0.107,1.011,-0.023,0.738,0.433,-0.061
721,-0.065,-0.005,-0.07,-0.102,1.008,-0.007,0.733,0.412,-0.055
722,-0.035,-0.002,-0.102,-0.109,1.004,0.009,0.723,0.421,-0.048
723,-0.021,0.005,-0.109,-0.122,1.001,0.01,0.726,0.409,-0.073
724,-0.014,0.014,-0.111,-0.13,1.003,0.007,0.729,0.427,-0.061
725,-0.013,0.013,-0.105,-0.129,1.007,0.002,0.703,0.415,-0.069
726,-0.018,0.005,-0.094,-0.125,1.009,0.001,0.742,0.412,-0.06
727,-0.022,-0.002,-0.081,-0.124,1.012,0.01,0.742,0.412,-0.06
728,-0.024,0.012,-0.056,-0.113,1.001,0.013,0.732,0.426,-0.055
729,-0.019,0.021,-0.05,-0.11,0.991,0.018,0.748,0.426,-0.07
730,-0.009,0.035,-0.044,-0.107,0.989,0.014,0.724,0.45,-0.049
731,-0.003,0.046,-0.04,-0.107,0.989,0.014,0.736,0.442,-0.06
732,0.0,0.04,-0.039,-0.105,0.994,0.007,0.738,0.426,-0.067
733,-0.001,0.036,-0.039,-0.103,0.996,0.007,0.738,0.426,-0.067
734,0.0,0.034,-0.037,-0.107,0.997,0.009,0.724,0.426,-0.055
735,0.003,0.032,-0.037,-0.11,0.996,0.01,0.738,0.426,-0.067
736,0.003,0.032,-0.037,-0.113,0.993,0.011,0.714,0.426,-0.045
737,0.006,0.025,-0.035,-0.116,0.992,0.012,0.714,0.426,-0.045
738,0.008,0.023,-0.036,-0.12,0.997,0.006,0.738,0.42,-0.063
739,0.01,0.016,-0.036,-0.121,1.003,0.005,0.723,0.426,-0.06
740,0.013,0.0,-0.035,-0.118,1.002,0.014,0.723,0.426,-0.06
741,0.016,-0.009,-0.032,-0.122,1.001,0.018,0.742,0.421,-0.057
742,0.018,-0.005,-0.028,-0.122,1.001,0.01,0.723,0.426,-0.046
743,0.02,0.0,-0.025,-0.115,1.004,0.005,0.735,0.436,-0.063
744,0.018,-0.004,-0.024,-0.107,1.006,0.01,0.732,0.423,-0.067
745,0.019,-0.013,-0.024,-0.102,1.01,0.016,0.723,0.426,-0.063
746,0.021,-0.014,-0.025,-0.103,1.015,0.02,0.729,0.439,-0.055
747,0.022,-0.015,-0.025,-0.099,1.016,0.023,0.729,0.439,-0.055
748,0.02,-0.015,-0.025,-0.095,1.015,0.024,0.724,0.417,-0.057
749,0.021,-0.009,-0.024,-0.095,1.011,0.022,0.732,0.418,-0.052
750,0.021,-0.004,-0.025,-0.09,1.005,0.021,0.72,0.435,-0.049
751,0.019,-0.006,-0.025,-0.09,1.005,0.021,0.714,0.424,-0.055
752,0.018,-0.002,-0.026,-0.088,1.002,0.023,0.726,0.426,-0.058
753,0.018,0.0,-0.028,-0.088,1.002,0.023,0.742,0.433,-0.061
754,0.018,0.001,-0.03,-0.086,0.999,0.018,0.742,0.433,-0.061
755,0.015,0.003,-0.027,-0.087,1.0,0.018,0.739,0.424,-0.057
756,0.015,0.003,-0.027,-0.092,1.005,0.019,0.732,0.414,-0.073
757,0.011,0.008,-0.023,-0.095,1.01,0.019,0.73,0.421,-0.06
758,0.009,0.014,-0.021,-0.096,1.012,0.019,0.718,0.433,-0.051
759,0.006,0.02,-0.018,-0.094,1.015,0.019,0.712,0.42,-0.075
760,0.004,0.019,-0.019,-0.089,1.016,0.021,0.73,0.427,-0.057
761,0.003,0.02,-0.023,-0.087,1.013,0.023,0.73,0.427,-0.057
762,0.004,0.024,-0.026,-0.085,1.012,0.021,0.718,0.415,-0.067
763,0.007,0.023,-0.028,-0.088,1.014,0.02,0.738,0.412,-0.058
764,0.008,0.025,-0.03,-0.091,1.012,0.022,0.721,0.42,-0.054
765,0.011,0.028,-0.031,-0.094,1.008,0.02,0.72,0.426,-0.067
766,0.014,0.031,-0.032,-0.095,1.006,0.018,0.735,0.405,-0.072
767,0.014,0.025,-0.032,-0.094,1.006,0.018,0.726,0.411,-0.067
768,0.014,0.021,-0.032,-0.096,1.008,0.021,0.726,0.411,-0.067
769,0.014,0.021,-0.031,-0.098,1.008,0.023,0.733,0.444,-0.049
770,0.014,0.024,-0.029,-0.095,1.006,0.028,0.724,0.417,-0.087
771,0.011,0.025,-0.025,-0.096,1.005,0.028,0.705,0.426,-0.061
772,0.009,0.03,-0.025,-0.096,1.005,0.028,0.705,0.426,-0.061
773,0.011,0.031,-0.025,-0.095,1.005,0.023,0.723,0.436,-0.049
774,0.011,0.03,-0.024,-0.093,1.004,0.023,0.712,0.424,-0.073
775,0.011,0.03,-0.024,-0.095,1.0,0.024,0.712,0.424,-0.073
776,0.009,0.033,-0.022,-0.098,0.998,0.021,0.726,0.42,-0.075
777,0.006,0.032,-0.02,-0.099,0.999,0.019,0.714,0.435,-0.067
778,0.003,0.028,-0.018,-0.1,1.001,0.022,0.711,0.423,-0.064
779,0.004,0.021,-0.02,-0.104,1.004,0.025,0.703,0.423,-0.069
780,0.007,0.014,-0.021,-0.109,1.007,0.027,0.73,0.424,-0.058
781,0.009,0.017,-0.017,-0.108,1.007,0.029,0.714,0.438,-0.057
782,0.01,0.023,-0.013,-0.105,1.006,0.027,0.714,0.438,-0.057
783,0.009,0.024,-0.011,-0.099,1.006,0.023,0.712,0.436,-0.055
784,0.01,0.02,-0.011,-0.096,1.007,0.024,0.714,0.421,-0.06
785,0.009,0.014,-0.011,-0.098,1.008,0.028,0.724,0.426,-0.064
786,0.013,0.012,-0.01,-0.101,1.008,0.03,0.724,0.426,-0.064
787,0.011,0.014,-0.009,-0.101,1.007,0.031,0.714,0.426,-0.051
788,0.008,0.011,-0.009,-0.099,1.004,0.029,0.724,0.415,-0.064
789,0.004,0.003,-0.009,-0.099,1.002,0.029,0.724,0.415,-0.064
790,0.004,0.0,-0.012,-0.099,1.004,0.031,0.723,0.42,-0.066
791,0.007,0.0,-0.012,-0.099,1.004,0.031,0.738,0.432,-0.066
792,0.009,-0.004,-0.011,-0.101,1.006,0.03,0.708,0.424,-0.058
793,0.007,0.0,-0.009,-0.101,1.008,0.031,0.73,0.424,-0.054
794,0.007,-0.001,-0.008,-0.099,1.009,0.031,0.699,0.441,-0.081
795,0.007,-0.001,-0.008,-0.097,1.006,0.03,0.717,0.417,-0.07
796,0.009,-0.002,-0.008,-0.094,1.004,0.03,0.717,0.417,-0.07
797,0.009,-0.006,-0.007,-0.093,1.004,0.029,0.723,0.427,-0.076
798,0.011,-0.007,-0.006,-0.096,1.009,0.03,0.729,0.414,-0.073
799,0.012,-0.004,-0.005,-0.099,1.014,0.028,0.703,0.429,-0.054
800,0.012,-0.002,-0.002,-0.098,1.011,0.026,0.703,0.429,-0.054
801,0.012,0.0,-0.002,-0.095,1.008,0.027,0.708,0.42,-0.055
802,0.014,0.0,-0.001,-0.093,1.006,0.028,0.715,0.432,-0.064
803,0.016,-0.002,-0.002,-0.091,1.008,0.03,0.715,0.432,-0.064
804,0.015,-0.004,-0.002,-0.092,1.009,0.031,0.721,0.421,-0.046
805,0.014,-0.002,-0.002,-0.094,1.006,0.031,0.724,0.426,-0.072
806,0.016,0.002,-0.002,-0.093,1.004,0.027,0.733,0.429,-0.069
807,0.011,0.01,-0.002,-0.09,1.005,0.026,0.717,0.438,-0.061
808,0.009,0.014,-0.002,-0.087,1.006,0.025,0.73,0.436,-0.072
809,0.007,0.018,-0.002,-0.086,1.007,0.023,0.733,0.43,-0.081
810,0.011,0.02,-0.004,-0.086,1.007,0.023,0.733,0.43,-0.081
811,0.013,0.021,-0.006,-0.088,1.006,0.025,0.727,0.421,-0.075
812,0.016,0.024,-0.007,-0.09,1.005,0.029,0.721,0.444,-0.067
813,0.017,0.026,-0.007,-0.093,1.005,0.027,0.7,0.415,-0.069
814,0.018,0.028,-0.007,-0.097,1.004,0.028,0.727,0.433,-0.058
815,0.018,0.028,-0.007,-0.099,1.002,0.029,0.714,0.432,-0.067
816,0.016,0.026,-0.007,-0.1,1.004,0.03,0.741,0.421,-0.067
817,0.017,0.024,-0.006,-0.102,1.008,0.035,0.741,0.421,-0.067
818,0.016,0.022,-0.004,-0.104,1.012,0.037,0.738,0.417,-0.057
819,0.016,0.026,-0.004,-0.104,1.011,0.033,0.718,0.427,-0.06
820,0.016,0.036,-0.005,-0.104,1.009,0.031,0.724,0.442,-0.064
821,0.015,0.035,-0.006,-0.104,1.007,0.032,0.715,0.408,-0.064
822,0.013,0.031,-0.009,-0.103,1.006,0.031,0.73,0.426,-0.075
823,0.013,0.032,-0.01,-0.107,1.006,0.03,0.715,0.411,-0.082
824,0.012,0.03,-0.011,-0.11,1.005,0.034,0.715,0.411,-0.082
825,0.011,0.027,-0.009,-0.11,1.003,0.036,0.714,0.423,-0.066
826,0.01,0.025,-0.007,-0.109,1.004,0.033,0.732,0.406,-0.067
827,0.008,0.029,-0.006,-0.106,1.007,0.032,0.718,0.444,-0.052
828,0.009,0.023,-0.004,-0.106,1.008,0.031,0.718,0.442,-0.061
829,0.01,0.02,-0.002,-0.106,1.008,0.031,0.717,0.417,-0.081
830,0.009,0.023,-0.001,-0.107,1.005,0.028,0.718,0.409,-0.07
831,0.007,0.024,0.0,-0.11,0.999,0.028,0.718,0.409,-0.07
832,0.008,0.023,0.0,-0.108,0.997,0.03,0.718,0.424,-0.069
833,0.01,0.021,0.0,-0.104,0.999,0.031,0.724,0.429,-0.061
834,0.014,0.021,-0.002,-0.104,1.004,0.031,0.715,0.43,-0.07
835,0.014,0.021,-0.002,-0.105,1.008,0.031,0.714,0.415,-0.069
836,0.018,0.022,-0.002,-0.104,1.01,0.03,0.723,0.415,-0.075
837,0.021,0.018,-0.003,-0.102,1.009,0.029,0.73,0.411,-0.048
838,0.023,0.017,-0.002,-0.099,1.007,0.027,0.73,0.411,-0.048
839,0.023,0.016,-0.003,-0.099,1.005,0.026,0.721,0.417,-0.052
840,0.021,0.017,-0.002,-0.099,1.001,0.024,0.702,0.427,-0.079
841,0.015,0.016,-0.001,-0.101,1.0,0.025,0.72,0.426,-0.058
842,0.014,0.018,0.0,-0.104,1.001,0.028,0.718,0.429,-0.067
843,0.011,0.02,0.0,-0.109,1.002,0.029,0.73,0.424,-0.058
844,0.011,0.019,-0.002,-0.113,1.003,0.029,0.733,0.415,-0.072
845,0.013,0.019,-0.002,-0.116,1.004,0.031,0.733,0.415,-0.072
846,0.013,0.017,-0.003,-0.116,1.008,0.032,0.726,0.43,-0.066
847,0.011,0.011,-0.004,-0.117,1.009,0.03,0.729,0.439,-0.063
848,0.012,0.002,-0.01,-0.114,1.004,0.029,0.709,0.423,-0.055
849,0.014,-0.005,-0.011,-0.114,1.004,0.029,0.724,0.411,-0.066
850,0.013,-0.009,-0.011,-0.116,1.003,0.031,0.711,0.418,-0.078
851,0.009,-0.011,-0.011,-0.115,1.002,0.032,0.708,0.436,-0.073
852,0.009,-0.011,-0.011,-0.116,0.999,0.033,0.708,0.436,-0.073
853,0.006,-0.01,-0.01,-0.118,0.997,0.033,0.717,0.423,-0.079
854,0.002,-0.014,-0.009,-0.116,1.001,0.033,0.705,0.442,-0.054
855,0.001,-0.021,-0.009,-0.115,1.003,0.036,0.709,0.421,-0.049
856,-0.001,-0.026,-0.008,-0.114,1.003,0.036,0.703,0.43,-0.067
857,-0.002,-0.029,-0.007,-0.116,1.004,0.035,0.724,0.432,-0.073
858,-0.002,-0.032,-0.004,-0.116,1.002,0.036,0.72,0.429,-0.063
859,-0.004,-0.03,-0.002,-0.113,1.0,0.034,0.72,0.429,-0.063
860,-0.009,-0.03,0.0,-0.112,0.999,0.03,0.736,0.426,-0.054
861,-0.012,-0.038,0.002,-0.11,0.999,0.03,0.703,0.423,-0.037
862,-0.014,-0.028,0.003,-0.109,1.0,0.031,0.703,0.423,-0.037
863,-0.014,-0.021,0.004,-0.11,1.0,0.029,0.712,0.43,-0.072
864,-0.014,-0.02,0.004,-0.11,1.003,0.024,0.727,0.411,-0.043
865,-0.011,-0.021,0.003,-0.111,1.007,0.023,0.718,0.409,-0.058
866,-0.008,-0.018,0.002,-0.108,1.009,0.025,0.717,0.421,-0.055
867,-0.005,-0.016,0.002,-0.105,1.011,0.025,0.717,0.421,-0.055
868,-0.005,-0.007,-0.001,-0.105,1.012,0.027,0.702,0.43,-0.045
869,-0.003,-0.009,-0.001,-0.105,1.012,0.027,0.711,0.436,-0.049
870,-0.003,-0.012,0.0,-0.102,1.013,0.027,0.724,0.436,-0.061
871,-0.002,-0.01,0.0,-0.102,1.012,0.028,0.739,0.417,-0.058
872,-0.002,-0.01,0.0,-0.105,1.008,0.029,0.736,0.429,-0.057
873,0.002,-0.003,-0.002,-0.106,1.006,0.024,0.736,0.429,-0.057
874,0.007,0.002,-0.001,-0.108,1.009,0.023,0.72,0.435,-0.06
875,0.005,0.004,0.0,-0.111,1.011,0.027,0.709,0.423,-0.049
876,0.004,0.005,-0.001,-0.111,1.008,0.026,0.709,0.423,-0.049
877,0.002,0.001,-0.002,-0.109,1.004,0.024,0.741,0.427,-0.063
878,0.002,0.0,-0.004,-0.108,1.003,0.025,0.714,0.435,-0.058
879,0.001,-0.001,-0.003,-0.11,1.005,0.028,0.706,0.429,-0.043
880,0.0,0.0,-0.002,-0.111,1.006,0.03,0.706,0.429,-0.043
881,0.001,0.003,-0.002,-0.111,1.007,0.032,0.712,0.42,-0.084
882,0.0,0.007,-0.002,-0.114,1.008,0.031,0.741,0.421,-0.058
883,0.0,0.009,-0.001,-0.114,1.008,0.03,0.726,0.411,-0.061
884,0.003,0.008,-0.002,-0.115,1.008,0.027,0.729,0.427,-0.057
885,0.004,0.005,-0.004,-0.114,1.006,0.028,0.729,0.42,-0.055
886,0.005,0.003,-0.006,-0.114,1.004,0.032,0.732,0.445,-0.057
887,0.005,-0.002,-0.007,-0.112,1.005,0.034,0.726,0.417,-0.075
888,0.005,-0.009,-0.008,-0.112,1.005,0.034,0.726,0.417,-0.075
889,0.006,-0.011,-0.01,-0.112,1.006,0.034,0.712,0.399,-0.057
890,0.004,-0.01,-0.009,-0.114,1.004,0.031,0.712,0.399,-0.057
891,0.005,-0.007,-0.007,-0.113,1.003,0.033,0.72,0.417,-0.054
892,0.005,0.0,-0.006,-0.112,1.005,0.035,0.739,0.436,-0.061
893,0.005,0.0,-0.006,-0.112,1.003,0.035,0.736,0.421,-0.072
894,0.005,0.004,-0.003,-0.114,1.001,0.034,0.736,0.421,-0.072
895,0.006,0.006,-0.001,-0.115,1.003,0.033,0.705,0.427,-0.042
896,0.006,0.005,-0.003,-0.113,1.001,0.032,0.721,0.439,-0.07
897,0.006,0.0,-0.007,-0.116,1.003,0.034,0.712,0.43,-0.078
898,0.009,-0.007,-0.009,-0.116,1.006,0.039,0.714,0.421,-0.049
899,0.008,-0.014,-0.01,-0.115,1.006,0.04,0.709,0.435,-0.081
900,0.008,-0.015,-0.011,-0.116,1.006,0.036,0.721,0.43,-0.051
901,0.009,-0.012,-0.009,-0.113,1.009,0.038,0.721,0.43,-0.051
902,0.007,-0.009,-0.007,-0.113,1.004,0.04,0.742,0.423,-0.066
903,0.006,-0.009,-0.007,-0.114,1.0,0.037,0.724,0.42,-0.042
904,0.004,-0.006,-0.008,-0.113,1.0,0.035,0.724,0.42,-0.042
905,0.004,-0.009,-0.009,-0.111,1.002,0.036,0.73,0.427,-0.075
906,0.004,-0.012,-0.011,-0.111,1.006,0.035,0.729,0.441,-0.066
907,0.002,-0.016,-0.011,-0.111,1.006,0.035,0.733,0.444,-0.079
908,0.002,-0.017,-0.013,-0.112,1.003,0.035,0.7,0.439,-0.063
909,0.0,-0.018,-0.013,-0.112,1.0,0.038,0.7,0.439,-0.063
910,-0.001,-0.015,-0.011,-0.114,1.0,0.037,0.721,0.433,-0.066
911,-0.001,-0.011,-0.01,-0.116,1.002,0.032,0.715,0.43,-0.063
912,-0.001,-0.011,-0.01,-0.114,1.004,0.031,0.735,0.433,-0.087
913,-0.003,-0.007,-0.009,-0.112,1.008,0.033,0.733,0.415,-0.067
914,-0.004,-0.002,-0.007,-0.111,1.009,0.032,0.708,0.427,-0.052
915,-0.003,-0.001,-0.007,-0.113,1.004,0.032,0.708,0.427,-0.052
916,0.0,0.004,-0.009,-0.111,1.005,0.032,0.714,0.435,-0.06
917,-0.004,0.001,-0.009,-0.109,1.007,0.029,0.715,0.424,-0.055
918,0.0,0.0,-0.009,-0.111,1.006,0.029,0.715,0.424,-0.055
919,0.0,-0.002,-0.01,-0.113,1.006,0.032,0.712,0.418,-0.078
920,0.001,0.0,-0.01,-0.114,1.005,0.03,0.715,0.436,-0.067
921,0.002,0.002,-0.009,-0.11,1.001,0.029,0.738,0.426,-0.054
922,0.002,0.004,-0.011,-0.109,0.998,0.033,0.726,0.417,-0.057
923,0.003,0.006,-0.009,-0.112,0.999,0.034,0.726,0.417,-0.057
924,0.002,0.004,-0.007,-0.114,1.002,0.034,0.708,0.403,-0.039
925,0.001,0.007,-0.007,-0.116,1.003,0.036,0.708,0.403,-0.039
926,0.001,0.002,-0.006,-0.116,1.005,0.036,0.723,0.426,-0.07
927,0.0,0.002,-0.008,-0.116,1.005,0.036,0.735,0.414,-0.076
928,0.001,0.003,-0.011,-0.118,1.007,0.031,0.714,0.411,-0.064
929,0.004,0.004,-0.011,-0.12,1.005,0.026,0.714,0.411,-0.064
930,0.007,0.006,-0.014,-0.122,1.006,0.03,0.714,0.444,-0.066
931,0.005,0.005,-0.015,-0.124,1.006,0.035,0.705,0.421,-0.048
932,0.005,0.005,-0.015,-0.122,1.004,0.036,0.735,0.426,-0.06
933,0.007,0.002,-0.016,-0.117,1.004,0.036,0.732,0.432,-0.069
934,0.01,0.0,-0.016,-0.115,1.005,0.037,0.72,0.427,-0.069
935,0.01,-0.001,-0.016,-0.116,1.004,0.035,0.73,0.424,-0.087
936,0.011,-0.002,-0.015,-0.115,1.003,0.035,0.73,0.424,-0.087
937,0.011,-0.005,-0.015,-0.114,1.003,0.035,0.733,0.423,-0.069
938,0.008,0.0,-0.015,-0.115,1.007,0.036,0.721,0.426,-0.052
939,0.008,-0.004,-0.01,-0.114,1.006,0.037,0.721,0.426,-0.052
940,0.007,-0.006,-0.007,-0.111,1.006,0.036,0.729,0.429,-0.075
941,0.004,-0.007,-0.007,-0.109,1.006,0.037,0.72,0.412,-0.073
942,0.002,-0.004,-0.006,-0.109,1.003,0.032,0.732,0.432,-0.054
943,0.001,-0.002,-0.008,-0.11,1.003,0.03,0.73,0.423,-0.07
944,0.0,0.0,-0.007,-0.111,1.001,0.03,0.73,0.423,-0.07
945,0.002,0.004,-0.009,-0.109,1.001,0.028,0.73,0.426,-0.064
946,0.001,0.002,-0.011,-0.112,1.005,0.025,0.712,0.426,-0.061
947,0.001,0.0,-0.013,-0.112,1.005,0.025,0.721,0.438,-0.069
948,0.002,-0.001,-0.014,-0.114,1.007,0.028,0.738,0.427,-0.04
949,0.004,0.0,-0.014,-0.113,1.006,0.032,0.732,0.42,-0.075
950,0.004,0.0,-0.013,-0.113,1.004,0.032,0.732,0.42,-0.075
951,0.004,0.003,-0.011,-0.111,1.003,0.032,0.735,0.432,-0.048
952,0.004,0.003,-0.011,-0.113,1.003,0.031,0.705,0.397,-0.051
953,0.004,0.004,-0.011,-0.112,1.002,0.031,0.705,0.397,-0.051
954,0.003,0.002,-0.008,-0.113,1.001,0.036,0.724,0.435,-0.054
955,0.003,0.001,-0.007,-0.113,1.002,0.036,0.715,0.414,-0.07
956,0.004,0.003,-0.004,-0.113,1.003,0.035,0.72,0.415,-0.064
957,0.006,0.002,-0.004,-0.116,1.004,0.035,0.72,0.415,-0.064
958,0.007,-0.001,-0.004,-0.119,1.005,0.035,0.729,0.421,-0.054
959,0.008,-0.009,-0.005,-0.117,1.004,0.033,0.714,0.43,-0.063
960,0.011,-0.006,-0.007,-0.113,1.003,0.032,0.727,0.435,-0.063
961,0.014,-0.007,-0.01,-0.111,1.004,0.037,0.711,0.417,-0.081
962,0.012,-0.008,-0.011,-0.111,1.005,0.037,0.723,0.43,-0.063
963,0.013,-0.007,-0.012,-0.111,1.005,0.036,0.736,0.412,-0.07
964,0.012,-0.009,-0.011,-0.11,1.006,0.038,0.736,0.412,-0.07
965,0.011,-0.011,-0.01,-0.112,1.007,0.038,0.736,0.421,-0.073
966,0.012,-0.009,-0.007,-0.112,1.005,0.037,0.718,0.439,-0.055
967,0.007,-0.006,-0.006,-0.112,1.002,0.035,0.721,0.421,-0.061
968,0.003,-0.004,-0.005,-0.11,1.002,0.035,0.714,0.414,-0.072
969,0.001,-0.005,-0.007,-0.109,1.002,0.034,0.727,0.436,-0.07
970,0.001,-0.005,-0.007,-0.108,1.002,0.032,0.708,0.429,-0.066
971,0.003,-0.011,-0.008,-0.106,1.003,0.034,0.708,0.429,-0.066
972,0.005,-0.01,-0.009,-0.106,1.004,0.037,0.711,0.426,-0.085
973,0.007,-0.007,-0.009,-0.109,1.004,0.038,0.73,0.439,-0.067
974,0.006,0.0,-0.009,-0.11,1.003,0.035,0.709,0.424,-0.063
975,0.006,0.0,-0.007,-0.109,1.006,0.032,0.717,0.436,-0.058
976,0.007,0.0,-0.008,-0.106,1.009,0.034,0.711,0.423,-0.066
977,0.006,-0.002,-0.008,-0.104,1.009,0.036,0.727,0.402,-0.052
978,0.005,-0.004,-0.009,-0.104,1.006,0.035,0.727,0.402,-0.052
979,0.007,-0.004,-0.008,-0.106,1.005,0.038,0.73,0.42,-0.069
980,0.009,-0.009,-0.006,-0.107,1.003,0.038,0.72,0.447,-0.033
981,0.01,-0.002,-0.008,-0.105,1.003,0.032,0.72,0.447,-0.033
982,0.01,0.002,-0.009,-0.105,1.005,0.031,0.724,0.418,-0.084
983,0.009,0.003,-0.009,-0.106,1.005,0.034,0.715,0.415,-0.064
984,0.01,0.003,-0.009,-0.106,1.005,0.035,0.721,0.417,-0.064
985,0.009,0.0,-0.011,-0.106,1.005,0.035,0.702,0.432,-0.066
986,0.009,0.0,-0.013,-0.107,1.003,0.037,0.702,0.432,-0.066
987,0.008,0.004,-0.011,-0.109,1.004,0.039,0.736,0.415,-0.078
988,0.009,0.004,-0.011,-0.11,1.006,0.04,0.73,0.423,-0.051
989,0.008,0.005,-0.009,-0.112,1.006,0.039,0.717,0.436,-0.073
990,0.008,0.005,-0.009,-0.111,1.007,0.037,0.714,0.424,-0.064
991,0.006,0.004,-0.007,-0.109,1.006,0.038,0.724,0.43,-0.064
992,0.005,0.007,-0.007,-0.11,1.007,0.04,0.724,0.43,-0.064
993,0.005,0.007,-0.008,-0.111,1.005,0.04,0.706,0.418,-0.073
994,0.003,0.007,-0.007,-0.111,1.004,0.037,0.738,0.439,-0.039
995,0.001,0.006,-0.008,-0.111,1.004,0.035,0.738,0.439,-0.039
996,0.002,0.002,-0.009,-0.111,1.001,0.035,0.718,0.427,-0.067
997,0.006,0.0,-0.011,-0.112,1.002,0.035,0.73,0.415,-0.063
998,0.009,0.0,-0.011,-0.114,1.005,0.039,0.73,0.427,-0.081
999,0.009,0.001,-0.009,-0.115,1.006,0.04,0.73,0.427,-0.081
1000,0.01,0.001,-0.009,-0.113,1.006,0.04,0.735,0.438,-0.07
1001,0.009,0.011,-0.011,-0.114,1.005,0.038,0.721,0.424,-0.051
1002,0.007,0.0,-0.009,-0.113,1.004,0.039,0.721,0.424,-0.051
1003,0.005,-0.004,-0.009,-0.111,1.005,0.041,0.724,0.415,-0.072
1004,0.006,-0.004,-0.009,-0.112,1.006,0.039,0.717,0.429,-0.082
1005,0.007,-0.007,-0.009,-0.112,1.006,0.039,0.736,0.412,-0.07
1006,0.008,-0.004,-0.009,-0.112,1.005,0.037,0.736,0.412,-0.07
1007,0.007,-0.002,-0.009,-0.114,1.003,0.038,0.733,0.427,-0.073
1008,0.004,-0.005,-0.009,-0.112,1.001,0.038,0.705,0.423,-0.06
1009,0.004,-0.01,-0.01,-0.112,1.001,0.037,0.705,0.433,-0.049
1010,0.004,-0.01,-0.01,-0.111,1.003,0.041,0.723,0.426,-0.07
1011,0.006,-0.011,-0.011,-0.109,1.003,0.042,0.73,0.427,-0.049
1012,0.005,-0.008,-0.011,-0.109,1.003,0.04,0.729,0.426,-0.07
1013,0.005,-0.004,-0.009,-0.11,1.003,0.04,0.718,0.429,-0.067
1014,0.004,0.001,-0.008,-0.11,1.002,0.04,0.718,0.429,-0.067
1015,0.006,-0.002,-0.007,-0.108,1.005,0.041,0.706,0.418,-0.064
1016,0.004,-0.004,-0.009,-0.107,1.005,0.042,0.703,0.424,-0.057
1017,0.004,-0.009,-0.01,-0.108,1.007,0.043,0.721,0.421,-0.055
1018,0.004,-0.011,-0.01,-0.111,1.007,0.044,0.727,0.429,-0.078
1019,0.003,-0.011,-0.011,-0.113,1.005,0.045,0.717,0.436,-0.063
1020,0.002,-0.012,-0.01,-0.114,1.004,0.043,0.717,0.436,-0.063
1021,0.001,-0.011,-0.011,-0.115,1.001,0.041,0.711,0.424,-0.057
1022,0.001,-0.004,-0.011,-0.116,1.003,0.039,0.706,0.408,-0.061
1023,0.0,-0.009,-0.011,-0.115,1.005,0.038,0.697,0.43,-0.072
1024,0.0,-0.014,-0.012,-0.113,1.002,0.04,0.727,0.439,-0.058
1025,0.0,-0.016,-0.012,-0.113,1.002,0.04,0.727,0.427,-0.07
1026,0.0,-0.018,-0.013,-0.111,1.003,0.04,0.709,0.421,-0.054
1027,0.002,-0.018,-0.014,-0.11,1.006,0.038,0.706,0.418,-0.067
1028,0.004,-0.016,-0.014,-0.11,1.004,0.036,0.706,0.418,-0.067
1029,0.002,-0.011,-0.011,-0.11,1.004,0.038,0.709,0.42,-0.067
1030,0.002,-0.011,-0.011,-0.11,1.004,0.039,0.709,0.42,-0.067
1031,0.004,-0.007,-0.009,-0.108,1.003,0.04,0.732,0.429,-0.055
1032,0.004,-0.006,-0.008,-0.105,1.003,0.041,0.717,0.435,-0.078
1033,0.003,-0.002,-0.005,-0.102,1.004,0.041,0.732,0.436,-0.061
1034,0.002,0.0,-0.005,-0.101,1.006,0.042,0.73,0.426,-0.076
1035,0.002,0.004,-0.004,-0.102,1.006,0.043,0.73,0.426,-0.076
1036,0.007,0.007,-0.004,-0.105,1.007,0.045,0.729,0.429,-0.052
1037,0.011,0.007,-0.005,-0.103,1.009,0.041,0.72,0.414,-0.072
1038,0.014,0.007,-0.006,-0.104,1.009,0.036,0.732,0.42,-0.061
1039,0.014,0.004,-0.007,-0.108,1.005,0.032,0.72,0.427,-0.058
1040,0.014,0.005,-0.006,-0.11,1.003,0.026,0.724,0.427,-0.088
1041,0.013,0.007,-0.005,-0.11,1.003,0.027,0.724,0.427,-0.088
1042,0.012,0.007,-0.006,-0.107,1.002,0.034,0.708,0.417,-0.081
1043,0.01,0.002,-0.006,-0.108,1.001,0.036,0.697,0.418,-0.058
1044,0.011,0.002,-0.007,-0.11,1.002,0.038,0.697,0.418,-0.058
1045,0.011,0.0,-0.007,-0.11,1.002,0.038,0.741,0.429,-0.075
1046,0.009,0.0,-0.009,-0.109,1.006,0.04,0.729,0.42,-0.082
1047,0.008,0.001,-0.011,-0.107,1.006,0.043,0.705,0.435,-0.07
1048,0.007,0.004,-0.011,-0.104,1.005,0.043,0.705,0.423,-0.07
1049,0.007,0.004,-0.011,-0.103,1.004,0.039,0.705,0.423,-0.07
1050,0.006,0.005,-0.011,-0.105,1.004,0.037,0.72,0.423,-0.067
1051,0.002,0.007,-0.01,-0.106,1.005,0.04,0.726,0.436,-0.072
1052,0.002,0.007,-0.008,-0.108,1.008,0.041,0.718,0.417,-0.069
1053,0.001,0.011,-0.008,-0.109,1.006,0.039,0.724,0.418,-0.085
1054,0.0,0.013,-0.007,-0.109,1.006,0.04,0.727,0.426,-0.066
1055,0.0,0.014,-0.006,-0.108,1.006,0.041,0.729,0.439,-0.085
