,Gyroscope X (deg/s),Gyroscope Y (deg/s),Gyroscope Z (deg/s),Accelerometer X (g),Accelerometer Y (g),Accelerometer Z (g),Magnetometer X (G),Magnetometer Y (G),Magnetometer Z (G)
0,-0.002,0.011,-0.007,0.091,-0.976,0.062,0.382,-0.103,-0.399
1,-0.002,0.011,-0.007,0.091,-0.976,0.062,0.382,-0.103,-0.399
2,-0.002,0.011,-0.007,0.091,-0.976,0.062,0.382,-0.103,-0.399
3,-0.002,0.011,-0.007,0.091,-0.976,0.062,0.382,-0.103,-0.399
4,-0.001,0.009,-0.002,0.091,-0.976,0.062,0.382,-0.103,-0.399
5,-0.001,0.003,0.0,0.095,-0.976,0.062,0.369,-0.109,-0.424
6,-0.002,0.0,0.001,0.095,-0.976,0.062,0.375,-0.124,-0.408
7,-0.006,0.0,0.001,0.092,-0.979,0.059,0.385,-0.112,-0.397
8,-0.004,0.0,0.0,0.092,-0.981,0.057,0.372,-0.106,-0.426
9,-0.004,0.002,0.0,0.091,-0.979,0.059,0.379,-0.102,-0.429
10,-0.007,0.004,-0.002,0.089,-0.978,0.063,0.375,-0.105,-0.42
11,-0.011,0.007,-0.005,0.088,-0.977,0.067,0.375,-0.105,-0.42
12,-0.011,0.009,-0.007,0.091,-0.978,0.068,0.361,-0.12,-0.421
13,-0.011,0.007,-0.007,0.094,-0.98,0.064,0.363,-0.091,-0.421
14,-0.007,0.004,-0.004,0.094,-0.98,0.064,0.367,-0.096,-0.421
15,-0.007,0.004,-0.003,0.094,-0.98,0.059,0.352,-0.111,-0.394
16,-0.007,0.004,-0.002,0.094,-0.98,0.063,0.361,-0.12,-0.412
17,-0.006,0.002,-0.001,0.094,-0.979,0.064,0.352,-0.123,-0.402
18,-0.003,0.0,0.0,0.092,-0.977,0.062,0.352,-0.123,-0.402
19,-0.002,-0.003,0.0,0.091,-0.976,0.065,0.363,-0.111,-0.408
20,-0.002,-0.003,0.0,0.092,-0.976,0.064,0.378,-0.12,-0.429
21,-0.002,-0.003,0.0,0.091,-0.974,0.061,0.369,-0.109,-0.415
22,-0.006,-0.002,0.0,0.092,-0.975,0.062,0.372,-0.112,-0.426
23,-0.007,-0.002,0.0,0.092,-0.977,0.059,0.361,-0.105,-0.421
24,-0.006,0.0,0.0,0.088,-0.977,0.06,0.373,-0.111,-0.411
25,-0.005,-0.002,0.0,0.086,-0.978,0.066,0.373,-0.111,-0.411
26,-0.007,-0.001,0.0,0.09,-0.976,0.064,0.372,-0.091,-0.42
27,-0.009,0.001,-0.002,0.094,-0.972,0.061,0.348,-0.096,-0.412
28,-0.006,0.002,-0.002,0.099,-0.973,0.062,0.367,-0.103,-0.406
29,-0.009,0.001,0.0,0.103,-0.975,0.062,0.367,-0.103,-0.406
30,-0.007,0.002,0.0,0.099,-0.978,0.063,0.372,-0.118,-0.405
31,-0.002,0.002,0.001,0.096,-0.978,0.065,0.375,-0.112,-0.396
32,-0.001,0.001,0.001,0.096,-0.978,0.066,0.375,-0.112,-0.396
33,-0.004,-0.002,0.0,0.096,-0.977,0.065,0.358,-0.114,-0.423
34,-0.007,-0.002,0.0,0.095,-0.978,0.065,0.367,-0.114,-0.412
35,-0.005,0.0,0.0,0.095,-0.978,0.065,0.388,-0.117,-0.394
36,-0.004,0.004,0.0,0.094,-0.976,0.065,0.363,-0.103,-0.417
37,-0.004,0.007,0.0,0.094,-0.975,0.064,0.369,-0.1,-0.399
38,-0.004,0.007,0.0,0.094,-0.975,0.063,0.381,-0.099,-0.433
39,-0.004,0.007,0.0,0.095,-0.978,0.068,0.381,-0.099,-0.433
40,-0.005,0.004,0.0,0.1,-0.979,0.071,0.373,-0.109,-0.409
41,-0.007,0.0,0.002,0.1,-0.98,0.072,0.364,-0.094,-0.432
42,-0.007,-0.002,0.002,0.099,-0.98,0.071,0.357,-0.115,-0.402
43,-0.007,-0.004,0.0,0.096,-0.979,0.068,0.354,-0.094,-0.405
44,-0.007,-0.004,0.0,0.096,-0.977,0.065,0.367,-0.105,-0.424
45,-0.004,-0.003,0.0,0.098,-0.974,0.067,0.367,-0.108,-0.412
46,-0.003,-0.005,0.0,0.098,-0.973,0.071,0.367,-0.108,-0.412
47,0.0,-0.004,0.0,0.1,-0.974,0.072,0.378,-0.112,-0.418
48,0.002,-0.006,0.002,0.101,-0.975,0.07,0.37,-0.094,-0.418
49,0.003,-0.014,0.004,0.101,-0.974,0.065,0.375,-0.105,-0.412
50,0.004,-0.009,0.004,0.1,-0.971,0.065,0.375,-0.109,-0.417
51,0.004,-0.006,0.003,0.1,-0.973,0.069,0.37,-0.103,-0.42
52,0.004,-0.007,0.002,0.1,-0.976,0.068,0.352,-0.1,-0.402
53,0.002,-0.004,0.002,0.099,-0.979,0.067,0.352,-0.1,-0.402
54,0.0,-0.001,0.0,0.099,-0.982,0.066,0.376,-0.112,-0.415
55,0.0,0.0,-0.001,0.099,-0.982,0.066,0.372,-0.112,-0.418
56,-0.003,-0.004,0.0,0.1,-0.979,0.067,0.369,-0.1,-0.4
57,-0.004,-0.007,0.0,0.101,-0.976,0.068,0.372,-0.109,-0.417
58,-0.004,-0.008,0.0,0.101,-0.977,0.066,0.37,-0.103,-0.409
59,-0.004,-0.008,0.0,0.103,-0.978,0.065,0.369,-0.102,-0.412
60,-0.004,-0.004,0.0,0.104,-0.978,0.064,0.369,-0.102,-0.412
61,-0.003,0.0,0.0,0.103,-0.977,0.066,0.375,-0.094,-0.409
62,-0.002,0.0,0.0,0.104,-0.974,0.068,0.378,-0.118,-0.418
63,-0.002,-0.002,0.0,0.106,-0.974,0.066,0.363,-0.109,-0.397
64,0.0,0.0,0.0,0.106,-0.973,0.067,0.363,-0.109,-0.397
65,0.0,-0.002,0.001,0.104,-0.973,0.068,0.372,-0.103,-0.403
66,0.0,-0.002,0.001,0.102,-0.975,0.067,0.366,-0.093,-0.408
67,0.0,-0.002,0.001,0.102,-0.977,0.067,0.366,-0.093,-0.408
68,0.0,-0.002,0.001,0.101,-0.979,0.068,0.378,-0.1,-0.43
69,0.002,-0.001,0.0,0.1,-0.979,0.065,0.355,-0.108,-0.414
70,0.004,0.005,-0.001,0.098,-0.978,0.059,0.361,-0.108,-0.391
71,0.0,0.004,-0.001,0.098,-0.977,0.061,0.346,-0.112,-0.43
72,-0.002,0.001,-0.001,0.1,-0.975,0.063,0.364,-0.106,-0.426
73,-0.002,0.0,-0.002,0.1,-0.974,0.06,0.369,-0.1,-0.418
74,-0.002,0.001,-0.002,0.099,-0.974,0.061,0.369,-0.1,-0.418
75,-0.002,0.0,0.0,0.099,-0.974,0.061,0.372,-0.094,-0.403
76,0.0,0.0,0.0,0.099,-0.978,0.064,0.388,-0.112,-0.403
77,0.002,0.0,0.0,0.099,-0.981,0.066,0.345,-0.108,-0.396
78,0.0,0.0,0.0,0.1,-0.979,0.066,0.345,-0.108,-0.396
79,0.0,0.0,0.0,0.102,-0.979,0.065,0.364,-0.115,-0.405
80,0.0,-0.001,-0.002,0.099,-0.981,0.064,0.355,-0.124,-0.426
81,0.0,-0.002,-0.002,0.093,-0.98,0.061,0.355,-0.124,-0.426
82,-0.002,0.0,-0.003,0.093,-0.979,0.063,0.375,-0.096,-0.423
83,-0.002,-0.001,-0.004,0.097,-0.976,0.065,0.369,-0.109,-0.411
84,-0.002,-0.008,-0.004,0.098,-0.977,0.065,0.369,-0.088,-0.436
85,-0.004,-0.007,-0.003,0.096,-0.98,0.066,0.367,-0.106,-0.424
86,-0.004,-0.01,-0.002,0.095,-0.98,0.066,0.358,-0.115,-0.417
87,-0.003,-0.01,-0.002,0.096,-0.979,0.066,0.372,-0.1,-0.417
88,-0.003,-0.007,-0.002,0.098,-0.98,0.066,0.372,-0.1,-0.417
89,-0.002,-0.007,-0.001,0.099,-0.98,0.065,0.375,-0.123,-0.423
90,-0.001,-0.006,-0.002,0.099,-0.977,0.065,0.358,-0.109,-0.423
91,-0.002,-0.005,-0.002,0.097,-0.978,0.065,0.36,-0.085,-0.426
92,-0.004,-0.009,-0.002,0.097,-0.975,0.064,0.352,-0.102,-0.408
93,-0.004,-0.011,-0.003,0.097,-0.975,0.064,0.381,-0.111,-0.429
94,-0.004,-0.01,-0.003,0.096,-0.972,0.063,0.376,-0.118,-0.408
95,-0.004,-0.009,-0.003,0.095,-0.975,0.064,0.376,-0.118,-0.408
96,-0.004,-0.011,-0.002,0.098,-0.976,0.065,0.357,-0.106,-0.411
97,-0.003,-0.012,-0.002,0.102,-0.978,0.069,0.345,-0.094,-0.414
98,-0.004,-0.012,-0.002,0.104,-0.978,0.07,0.369,-0.099,-0.423
99,-0.004,-0.012,-0.002,0.103,-0.978,0.07,0.36,-0.109,-0.409
100,-0.004,-0.009,-0.003,0.103,-0.977,0.072,0.378,-0.103,-0.423
101,-0.006,-0.008,-0.004,0.104,-0.976,0.071,0.376,-0.114,-0.403
102,-0.007,-0.007,-0.004,0.105,-0.975,0.068,0.376,-0.114,-0.403
103,-0.007,-0.003,-0.004,0.105,-0.974,0.065,0.37,-0.096,-0.408
104,-0.007,-0.001,-0.004,0.106,-0.972,0.065,0.376,-0.109,-0.42
105,-0.005,-0.002,-0.004,0.109,-0.974,0.064,0.372,-0.097,-0.39
106,-0.004,0.0,-0.004,0.106,-0.977,0.066,0.373,-0.096,-0.418
107,-0.005,0.003,-0.005,0.102,-0.98,0.068,0.381,-0.099,-0.423
108,-0.007,0.002,-0.004,0.102,-0.979,0.071,0.378,-0.114,-0.421
109,-0.005,-0.002,-0.003,0.101,-0.978,0.073,0.369,-0.099,-0.426
110,-0.005,-0.004,-0.002,0.102,-0.979,0.072,0.369,-0.099,-0.426
111,-0.004,-0.006,-0.001,0.105,-0.978,0.068,0.37,-0.091,-0.415
112,-0.006,-0.007,-0.002,0.108,-0.976,0.066,0.361,-0.099,-0.432
113,-0.007,-0.004,-0.003,0.108,-0.976,0.067,0.355,-0.087,-0.402
114,-0.011,0.0,-0.004,0.108,-0.976,0.067,0.375,-0.112,-0.402
115,-0.011,0.006,-0.007,0.107,-0.977,0.067,0.361,-0.109,-0.417
116,-0.011,0.01,-0.008,0.106,-0.977,0.065,0.384,-0.103,-0.409
117,-0.009,0.008,-0.006,0.106,-0.975,0.065,0.384,-0.103,-0.409
118,-0.007,0.009,-0.006,0.104,-0.973,0.068,0.361,-0.105,-0.415
119,-0.007,0.009,-0.006,0.105,-0.974,0.068,0.354,-0.109,-0.396
120,-0.007,0.008,-0.004,0.107,-0.976,0.069,0.36,-0.105,-0.429
121,-0.005,0.005,-0.004,0.107,-0.977,0.072,0.36,-0.099,-0.412
122,-0.005,0.004,-0.005,0.111,-0.978,0.072,0.367,-0.1,-0.406
123,-0.005,0.004,-0.007,0.109,-0.977,0.072,0.364,-0.115,-0.436
124,-0.004,0.002,-0.007,0.104,-0.977,0.072,0.364,-0.115,-0.436
125,-0.004,0.002,-0.009,0.103,-0.976,0.07,0.379,-0.103,-0.42
126,-0.004,0.001,-0.009,0.103,-0.974,0.072,0.348,-0.1,-0.402
127,0.0,0.003,-0.009,0.103,-0.974,0.075,0.348,-0.1,-0.402
128,0.0,0.004,-0.009,0.106,-0.976,0.074,0.364,-0.096,-0.414
129,0.0,0.003,-0.008,0.11,-0.976,0.073,0.379,-0.114,-0.426
130,0.001,0.001,-0.008,0.107,-0.975,0.07,0.379,-0.118,-0.423
131,0.001,0.002,-0.007,0.107,-0.975,0.07,0.379,-0.118,-0.423
132,0.0,0.002,-0.006,0.108,-0.976,0.072,0.363,-0.112,-0.423
133,0.001,0.007,-0.007,0.108,-0.976,0.072,0.367,-0.103,-0.427
134,-0.002,0.004,-0.007,0.108,-0.975,0.071,0.354,-0.117,-0.409
135,-0.001,0.002,-0.007,0.106,-0.974,0.072,0.372,-0.108,-0.412
136,-0.003,-0.001,-0.007,0.106,-0.977,0.074,0.373,-0.094,-0.412
137,-0.004,0.0,-0.007,0.106,-0.979,0.074,0.373,-0.103,-0.415
138,-0.004,0.0,-0.007,0.105,-0.978,0.076,0.373,-0.103,-0.415
139,-0.004,0.0,-0.007,0.104,-0.977,0.079,0.366,-0.1,-0.432
140,-0.005,-0.001,-0.007,0.105,-0.98,0.077,0.354,-0.106,-0.412
141,-0.003,0.0,-0.008,0.106,-0.981,0.075,0.354,-0.106,-0.412
142,-0.002,0.001,-0.008,0.105,-0.978,0.073,0.363,-0.102,-0.418
143,-0.003,0.001,-0.009,0.105,-0.977,0.071,0.363,-0.106,-0.411
144,-0.004,0.007,-0.008,0.106,-0.977,0.075,0.375,-0.096,-0.439
145,-0.005,0.004,-0.006,0.105,-0.976,0.078,0.375,-0.096,-0.439
146,-0.005,0.0,-0.005,0.104,-0.976,0.078,0.379,-0.106,-0.421
147,-0.007,-0.004,-0.004,0.101,-0.975,0.077,0.372,-0.094,-0.405
148,-0.006,-0.002,-0.005,0.1,-0.974,0.074,0.357,-0.088,-0.405
149,-0.005,-0.001,-0.005,0.102,-0.974,0.074,0.378,-0.096,-0.406
150,-0.006,0.002,-0.006,0.104,-0.974,0.077,0.37,-0.1,-0.424
151,-0.006,0.002,-0.006,0.105,-0.973,0.077,0.367,-0.099,-0.411
152,-0.006,0.003,-0.007,0.104,-0.972,0.075,0.367,-0.099,-0.411
153,-0.004,0.001,-0.006,0.102,-0.975,0.073,0.376,-0.102,-0.421
154,-0.002,0.006,-0.007,0.102,-0.975,0.073,0.348,-0.099,-0.408
155,-0.002,0.008,-0.007,0.099,-0.977,0.071,0.37,-0.097,-0.409
156,-0.002,0.006,-0.007,0.1,-0.975,0.072,0.366,-0.102,-0.426
157,-0.001,0.0,-0.007,0.104,-0.973,0.078,0.378,-0.091,-0.412
158,-0.001,0.0,-0.007,0.105,-0.975,0.081,0.363,-0.099,-0.402
159,-0.001,-0.002,-0.007,0.107,-0.975,0.076,0.363,-0.099,-0.402
160,-0.001,0.001,-0.008,0.105,-0.974,0.073,0.367,-0.097,-0.421
161,0.0,0.007,-0.007,0.103,-0.973,0.074,0.37,-0.097,-0.412
162,0.0,0.008,-0.007,0.101,-0.974,0.074,0.361,-0.106,-0.408
163,0.0,0.006,-0.006,0.098,-0.976,0.076,0.37,-0.099,-0.439
164,-0.002,0.001,-0.004,0.099,-0.977,0.078,0.379,-0.096,-0.414
165,-0.002,-0.004,-0.003,0.102,-0.978,0.075,0.361,-0.102,-0.411
166,0.0,-0.005,-0.002,0.103,-0.98,0.071,0.361,-0.102,-0.411
167,-0.002,0.0,-0.004,0.102,-0.978,0.074,0.366,-0.097,-0.405
168,-0.004,0.006,-0.004,0.102,-0.975,0.081,0.367,-0.082,-0.4
169,-0.004,0.003,-0.004,0.104,-0.975,0.086,0.367,-0.096,-0.403
170,-0.008,0.0,-0.004,0.104,-0.975,0.082,0.372,-0.1,-0.409
171,-0.008,0.002,-0.004,0.102,-0.975,0.077,0.382,-0.102,-0.412
172,-0.005,0.002,-0.004,0.101,-0.973,0.074,0.376,-0.118,-0.424
173,-0.002,0.001,-0.005,0.099,-0.97,0.07,0.376,-0.118,-0.424
174,0.0,0.002,-0.005,0.099,-0.97,0.07,0.376,-0.109,-0.414
175,0.0,0.002,-0.006,0.099,-0.97,0.07,0.372,-0.111,-0.42
176,-0.002,0.0,-0.007,0.1,-0.972,0.079,0.381,-0.081,-0.409
177,-0.002,-0.005,-0.006,0.102,-0.973,0.089,0.369,-0.109,-0.414
178,-0.002,-0.005,-0.006,0.103,-0.975,0.086,0.373,-0.103,-0.414
179,-0.003,-0.006,-0.006,0.105,-0.978,0.081,0.388,-0.109,-0.391
180,-0.002,-0.001,-0.007,0.105,-0.98,0.079,0.388,-0.109,-0.391
181,0.0,-0.002,-0.006,0.106,-0.98,0.08,0.364,-0.096,-0.429
182,0.0,-0.002,-0.006,0.105,-0.973,0.08,0.37,-0.079,-0.399
183,-0.001,0.004,-0.007,0.105,-0.971,0.079,0.375,-0.105,-0.418
184,-0.002,0.004,-0.007,0.105,-0.973,0.082,0.382,-0.103,-0.409
185,-0.004,0.004,-0.009,0.103,-0.976,0.083,0.364,-0.102,-0.426
186,-0.004,0.004,-0.009,0.105,-0.976,0.083,0.358,-0.114,-0.411
187,-0.002,0.001,-0.007,0.106,-0.974,0.084,0.358,-0.114,-0.411
188,-0.003,-0.002,-0.005,0.104,-0.976,0.084,0.37,-0.105,-0.414
189,-0.004,-0.002,-0.005,0.105,-0.979,0.08,0.367,-0.103,-0.402
190,-0.005,-0.002,-0.006,0.105,-0.978,0.081,0.367,-0.103,-0.402
191,-0.005,0.0,-0.007,0.102,-0.977,0.084,0.354,-0.111,-0.408
192,-0.004,0.0,-0.006,0.102,-0.977,0.084,0.354,-0.097,-0.411
193,-0.004,0.003,-0.007,0.1,-0.974,0.085,0.364,-0.085,-0.42
194,-0.005,0.004,-0.008,0.101,-0.972,0.085,0.364,-0.085,-0.42
195,-0.005,0.0,-0.008,0.103,-0.972,0.083,0.382,-0.103,-0.423
196,-0.007,-0.006,-0.007,0.103,-0.974,0.083,0.367,-0.106,-0.414
197,-0.008,-0.002,-0.006,0.105,-0.976,0.082,0.361,-0.117,-0.415
198,-0.008,-0.002,-0.006,0.103,-0.978,0.082,0.378,-0.108,-0.424
199,-0.006,-0.002,-0.006,0.102,-0.974,0.08,0.375,-0.111,-0.402
200,-0.006,-0.003,-0.005,0.102,-0.973,0.081,0.369,-0.108,-0.433
201,-0.005,-0.001,-0.006,0.097,-0.974,0.081,0.369,-0.108,-0.433
202,-0.005,0.0,-0.007,0.096,-0.975,0.082,0.366,-0.102,-0.424
203,-0.005,-0.004,-0.007,0.101,-0.978,0.086,0.367,-0.096,-0.411
204,-0.007,-0.004,-0.007,0.103,-0.978,0.084,0.367,-0.096,-0.411
205,-0.006,-0.004,-0.007,0.103,-0.977,0.078,0.36,-0.105,-0.408
206,-0.004,-0.004,-0.008,0.103,-0.975,0.076,0.369,-0.094,-0.408
207,-0.002,-0.004,-0.009,0.101,-0.972,0.08,0.381,-0.111,-0.427
208,0.002,-0.004,-0.01,0.101,-0.971,0.083,0.381,-0.111,-0.427
209,0.002,-0.007,-0.009,0.105,-0.971,0.081,0.36,-0.111,-0.409
210,0.001,-0.004,-0.009,0.105,-0.974,0.081,0.379,-0.087,-0.426
211,0.004,-0.007,-0.006,0.106,-0.975,0.084,0.364,-0.105,-0.423
212,0.002,-0.011,-0.004,0.11,-0.974,0.084,0.373,-0.105,-0.429
213,0.002,-0.011,-0.002,0.11,-0.974,0.084,0.366,-0.109,-0.438
214,0.0,-0.01,-0.003,0.108,-0.974,0.082,0.375,-0.103,-0.418
215,0.0,-0.006,-0.004,0.101,-0.975,0.084,0.375,-0.103,-0.418
216,-0.002,-0.004,-0.006,0.102,-0.976,0.085,0.363,-0.1,-0.414
217,-0.003,-0.002,-0.007,0.104,-0.976,0.083,0.348,-0.111,-0.399
218,-0.003,-0.002,-0.007,0.105,-0.976,0.078,0.367,-0.106,-0.427
219,-0.003,-0.004,-0.007,0.105,-0.977,0.077,0.354,-0.094,-0.411
220,-0.002,-0.001,-0.008,0.104,-0.977,0.079,0.375,-0.096,-0.408
221,-0.002,-0.001,-0.008,0.104,-0.976,0.082,0.363,-0.102,-0.42
222,-0.002,0.0,-0.007,0.108,-0.975,0.083,0.363,-0.102,-0.42
223,0.0,-0.001,-0.007,0.107,-0.974,0.081,0.37,-0.097,-0.42
224,0.002,0.003,-0.007,0.104,-0.975,0.082,0.373,-0.108,-0.402
225,0.004,0.001,-0.007,0.103,-0.976,0.082,0.373,-0.108,-0.402
226,0.005,0.0,-0.008,0.102,-0.975,0.08,0.369,-0.112,-0.412
227,0.005,0.0,-0.008,0.102,-0.973,0.081,0.361,-0.102,-0.421
228,0.004,-0.001,-0.007,0.101,-0.973,0.085,0.366,-0.097,-0.426
229,0.003,-0.003,-0.007,0.101,-0.975,0.085,0.384,-0.1,-0.426
230,0.001,-0.007,-0.006,0.102,-0.976,0.081,0.384,-0.1,-0.426
231,0.004,-0.004,-0.007,0.102,-0.978,0.076,0.369,-0.093,-0.406
232,0.005,-0.003,-0.007,0.102,-0.977,0.076,0.354,-0.103,-0.417
233,0.005,-0.002,-0.007,0.102,-0.977,0.076,0.367,-0.105,-0.435
234,0.002,-0.002,-0.007,0.105,-0.975,0.081,0.364,-0.093,-0.421
235,0.001,-0.002,-0.007,0.106,-0.973,0.081,0.361,-0.111,-0.429
236,0.001,-0.002,-0.007,0.105,-0.974,0.08,0.352,-0.12,-0.415
237,0.0,-0.002,-0.007,0.107,-0.975,0.083,0.352,-0.12,-0.415
238,0.0,-0.003,-0.006,0.106,-0.975,0.085,0.351,-0.1,-0.409
239,0.002,-0.003,-0.005,0.103,-0.976,0.082,0.351,-0.1,-0.409
240,0.002,0.0,-0.006,0.103,-0.976,0.079,0.382,-0.106,-0.429
241,0.004,0.002,-0.005,0.104,-0.975,0.085,0.36,-0.111,-0.433
242,0.002,-0.002,-0.005,0.106,-0.977,0.088,0.363,-0.118,-0.418
243,0.001,0.0,-0.006,0.103,-0.979,0.086,0.373,-0.09,-0.42
244,0.003,0.004,-0.007,0.101,-0.976,0.084,0.373,-0.09,-0.42
245,0.003,0.004,-0.007,0.104,-0.975,0.083,0.36,-0.111,-0.423
246,0.002,0.008,-0.007,0.105,-0.975,0.083,0.37,-0.111,-0.412
247,0.003,0.007,-0.007,0.103,-0.975,0.082,0.363,-0.084,-0.411
248,0.002,0.005,-0.007,0.101,-0.975,0.081,0.361,-0.115,-0.423
249,0.003,0.004,-0.007,0.1,-0.974,0.081,0.355,-0.106,-0.427
250,0.004,0.002,-0.007,0.1,-0.975,0.08,0.369,-0.12,-0.424
251,0.003,0.002,-0.007,0.099,-0.976,0.079,0.369,-0.12,-0.424
252,0.002,0.006,-0.007,0.099,-0.974,0.084,0.369,-0.109,-0.424
253,0.002,0.004,-0.007,0.1,-0.974,0.084,0.369,-0.109,-0.424
254,0.0,0.002,-0.004,0.102,-0.977,0.089,0.384,-0.117,-0.429
255,-0.001,0.0,-0.004,0.104,-0.982,0.088,0.363,-0.102,-0.415
256,0.0,0.001,-0.004,0.104,-0.981,0.081,0.369,-0.118,-0.403
257,0.0,0.001,-0.004,0.101,-0.977,0.077,0.364,-0.105,-0.42
258,0.0,0.003,-0.004,0.099,-0.975,0.08,0.364,-0.105,-0.42
259,0.0,0.002,-0.004,0.101,-0.975,0.084,0.367,-0.108,-0.387
260,0.0,-0.002,-0.004,0.102,-0.974,0.085,0.372,-0.118,-0.427
261,-0.002,-0.004,-0.005,0.102,-0.974,0.084,0.375,-0.103,-0.436
262,-0.004,-0.007,-0.005,0.104,-0.977,0.083,0.355,-0.114,-0.421
263,-0.002,-0.001,-0.007,0.104,-0.977,0.083,0.37,-0.12,-0.406
264,-0.002,0.002,-0.008,0.102,-0.974,0.085,0.354,-0.097,-0.405
265,-0.001,0.0,-0.007,0.1,-0.975,0.084,0.354,-0.097,-0.405
266,0.0,-0.008,-0.006,0.101,-0.976,0.082,0.357,-0.1,-0.405
267,0.0,-0.004,-0.005,0.103,-0.975,0.081,0.357,-0.1,-0.405
268,0.004,-0.004,-0.007,0.1,-0.976,0.079,0.382,-0.099,-0.415
269,0.005,-0.003,-0.005,0.1,-0.976,0.08,0.378,-0.1,-0.418
270,0.003,-0.002,-0.007,0.103,-0.972,0.084,0.384,-0.096,-0.406
271,0.002,-0.002,-0.006,0.104,-0.971,0.085,0.372,-0.105,-0.409
272,0.0,-0.002,-0.007,0.104,-0.971,0.085,0.372,-0.105,-0.409
273,0.003,-0.002,-0.007,0.103,-0.975,0.082,0.361,-0.099,-0.429
274,0.003,0.001,-0.007,0.102,-0.976,0.08,0.373,-0.09,-0.406
275,0.003,0.0,-0.007,0.103,-0.978,0.082,0.363,-0.097,-0.426
276,0.002,-0.002,-0.007,0.103,-0.978,0.082,0.364,-0.111,-0.418
277,0.002,-0.002,-0.007,0.102,-0.977,0.082,0.394,-0.109,-0.43
278,0.0,-0.006,-0.007,0.103,-0.976,0.084,0.355,-0.099,-0.424
279,0.001,-0.007,-0.007,0.102,-0.975,0.083,0.355,-0.099,-0.424
280,0.002,-0.009,-0.007,0.101,-0.976,0.082,0.364,-0.105,-0.405
281,0.0,-0.007,-0.006,0.1,-0.975,0.082,0.357,-0.096,-0.411
282,0.0,-0.004,-0.007,0.103,-0.974,0.083,0.373,-0.091,-0.414
283,0.0,-0.006,-0.006,0.106,-0.975,0.084,0.382,-0.099,-0.417
284,0.0,-0.005,-0.006,0.106,-0.974,0.08,0.367,-0.108,-0.436
285,0.0,-0.004,-0.006,0.105,-0.971,0.075,0.37,-0.117,-0.441
286,0.0,0.001,-0.007,0.103,-0.972,0.078,0.37,-0.117,-0.441
287,0.003,0.002,-0.007,0.103,-0.974,0.083,0.369,-0.106,-0.415
288,0.004,-0.001,-0.005,0.105,-0.974,0.084,0.369,-0.106,-0.415
289,0.003,-0.003,-0.006,0.105,-0.975,0.08,0.361,-0.114,-0.414
290,0.004,-0.002,-0.009,0.108,-0.975,0.081,0.36,-0.121,-0.414
291,0.007,0.0,-0.009,0.108,-0.975,0.081,0.364,-0.109,-0.415
292,0.007,-0.001,-0.009,0.106,-0.973,0.085,0.369,-0.103,-0.417
293,0.007,0.0,-0.009,0.105,-0.974,0.085,0.369,-0.103,-0.417
294,0.009,0.0,-0.008,0.108,-0.975,0.085,0.367,-0.078,-0.415
295,0.009,-0.002,-0.007,0.109,-0.975,0.086,0.355,-0.097,-0.417
296,0.009,-0.004,-0.006,0.109,-0.976,0.085,0.349,-0.103,-0.435
297,0.009,-0.004,-0.006,0.107,-0.977,0.083,0.388,-0.111,-0.435
298,0.009,-0.004,-0.005,0.107,-0.975,0.082,0.376,-0.097,-0.411
299,0.009,-0.004,-0.006,0.109,-0.974,0.081,0.378,-0.088,-0.418
300,0.009,0.002,-0.007,0.107,-0.976,0.08,0.378,-0.088,-0.418
301,0.009,0.004,-0.006,0.105,-0.977,0.081,0.348,-0.1,-0.403
302,0.007,0.004,-0.008,0.105,-0.978,0.082,0.348,-0.1,-0.403
303,0.007,0.004,-0.009,0.105,-0.977,0.082,0.373,-0.102,-0.408
304,0.005,0.002,-0.009,0.107,-0.975,0.082,0.37,-0.108,-0.424
305,0.003,0.002,-0.008,0.106,-0.975,0.081,0.37,-0.099,-0.429
306,0.003,0.004,-0.008,0.103,-0.976,0.08,0.36,-0.108,-0.426
307,0.003,0.003,-0.008,0.104,-0.979,0.08,0.36,-0.108,-0.426
308,0.004,0.007,-0.009,0.105,-0.979,0.083,0.367,-0.091,-0.427
309,0.003,0.002,-0.007,0.106,-0.976,0.083,0.357,-0.096,-0.436
310,0.004,-0.002,-0.006,0.106,-0.978,0.08,0.354,-0.106,-0.421
311,0.002,-0.004,-0.005,0.104,-0.979,0.08,0.37,-0.099,-0.411
312,0.002,-0.004,-0.006,0.104,-0.979,0.08,0.366,-0.099,-0.403
313,0.002,-0.003,-0.007,0.102,-0.976,0.08,0.363,-0.088,-0.427
314,0.001,-0.004,-0.006,0.104,-0.975,0.081,0.363,-0.088,-0.427
315,0.002,-0.005,-0.005,0.104,-0.976,0.081,0.361,-0.094,-0.411
316,0.002,-0.005,-0.005,0.105,-0.975,0.075,0.361,-0.094,-0.411
317,0.0,-0.001,-0.006,0.107,-0.974,0.073,0.36,-0.115,-0.421
318,0.0,0.001,-0.007,0.106,-0.974,0.077,0.363,-0.103,-0.426
319,0.0,0.004,-0.008,0.106,-0.976,0.081,0.376,-0.109,-0.432
320,0.0,0.002,-0.008,0.105,-0.977,0.082,0.361,-0.099,-0.415
321,-0.002,0.002,-0.009,0.102,-0.975,0.082,0.361,-0.099,-0.415
322,-0.001,0.0,-0.009,0.102,-0.975,0.082,0.363,-0.09,-0.424
323,-0.002,-0.002,-0.008,0.102,-0.977,0.083,0.366,-0.112,-0.406
324,-0.003,-0.003,-0.008,0.102,-0.973,0.079,0.352,-0.108,-0.424
325,-0.003,-0.002,-0.007,0.101,-0.972,0.077,0.373,-0.105,-0.426
326,-0.002,-0.002,-0.007,0.1,-0.976,0.079,0.379,-0.103,-0.454
327,0.0,0.0,-0.008,0.1,-0.975,0.079,0.37,-0.1,-0.409
328,0.001,0.007,-0.009,0.098,-0.975,0.078,0.37,-0.1,-0.409
329,0.001,0.014,-0.009,0.101,-0.977,0.08,0.354,-0.109,-0.43
330,0.002,0.011,-0.009,0.106,-0.975,0.083,0.354,-0.109,-0.43
331,0.0,0.006,-0.008,0.106,-0.973,0.083,0.37,-0.096,-0.417
332,-0.002,0.004,-0.007,0.108,-0.973,0.083,0.373,-0.088,-0.415
333,-0.001,0.004,-0.008,0.108,-0.974,0.08,0.366,-0.091,-0.43
334,0.0,0.005,-0.008,0.104,-0.975,0.076,0.373,-0.108,-0.412
335,0.0,0.005,-0.008,0.102,-0.975,0.075,0.373,-0.108,-0.412
336,0.0,0.005,-0.008,0.102,-0.975,0.079,0.372,-0.103,-0.418
337,0.0,0.003,-0.008,0.105,-0.977,0.084,0.372,-0.103,-0.418
338,-0.004,0.005,-0.009,0.106,-0.977,0.084,0.363,-0.097,-0.423
339,-0.004,0.007,-0.009,0.1,-0.974,0.079,0.367,-0.093,-0.43
340,-0.001,0.009,-0.009,0.097,-0.974,0.073,0.381,-0.1,-0.421
341,0.0,0.015,-0.009,0.097,-0.976,0.075,0.369,-0.099,-0.432
342,0.001,0.021,-0.01,0.098,-0.976,0.081,0.369,-0.099,-0.432
343,0.0,0.002,-0.007,0.101,-0.975,0.082,0.358,-0.099,-0.408
344,0.0,0.001,-0.006,0.1,-0.974,0.081,0.358,-0.091,-0.411
345,0.0,0.004,-0.007,0.102,-0.975,0.078,0.366,-0.093,-0.441
346,0.002,0.006,-0.007,0.103,-0.975,0.074,0.364,-0.103,-0.427
347,0.004,0.01,-0.009,0.1,-0.975,0.074,0.369,-0.106,-0.438
348,0.004,0.014,-0.01,0.099,-0.973,0.078,0.369,-0.106,-0.438
349,0.004,0.017,-0.012,0.1,-0.973,0.08,0.375,-0.096,-0.433
350,0.005,0.017,-0.011,0.1,-0.973,0.08,0.364,-0.099,-0.409
351,0.004,0.015,-0.011,0.098,-0.974,0.081,0.364,-0.099,-0.409
352,0.005,0.013,-0.01,0.097,-0.974,0.081,0.367,-0.102,-0.429
353,0.006,0.011,-0.009,0.099,-0.975,0.08,0.375,-0.096,-0.423
354,0.006,0.011,-0.009,0.1,-0.974,0.082,0.375,-0.105,-0.409
355,0.007,0.01,-0.007,0.1,-0.975,0.082,0.375,-0.105,-0.409
356,0.007,0.01,-0.006,0.1,-0.977,0.081,0.363,-0.102,-0.427
357,0.005,0.013,-0.007,0.103,-0.977,0.082,0.381,-0.109,-0.427
358,0.004,0.014,-0.007,0.101,-0.976,0.082,0.363,-0.087,-0.391
359,0.004,0.016,-0.007,0.099,-0.977,0.082,0.378,-0.094,-0.414
360,0.004,0.018,-0.009,0.099,-0.978,0.081,0.366,-0.1,-0.415
361,0.002,0.019,-0.009,0.097,-0.977,0.082,0.367,-0.093,-0.427
362,0.001,0.02,-0.009,0.099,-0.975,0.083,0.367,-0.093,-0.427
363,0.001,0.018,-0.009,0.103,-0.975,0.083,0.375,-0.111,-0.436
364,0.0,0.014,-0.007,0.103,-0.975,0.081,0.349,-0.102,-0.417
365,0.0,0.021,-0.007,0.1,-0.975,0.079,0.349,-0.102,-0.417
366,0.003,0.022,-0.006,0.1,-0.977,0.08,0.364,-0.1,-0.427
367,0.004,0.022,-0.004,0.099,-0.975,0.08,0.376,-0.088,-0.421
368,0.006,0.021,-0.005,0.098,-0.976,0.081,0.381,-0.103,-0.448
369,0.007,0.021,-0.005,0.095,-0.977,0.08,0.381,-0.103,-0.448
370,0.007,0.021,-0.004,0.095,-0.977,0.08,0.364,-0.093,-0.429
371,0.006,0.022,-0.006,0.095,-0.978,0.079,0.379,-0.126,-0.414
372,0.006,0.025,-0.007,0.093,-0.978,0.08,0.367,-0.105,-0.411
373,0.005,0.025,-0.008,0.091,-0.974,0.077,0.376,-0.106,-0.406
374,0.005,0.024,-0.009,0.091,-0.974,0.078,0.369,-0.103,-0.418
375,0.005,0.024,-0.009,0.092,-0.977,0.081,0.375,-0.112,-0.421
376,0.005,0.023,-0.009,0.094,-0.98,0.081,0.375,-0.112,-0.421
377,0.005,0.019,-0.008,0.094,-0.978,0.081,0.37,-0.108,-0.42
378,0.004,0.018,-0.007,0.094,-0.974,0.079,0.358,-0.093,-0.423
379,0.007,0.014,-0.005,0.095,-0.974,0.076,0.358,-0.093,-0.42
380,0.008,0.01,-0.004,0.092,-0.977,0.076,0.375,-0.12,-0.415
381,0.009,0.009,-0.004,0.089,-0.975,0.076,0.372,-0.115,-0.429
382,0.009,0.011,-0.005,0.092,-0.973,0.076,0.378,-0.082,-0.417
383,0.01,0.009,-0.004,0.092,-0.975,0.078,0.378,-0.082,-0.417
384,0.009,0.013,-0.005,0.091,-0.974,0.079,0.355,-0.1,-0.405
385,0.014,0.02,-0.009,0.094,-0.974,0.079,0.363,-0.124,-0.402
386,0.014,0.018,-0.01,0.095,-0.974,0.076,0.363,-0.124,-0.402
387,0.014,0.018,-0.009,0.093,-0.973,0.08,0.375,-0.103,-0.414
388,0.011,0.017,-0.009,0.094,-0.97,0.084,0.367,-0.103,-0.43
389,0.009,0.016,-0.008,0.094,-0.97,0.084,0.37,-0.109,-0.424
390,0.009,0.011,-0.007,0.095,-0.97,0.081,0.37,-0.109,-0.424
391,0.011,0.011,-0.006,0.094,-0.973,0.078,0.402,-0.109,-0.414
392,0.014,0.012,-0.006,0.093,-0.974,0.077,0.351,-0.124,-0.408
393,0.013,0.014,-0.006,0.093,-0.979,0.081,0.36,-0.106,-0.408
394,0.013,0.014,-0.006,0.097,-0.982,0.084,0.402,-0.079,-0.412
395,0.014,0.015,-0.007,0.102,-0.981,0.085,0.366,-0.118,-0.418
396,0.013,0.011,-0.006,0.105,-0.981,0.085,0.382,-0.111,-0.43
397,0.013,0.011,-0.007,0.101,-0.98,0.086,0.382,-0.111,-0.43
398,0.015,0.002,-0.007,0.097,-0.981,0.085,0.358,-0.094,-0.429
399,0.016,0.001,-0.007,0.096,-0.979,0.077,0.378,-0.102,-0.412
400,0.013,0.004,-0.007,0.096,-0.976,0.076,0.378,-0.102,-0.412
401,0.011,0.007,-0.008,0.096,-0.972,0.084,0.363,-0.109,-0.42
402,0.009,0.007,-0.008,0.096,-0.968,0.085,0.384,-0.121,-0.423
403,0.005,0.013,-0.008,0.099,-0.969,0.081,0.376,-0.115,-0.423
404,0.002,0.013,-0.009,0.102,-0.972,0.082,0.376,-0.115,-0.423
405,0.002,0.011,-0.007,0.107,-0.975,0.084,0.373,-0.099,-0.417
406,0.002,0.014,-0.005,0.109,-0.976,0.083,0.361,-0.105,-0.426
407,0.001,0.007,-0.003,0.104,-0.975,0.08,0.381,-0.114,-0.418
408,0.001,0.007,-0.003,0.106,-0.973,0.076,0.375,-0.105,-0.421
409,0.0,0.009,-0.002,0.106,-0.973,0.076,0.37,-0.1,-0.412
410,0.0,0.014,-0.002,0.107,-0.972,0.07,0.376,-0.096,-0.435
411,-0.001,0.02,-0.004,0.106,-0.973,0.073,0.376,-0.096,-0.435
412,0.002,0.024,-0.002,0.109,-0.978,0.08,0.369,-0.093,-0.433
413,0.009,0.028,-0.002,0.107,-0.98,0.082,0.366,-0.099,-0.415
414,0.009,0.028,-0.002,0.104,-0.979,0.082,0.366,-0.099,-0.415
415,0.014,0.03,-0.003,0.103,-0.976,0.08,0.369,-0.091,-0.417
416,0.016,0.027,-0.003,0.103,-0.974,0.078,0.381,-0.112,-0.417
417,0.015,0.023,-0.005,0.103,-0.974,0.078,0.387,-0.099,-0.438
418,0.014,0.021,-0.006,0.104,-0.975,0.081,0.387,-0.099,-0.438
419,0.009,0.016,-0.005,0.102,-0.976,0.085,0.363,-0.087,-0.432
420,0.009,0.016,-0.006,0.104,-0.977,0.084,0.376,-0.099,-0.424
421,0.008,0.018,-0.005,0.104,-0.978,0.079,0.349,-0.109,-0.414
422,0.009,0.022,-0.005,0.102,-0.981,0.075,0.372,-0.109,-0.439
423,0.009,0.023,-0.004,0.102,-0.981,0.077,0.384,-0.129,-0.424
424,0.009,0.023,-0.004,0.103,-0.979,0.081,0.375,-0.106,-0.423
425,0.009,0.022,-0.004,0.101,-0.979,0.085,0.375,-0.106,-0.423
426,0.007,0.017,-0.003,0.1,-0.978,0.084,0.366,-0.096,-0.424
427,0.007,0.009,-0.004,0.102,-0.979,0.078,0.37,-0.094,-0.432
428,0.005,0.016,-0.006,0.102,-0.981,0.076,0.37,-0.094,-0.432
429,0.004,0.023,-0.006,0.102,-0.981,0.076,0.367,-0.109,-0.421
430,0.002,0.025,-0.007,0.103,-0.978,0.081,0.393,-0.084,-0.423
431,0.002,0.023,-0.009,0.105,-0.974,0.085,0.387,-0.129,-0.415
432,0.0,0.021,-0.009,0.105,-0.973,0.084,0.387,-0.129,-0.415
433,0.001,0.018,-0.008,0.103,-0.974,0.086,0.372,-0.1,-0.412
434,0.001,0.018,-0.008,0.101,-0.974,0.083,0.369,-0.1,-0.429
435,0.004,0.015,-0.009,0.099,-0.975,0.082,0.364,-0.105,-0.429
436,0.005,0.018,-0.007,0.097,-0.977,0.085,0.384,-0.096,-0.411
437,0.008,0.017,-0.005,0.099,-0.978,0.088,0.37,-0.108,-0.424
438,0.007,0.014,-0.006,0.1,-0.975,0.086,0.379,-0.091,-0.444
439,0.007,0.016,-0.007,0.098,-0.973,0.084,0.379,-0.091,-0.444
440,0.004,0.021,-0.008,0.096,-0.973,0.089,0.361,-0.103,-0.418
441,0.005,0.025,-0.009,0.099,-0.976,0.09,0.372,-0.1,-0.42
442,0.006,0.024,-0.007,0.102,-0.974,0.088,0.378,-0.103,-0.423
443,0.007,0.021,-0.006,0.098,-0.97,0.089,0.369,-0.094,-0.426
444,0.007,0.016,-0.006,0.096,-0.969,0.09,0.361,-0.112,-0.43
445,0.009,0.013,-0.006,0.098,-0.971,0.087,0.385,-0.112,-0.426
446,0.009,0.007,-0.004,0.094,-0.973,0.084,0.385,-0.112,-0.426
447,0.011,0.011,-0.005,0.089,-0.975,0.084,0.37,-0.094,-0.423
448,0.015,0.023,-0.009,0.089,-0.975,0.084,0.37,-0.105,-0.402
449,0.016,0.018,-0.009,0.088,-0.975,0.088,0.37,-0.105,-0.402
450,0.012,0.015,-0.01,0.09,-0.973,0.09,0.382,-0.103,-0.417
451,0.011,0.009,-0.009,0.091,-0.972,0.087,0.379,-0.094,-0.409
452,0.012,0.007,-0.008,0.093,-0.971,0.084,0.403,-0.115,-0.421
453,0.012,0.007,-0.008,0.092,-0.97,0.084,0.403,-0.115,-0.421
454,0.011,0.006,-0.007,0.092,-0.973,0.085,0.364,-0.099,-0.415
455,0.013,0.003,-0.007,0.093,-0.974,0.083,0.376,-0.117,-0.423
456,0.013,0.001,-0.006,0.095,-0.977,0.08,0.372,-0.099,-0.412
457,0.014,0.0,-0.005,0.096,-0.978,0.078,0.366,-0.108,-0.418
458,0.015,0.0,-0.005,0.097,-0.976,0.078,0.376,-0.099,-0.414
459,0.012,0.0,-0.006,0.1,-0.977,0.082,0.382,-0.112,-0.414
460,0.01,-0.001,-0.004,0.102,-0.977,0.078,0.382,-0.112,-0.414
461,0.011,0.0,-0.004,0.103,-0.976,0.075,0.36,-0.115,-0.427
462,0.015,0.004,-0.004,0.103,-0.976,0.076,0.375,-0.087,-0.408
463,0.014,0.003,-0.004,0.104,-0.976,0.075,0.375,-0.087,-0.408
464,0.013,0.001,-0.004,0.105,-0.977,0.075,0.381,-0.102,-0.433
465,0.013,-0.001,-0.004,0.106,-0.977,0.075,0.382,-0.111,-0.417
466,0.011,-0.004,-0.002,0.105,-0.978,0.072,0.367,-0.096,-0.42
467,0.013,-0.004,-0.001,0.102,-0.977,0.069,0.367,-0.096,-0.42
468,0.015,0.001,-0.003,0.101,-0.974,0.068,0.379,-0.115,-0.43
469,0.016,0.011,-0.005,0.101,-0.974,0.068,0.357,-0.112,-0.429
470,0.016,0.016,-0.006,0.1,-0.973,0.068,0.375,-0.12,-0.424
471,0.016,0.013,-0.004,0.101,-0.972,0.069,0.369,-0.1,-0.409
472,0.014,0.009,-0.004,0.101,-0.973,0.072,0.37,-0.099,-0.409
473,0.014,0.009,-0.004,0.1,-0.974,0.076,0.37,-0.105,-0.427
474,0.015,0.004,-0.004,0.095,-0.975,0.071,0.37,-0.105,-0.427
475,0.014,0.0,-0.004,0.091,-0.978,0.066,0.372,-0.099,-0.421
476,0.014,0.0,-0.004,0.09,-0.975,0.067,0.372,-0.114,-0.393
477,0.014,0.0,-0.005,0.09,-0.975,0.068,0.372,-0.114,-0.393
478,0.014,0.0,-0.007,0.091,-0.979,0.068,0.358,-0.093,-0.409
479,0.009,0.002,-0.009,0.092,-0.98,0.072,0.361,-0.108,-0.418
480,0.01,0.001,-0.009,0.089,-0.983,0.073,0.379,-0.112,-0.426
481,0.009,0.007,-0.012,0.089,-0.984,0.073,0.379,-0.112,-0.426
482,0.004,0.014,-0.014,0.093,-0.98,0.072,0.375,-0.099,-0.421
483,0.0,0.018,-0.014,0.098,-0.981,0.073,0.393,-0.108,-0.426
484,-0.001,0.011,-0.011,0.102,-0.98,0.076,0.367,-0.118,-0.406
485,0.0,0.004,-0.008,0.103,-0.98,0.075,0.373,-0.112,-0.399
486,0.001,0.004,-0.005,0.099,-0.982,0.072,0.382,-0.099,-0.429
487,0.004,0.005,-0.004,0.097,-0.982,0.07,0.387,-0.093,-0.423
488,0.006,0.013,-0.002,0.095,-0.98,0.072,0.387,-0.093,-0.423
489,0.009,0.014,-0.001,0.095,-0.98,0.072,0.375,-0.108,-0.424
490,0.012,0.005,0.0,0.094,-0.978,0.075,0.367,-0.109,-0.403
491,0.012,-0.002,0.001,0.096,-0.977,0.073,0.384,-0.099,-0.423
492,0.014,-0.004,0.001,0.096,-0.975,0.069,0.379,-0.103,-0.424
493,0.014,-0.004,0.001,0.091,-0.971,0.066,0.378,-0.099,-0.429
494,0.016,-0.003,0.0,0.092,-0.972,0.064,0.394,-0.12,-0.436
495,0.016,-0.001,-0.001,0.094,-0.974,0.064,0.394,-0.12,-0.436
496,0.016,-0.003,-0.001,0.091,-0.973,0.067,0.375,-0.097,-0.417
497,0.016,-0.003,-0.002,0.092,-0.974,0.073,0.366,-0.088,-0.399
498,0.014,-0.003,-0.002,0.093,-0.978,0.075,0.366,-0.088,-0.399
499,0.014,-0.004,0.0,0.093,-0.982,0.074,0.397,-0.103,-0.426
500,0.014,-0.007,0.0,0.097,-0.983,0.074,0.375,-0.109,-0.417
501,0.015,-0.01,0.0,0.099,-0.981,0.072,0.381,-0.126,-0.415
502,0.018,-0.016,0.003,0.099,-0.977,0.072,0.381,-0.126,-0.415
503,0.023,-0.016,0.003,0.101,-0.973,0.074,0.37,-0.084,-0.435
504,0.023,-0.007,0.001,0.1,-0.969,0.075,0.369,-0.108,-0.426
505,0.028,-0.009,0.002,0.103,-0.972,0.076,0.367,-0.103,-0.426
506,0.028,-0.009,0.002,0.108,-0.975,0.076,0.372,-0.114,-0.412
507,0.028,-0.008,0.003,0.108,-0.975,0.076,0.369,-0.091,-0.427
508,0.03,-0.003,0.003,0.111,-0.972,0.072,0.379,-0.099,-0.439
509,0.036,-0.002,0.003,0.11,-0.969,0.07,0.379,-0.099,-0.439
510,0.036,0.007,0.003,0.107,-0.967,0.068,0.382,-0.106,-0.402
511,0.039,0.014,0.002,0.104,-0.968,0.07,0.391,-0.115,-0.42
512,0.035,0.016,0.002,0.103,-0.969,0.073,0.391,-0.115,-0.42
513,0.035,0.016,0.002,0.103,-0.969,0.075,0.382,-0.106,-0.411
514,0.031,0.016,0.002,0.101,-0.974,0.076,0.381,-0.117,-0.412
515,0.031,0.018,0.002,0.1,-0.977,0.075,0.378,-0.127,-0.424
516,0.033,0.019,0.002,0.096,-0.976,0.075,0.378,-0.127,-0.424
517,0.034,0.023,0.001,0.096,-0.974,0.074,0.388,-0.102,-0.427
518,0.032,0.023,0.0,0.1,-0.972,0.072,0.376,-0.1,-0.415
519,0.032,0.021,0.0,0.1,-0.972,0.071,0.373,-0.103,-0.414
520,0.033,0.025,0.0,0.099,-0.973,0.071,0.385,-0.1,-0.417
521,0.034,0.03,0.0,0.101,-0.973,0.071,0.36,-0.105,-0.42
522,0.032,0.028,0.0,0.102,-0.971,0.071,0.366,-0.109,-0.421
523,0.036,0.027,0.001,0.099,-0.971,0.069,0.366,-0.109,-0.421
524,0.038,0.029,0.002,0.093,-0.969,0.068,0.37,-0.108,-0.426
525,0.04,0.035,0.001,0.093,-0.97,0.065,0.37,-0.103,-0.412
526,0.041,0.029,0.003,0.095,-0.971,0.062,0.37,-0.103,-0.412
527,0.041,0.028,0.004,0.09,-0.971,0.062,0.381,-0.094,-0.403
528,0.039,0.027,0.007,0.09,-0.971,0.062,0.369,-0.115,-0.415
529,0.039,0.023,0.009,0.088,-0.97,0.065,0.367,-0.091,-0.427
530,0.04,0.014,0.012,0.087,-0.969,0.068,0.367,-0.091,-0.427
531,0.042,0.012,0.013,0.083,-0.974,0.069,0.375,-0.121,-0.423
532,0.046,0.011,0.014,0.086,-0.98,0.071,0.393,-0.102,-0.423
533,0.046,0.011,0.014,0.088,-0.982,0.073,0.391,-0.094,-0.4
534,0.045,0.004,0.016,0.086,-0.98,0.076,0.36,-0.115,-0.414
535,0.046,-0.001,0.018,0.085,-0.976,0.075,0.375,-0.126,-0.405
536,0.047,-0.007,0.018,0.088,-0.975,0.069,0.379,-0.1,-0.42
537,0.048,-0.013,0.018,0.091,-0.974,0.062,0.379,-0.1,-0.42
538,0.047,-0.01,0.015,0.098,-0.976,0.059,0.37,-0.109,-0.42
539,0.051,-0.005,0.015,0.095,-0.971,0.061,0.352,-0.096,-0.396
540,0.054,-0.007,0.017,0.087,-0.967,0.066,0.378,-0.109,-0.39
541,0.058,-0.021,0.018,0.087,-0.97,0.068,0.382,-0.117,-0.411
542,0.058,-0.029,0.018,0.086,-0.969,0.066,0.37,-0.112,-0.403
543,0.054,-0.031,0.018,0.083,-0.965,0.07,0.382,-0.109,-0.424
544,0.049,-0.037,0.017,0.08,-0.962,0.073,0.382,-0.109,-0.424
545,0.045,-0.045,0.017,0.078,-0.963,0.069,0.352,-0.129,-0.43
546,0.042,-0.049,0.018,0.075,-0.967,0.068,0.342,-0.1,-0.405
547,0.039,-0.057,0.019,0.07,-0.969,0.075,0.342,-0.1,-0.405
548,0.034,-0.074,0.024,0.07,-0.969,0.075,0.378,-0.118,-0.424
549,0.033,-0.094,0.032,0.068,-0.971,0.08,0.385,-0.112,-0.414
550,0.038,-0.118,0.041,0.072,-0.97,0.081,0.39,-0.109,-0.426
551,0.038,-0.118,0.041,0.078,-0.966,0.082,0.39,-0.109,-0.426
552,0.049,-0.142,0.056,0.074,-0.951,0.089,0.358,-0.096,-0.406
553,0.051,-0.175,0.057,0.082,-0.943,0.076,0.367,-0.097,-0.415
554,0.053,-0.179,0.056,0.106,-0.952,0.059,0.375,-0.1,-0.411
555,0.064,-0.172,0.06,0.121,-0.958,0.058,0.376,-0.102,-0.435
556,0.079,-0.17,0.067,0.133,-0.95,0.053,0.376,-0.094,-0.423
557,0.086,-0.169,0.064,0.14,-0.947,0.052,0.376,-0.099,-0.405
558,0.091,-0.166,0.064,0.143,-0.95,0.053,0.376,-0.099,-0.405
559,0.089,-0.172,0.064,0.144,-0.954,0.053,0.37,-0.102,-0.408
560,0.087,-0.182,0.063,0.146,-0.963,0.054,0.349,-0.114,-0.382
561,0.075,-0.2,0.061,0.147,-0.966,0.054,0.349,-0.114,-0.382
562,0.048,-0.221,0.051,0.148,-0.971,0.055,0.357,-0.099,-0.405
563,0.042,-0.263,0.051,0.161,-0.979,0.057,0.372,-0.111,-0.415
564,0.037,-0.289,0.057,0.171,-0.987,0.051,0.364,-0.108,-0.408
565,0.03,-0.288,0.053,0.175,-0.997,0.031,0.364,-0.108,-0.408
566,0.037,-0.26,0.055,0.186,-1.01,0.022,0.351,-0.106,-0.393
567,0.042,-0.223,0.057,0.197,-1.014,0.033,0.37,-0.096,-0.403
568,0.046,-0.211,0.063,0.197,-1.014,0.033,0.355,-0.108,-0.384
569,0.049,-0.199,0.065,0.199,-1.005,0.045,0.352,-0.103,-0.385
570,0.046,-0.174,0.06,0.194,-0.994,0.045,0.363,-0.097,-0.397
571,0.046,-0.174,0.06,0.186,-0.987,0.049,0.367,-0.099,-0.411
572,0.042,-0.164,0.053,0.185,-0.965,0.053,0.367,-0.099,-0.411
573,0.045,-0.156,0.053,0.196,-0.955,0.056,0.361,-0.102,-0.415
574,0.044,-0.166,0.054,0.192,-0.972,0.077,0.339,-0.102,-0.396
575,0.032,-0.189,0.057,0.192,-0.979,0.083,0.339,-0.102,-0.396
576,0.025,-0.218,0.063,0.198,-0.984,0.079,0.355,-0.094,-0.379
577,0.025,-0.254,0.068,0.187,-0.982,0.07,0.369,-0.103,-0.394
578,0.028,-0.272,0.07,0.184,-0.974,0.064,0.352,-0.117,-0.387
579,0.037,-0.271,0.07,0.197,-0.965,0.049,0.352,-0.117,-0.387
580,0.05,-0.254,0.068,0.216,-0.952,0.025,0.346,-0.106,-0.391
581,0.062,-0.237,0.067,0.235,-0.944,0.011,0.364,-0.115,-0.381
582,0.075,-0.212,0.062,0.251,-0.943,-0.003,0.355,-0.105,-0.388
583,0.098,-0.192,0.064,0.271,-0.934,-0.017,0.36,-0.103,-0.391
584,0.102,-0.179,0.056,0.27,-0.935,-0.013,0.358,-0.112,-0.381
585,0.105,-0.151,0.046,0.259,-0.949,-0.005,0.351,-0.111,-0.405
586,0.12,-0.135,0.055,0.284,-0.935,-0.013,0.351,-0.111,-0.405
587,0.116,-0.13,0.049,0.284,-0.935,-0.013,0.354,-0.114,-0.393
588,0.107,-0.115,0.039,0.207,-0.97,0.032,0.334,-0.09,-0.373
589,0.093,-0.117,0.037,0.207,-0.97,0.032,0.334,-0.09,-0.373
590,0.073,-0.125,0.03,0.189,-0.974,0.046,0.343,-0.094,-0.396
591,0.05,-0.131,0.023,0.168,-0.975,0.061,0.339,-0.097,-0.4
592,0.05,-0.131,0.023,0.151,-0.972,0.076,0.348,-0.108,-0.379
593,0.03,-0.128,0.012,0.151,-0.966,0.079,0.333,-0.082,-0.378
594,0.02,-0.13,0.007,0.169,-0.963,0.08,0.333,-0.082,-0.378
595,0.018,-0.151,0.004,0.186,-0.948,0.077,0.355,-0.111,-0.391
596,0.023,-0.157,0.006,0.205,-0.944,0.049,0.343,-0.103,-0.372
597,0.039,-0.153,0.006,0.216,-0.957,0.036,0.334,-0.093,-0.381
598,0.093,-0.155,0.009,0.219,-0.983,0.045,0.337,-0.087,-0.369
599,0.056,-0.144,0.004,0.233,-0.968,0.022,0.333,-0.111,-0.384
600,0.072,-0.129,-0.01,0.245,-0.936,-0.001,0.358,-0.1,-0.381
601,0.189,-0.11,-0.01,0.226,-0.932,0.009,0.337,-0.109,-0.364
602,0.133,-0.086,-0.023,0.227,-0.955,0.031,0.337,-0.109,-0.364
603,0.126,-0.074,-0.033,0.223,-0.932,0.012,0.328,-0.099,-0.361
604,0.144,-0.07,-0.035,0.217,-0.912,0.005,0.337,-0.108,-0.379
605,0.149,-0.057,-0.049,0.232,-0.942,0.032,0.337,-0.094,-0.378
606,0.161,-0.05,-0.059,0.247,-0.949,0.029,0.33,-0.09,-0.384
607,0.184,-0.049,-0.066,0.247,-0.949,0.029,0.328,-0.102,-0.384
608,0.189,-0.049,-0.074,0.232,-0.918,0.016,0.31,-0.118,-0.39
609,0.203,-0.044,-0.087,0.218,-0.918,0.026,0.31,-0.118,-0.39
610,0.308,-0.042,-0.111,0.226,-0.956,0.044,0.342,-0.099,-0.37
611,0.194,-0.027,-0.113,0.22,-1.029,0.098,0.325,-0.106,-0.357
612,0.194,-0.027,-0.113,0.217,-1.023,0.1,0.324,-0.097,-0.367
613,0.165,-0.03,-0.116,0.202,-0.932,0.047,0.348,-0.115,-0.36
614,0.177,-0.035,-0.124,0.206,-0.928,0.045,0.325,-0.109,-0.358
615,0.189,-0.022,-0.147,0.221,-0.934,0.045,0.352,-0.114,-0.348
616,0.189,-0.013,-0.143,0.241,-0.941,0.05,0.352,-0.114,-0.348
617,0.193,-0.016,-0.145,0.262,-0.95,0.063,0.322,-0.118,-0.354
618,0.191,-0.025,-0.151,0.266,-0.957,0.076,0.346,-0.111,-0.37
619,0.189,-0.039,-0.163,0.271,-0.976,0.077,0.331,-0.114,-0.369
620,0.184,-0.049,-0.161,0.26,-0.982,0.058,0.355,-0.123,-0.376
621,0.186,-0.051,-0.16,0.234,-0.968,0.041,0.339,-0.105,-0.382
622,0.199,-0.052,-0.184,0.197,-0.96,0.06,0.363,-0.129,-0.382
623,0.191,-0.06,-0.187,0.17,-0.95,0.076,0.363,-0.129,-0.382
624,0.184,-0.072,-0.192,0.165,-0.952,0.091,0.328,-0.12,-0.36
625,0.163,-0.098,-0.196,0.162,-0.951,0.113,0.339,-0.117,-0.366
626,0.147,-0.127,-0.198,0.173,-0.939,0.121,0.34,-0.12,-0.351
627,0.141,-0.147,-0.201,0.173,-0.939,0.121,0.345,-0.112,-0.351
628,0.226,-0.189,-0.217,0.204,-0.934,0.122,0.358,-0.136,-0.361
629,0.154,-0.133,-0.213,0.233,-0.925,0.108,0.358,-0.132,-0.37
630,0.145,-0.105,-0.215,0.292,-0.956,0.108,0.358,-0.132,-0.37
631,0.145,-0.105,-0.215,0.335,-0.993,0.119,0.349,-0.112,-0.355
632,0.143,-0.075,-0.228,0.329,-0.993,0.112,0.348,-0.112,-0.366
633,0.109,-0.044,-0.231,0.349,-1.029,0.091,0.343,-0.133,-0.358
634,0.128,-0.079,-0.218,0.357,-1.071,0.055,0.369,-0.126,-0.351
635,0.018,0.014,-0.187,0.405,-1.161,0.037,0.352,-0.121,-0.37
636,-0.063,0.069,-0.145,0.429,-1.21,0.022,0.351,-0.126,-0.358
637,-0.077,0.043,-0.101,0.405,-1.236,0.005,0.351,-0.126,-0.358
638,-0.166,0.089,-0.072,0.357,-1.28,0.0,0.345,-0.121,-0.354
639,-0.226,0.139,-0.069,0.233,-1.259,-0.004,0.363,-0.105,-0.387
640,-0.29,0.198,-0.083,0.117,-1.241,0.002,0.352,-0.127,-0.376
641,-0.401,0.287,-0.099,0.057,-1.246,0.006,0.354,-0.126,-0.378
642,-0.59,0.408,-0.1,0.029,-1.263,0.001,0.378,-0.114,-0.376
643,-0.812,0.471,-0.079,-0.014,-1.22,0.007,0.378,-0.111,-0.397
644,-0.942,0.445,-0.076,-0.068,-1.098,0.02,0.378,-0.111,-0.397
645,-0.976,0.413,-0.079,-0.074,-1.046,0.03,0.364,-0.121,-0.381
646,-1.128,0.469,-0.062,-0.04,-1.07,0.026,0.375,-0.1,-0.399
647,-1.236,0.512,-0.031,-0.04,-1.07,0.026,0.361,-0.115,-0.414
648,-1.297,0.525,0.001,-0.015,-1.056,0.018,0.367,-0.118,-0.421
649,-1.331,0.445,0.018,-0.007,-1.055,0.05,0.379,-0.103,-0.414
650,-1.331,0.445,0.018,-0.02,-1.078,0.12,0.358,-0.109,-0.426
651,-1.412,0.28,0.03,-0.044,-1.106,0.165,0.358,-0.109,-0.426
652,-1.413,0.105,0.053,-0.027,-1.102,0.111,0.358,-0.105,-0.429
653,-1.349,-0.016,0.072,-0.031,-1.112,0.068,0.379,-0.088,-0.436
654,-1.364,-0.109,0.063,-0.05,-1.16,0.04,0.387,-0.084,-0.445
655,-1.333,-0.179,0.042,-0.019,-1.147,-0.048,0.387,-0.081,-0.459
656,-1.297,-0.086,0.03,0.005,-1.103,-0.102,0.376,-0.057,-0.465
657,-1.259,0.082,-0.005,-0.006,-1.04,-0.116,0.385,-0.072,-0.478
658,-1.134,0.277,-0.057,0.058,-0.994,-0.089,0.385,-0.072,-0.478
659,-1.067,0.457,0.001,0.14,-0.98,-0.011,0.372,-0.07,-0.463
660,-1.052,0.566,0.018,0.158,-0.979,0.088,0.379,-0.055,-0.471
661,-1.073,0.606,0.024,0.181,-0.985,0.159,0.37,-0.051,-0.49
662,-1.016,0.645,0.089,0.179,-0.985,0.175,0.373,-0.045,-0.477
663,-0.955,0.637,0.121,0.146,-1.001,0.203,0.37,-0.066,-0.505
664,-0.913,0.66,0.174,0.126,-1.005,0.237,0.382,-0.045,-0.507
665,-0.878,0.684,0.212,0.087,-0.992,0.252,0.382,-0.045,-0.507
666,-0.855,0.653,0.247,0.087,-0.967,0.252,0.388,-0.049,-0.508
667,-0.813,0.618,0.275,0.011,-0.967,0.266,0.373,-0.028,-0.525
668,-0.721,0.6,0.298,-0.034,-0.928,0.261,0.403,-0.042,-0.522
669,-0.641,0.59,0.31,-0.084,-0.892,0.25,0.39,-0.021,-0.517
670,-0.571,0.595,0.311,-0.123,-0.868,0.238,0.388,-0.006,-0.525
671,-0.571,0.595,0.311,-0.114,-0.856,0.197,0.408,-0.015,-0.522
672,-0.514,0.629,0.31,-0.088,-0.843,0.153,0.408,-0.015,-0.522
673,-0.466,0.69,0.274,-0.122,-0.747,0.141,0.391,-0.016,-0.528
674,-0.351,0.625,0.228,-0.098,-0.763,0.171,0.412,0.006,-0.534
675,-0.333,0.608,0.235,-0.047,-0.861,0.236,0.412,0.0,-0.532
676,-0.328,0.564,0.21,-0.068,-0.819,0.27,0.414,0.001,-0.532
677,-0.311,0.513,0.169,-0.076,-0.768,0.282,0.429,-0.01,-0.528
678,-0.279,0.453,0.139,-0.083,-0.739,0.307,0.42,0.01,-0.558
679,-0.227,0.408,0.104,-0.078,-0.74,0.319,0.42,0.01,-0.558
680,-0.151,0.368,0.1,-0.075,-0.738,0.32,0.43,0.009,-0.541
681,-0.052,0.312,0.086,-0.076,-0.712,0.327,0.429,-0.004,-0.55
682,0.05,0.266,0.091,-0.064,-0.701,0.336,0.418,0.007,-0.54
683,0.15,0.214,0.093,-0.022,-0.694,0.344,0.433,0.019,-0.541
684,0.24,0.163,0.103,0.015,-0.698,0.362,0.43,-0.004,-0.549
685,0.306,0.084,0.109,0.039,-0.724,0.385,0.433,-0.01,-0.544
686,0.354,0.018,0.134,0.059,-0.736,0.405,0.411,0.006,-0.553
687,0.368,0.016,0.147,0.06,-0.72,0.411,0.418,-0.009,-0.544
688,0.387,0.028,0.126,0.056,-0.7,0.4,0.427,0.001,-0.543
689,0.408,0.023,0.113,0.047,-0.691,0.401,0.43,-0.004,-0.543
690,0.408,0.023,0.113,0.041,-0.683,0.41,0.427,-0.003,-0.541
691,0.442,0.009,0.146,0.058,-0.693,0.399,0.436,0.0,-0.555
692,0.488,-0.021,0.13,0.06,-0.703,0.42,0.436,0.0,-0.555
693,0.522,-0.043,0.13,0.036,-0.718,0.479,0.429,0.003,-0.537
694,0.548,-0.049,0.159,0.044,-0.754,0.507,0.415,-0.009,-0.544
695,0.585,-0.067,0.177,0.066,-0.775,0.531,0.424,-0.012,-0.558
696,0.585,-0.081,0.202,0.091,-0.811,0.575,0.421,-0.021,-0.538
697,0.557,-0.091,0.208,0.105,-0.844,0.602,0.424,-0.025,-0.55
698,0.507,-0.095,0.209,0.11,-0.867,0.617,0.405,-0.025,-0.54
699,0.445,-0.107,0.21,0.111,-0.899,0.629,0.405,-0.025,-0.54
700,0.38,-0.105,0.21,0.106,-0.927,0.634,0.411,-0.01,-0.517
701,0.307,-0.114,0.201,0.104,-0.964,0.634,0.411,-0.01,-0.517
702,0.227,-0.116,0.175,0.1,-1.009,0.598,0.436,-0.021,-0.529
703,0.151,-0.088,0.14,0.09,-1.055,0.54,0.399,-0.034,-0.535
704,0.09,-0.037,0.119,0.09,-1.055,0.54,0.415,-0.028,-0.546
705,0.057,0.042,0.123,0.099,-1.112,0.501,0.424,-0.04,-0.528
706,0.075,0.131,0.149,0.121,-1.166,0.5,0.424,-0.04,-0.528
707,0.14,0.21,0.172,0.122,-1.141,0.516,0.411,-0.033,-0.516
708,0.188,0.279,0.165,0.079,-1.014,0.559,0.411,-0.033,-0.516
709,0.179,0.317,0.135,0.047,-0.848,0.636,0.432,-0.018,-0.525
710,0.179,0.317,0.135,0.027,-0.666,0.694,0.435,-0.025,-0.523
711,0.173,0.312,0.066,0.001,-0.512,0.669,0.427,-0.022,-0.525
712,0.187,0.293,0.0,-0.011,-0.463,0.54,0.42,-0.043,-0.544
713,0.24,0.24,-0.045,-0.052,-0.546,0.381,0.42,-0.043,-0.544
714,0.3,0.124,-0.053,-0.075,-0.765,0.249,0.397,-0.036,-0.514
715,0.348,-0.058,-0.032,-0.043,-1.097,0.142,0.412,-0.037,-0.54
716,0.354,-0.233,-0.036,-0.043,-1.467,0.11,0.438,-0.049,-0.525
717,0.301,-0.302,-0.086,-0.079,-1.788,0.14,0.42,-0.046,-0.55
718,0.193,-0.223,-0.133,-0.086,-1.961,0.209,0.442,-0.031,-0.534
719,0.037,-0.005,-0.175,-0.002,-1.924,0.355,0.442,-0.031,-0.534
720,-0.169,0.145,-0.16,0.092,-1.59,0.483,0.429,-0.042,-0.534
721,-0.291,0.05,-0.105,0.033,-1.059,0.429,0.429,-0.048,-0.519
722,-0.168,-0.321,-0.076,-0.119,-0.61,0.191,0.429,-0.048,-0.519
723,0.061,-0.7,-0.119,-0.219,-0.394,-0.029,0.42,-0.046,-0.526
724,0.16,-0.769,-0.207,-0.219,-0.394,-0.029,0.417,-0.042,-0.541
725,0.08,-0.55,-0.294,-0.186,-0.398,-0.096,0.423,-0.051,-0.523
726,-0.023,-0.289,-0.307,-0.054,-0.52,-0.048,0.423,-0.051,-0.523
727,-0.034,-0.266,-0.275,0.139,-0.698,0.034,0.417,-0.043,-0.52
728,-0.034,-0.266,-0.275,0.319,-0.865,0.054,0.423,-0.064,-0.543
729,0.108,-0.465,-0.196,0.428,-0.961,-0.033,0.426,-0.039,-0.522
730,0.321,-0.69,-0.093,0.464,-1.032,-0.155,0.427,-0.046,-0.534
731,0.482,-0.742,-0.007,0.441,-1.106,-0.207,0.403,-0.025,-0.519
732,0.521,-0.592,0.03,0.406,-1.142,-0.161,0.391,-0.054,-0.532
733,0.452,-0.363,0.056,0.331,-1.129,-0.019,0.402,-0.042,-0.526
734,0.354,-0.221,0.091,0.238,-1.067,0.137,0.402,-0.042,-0.526
735,0.33,-0.23,0.151,0.182,-0.974,0.202,0.399,-0.064,-0.501
736,0.347,-0.347,0.188,0.118,-0.907,0.236,0.399,-0.064,-0.501
737,0.332,-0.473,0.193,0.033,-0.876,0.265,0.385,-0.051,-0.507
738,0.314,-0.523,0.184,-0.036,-0.843,0.237,0.4,-0.058,-0.514
739,0.291,-0.543,0.15,-0.052,-0.844,0.212,0.384,-0.033,-0.501
740,0.252,-0.582,0.114,-0.022,-0.897,0.198,0.384,-0.033,-0.501
741,0.211,-0.659,0.093,0.028,-0.946,0.173,0.402,-0.054,-0.502
742,0.198,-0.741,0.081,0.093,-0.971,0.124,0.387,-0.054,-0.501
743,0.226,-0.82,0.083,0.145,-0.977,0.043,0.366,-0.078,-0.492
744,0.254,-0.848,0.078,0.145,-0.977,0.043,0.372,-0.073,-0.513
745,0.28,-0.826,0.072,0.174,-0.978,0.0,0.379,-0.063,-0.502
746,0.314,-0.768,0.066,0.193,-0.979,-0.012,0.36,-0.067,-0.492
747,0.34,-0.676,0.065,0.218,-0.969,-0.019,0.36,-0.067,-0.492
748,0.34,-0.581,0.051,0.228,-0.941,-0.003,0.376,-0.055,-0.504
749,0.34,-0.581,0.051,0.221,-0.911,0.023,0.363,-0.057,-0.466
750,0.338,-0.487,0.042,0.225,-0.89,0.042,0.363,-0.057,-0.466
751,0.345,-0.441,0.035,0.232,-0.879,0.052,0.342,-0.055,-0.471
752,0.359,-0.439,0.035,0.248,-0.882,0.057,0.372,-0.064,-0.489
753,0.363,-0.442,0.035,0.262,-0.887,0.046,0.357,-0.081,-0.486
754,0.361,-0.415,0.026,0.262,-0.891,0.022,0.357,-0.072,-0.495
755,0.35,-0.371,0.0,0.266,-0.898,0.021,0.357,-0.072,-0.495
756,0.331,-0.308,-0.032,0.268,-0.912,0.045,0.346,-0.088,-0.468
757,0.308,-0.266,-0.046,0.267,-0.926,0.068,0.358,-0.078,-0.466
758,0.293,-0.219,-0.06,0.267,-0.934,0.077,0.355,-0.063,-0.465
759,0.276,-0.163,-0.069,0.269,-0.947,0.078,0.36,-0.073,-0.468
760,0.259,-0.126,-0.067,0.262,-0.953,0.084,0.354,-0.082,-0.478
761,0.24,-0.106,-0.065,0.249,-0.953,0.09,0.367,-0.067,-0.471
762,0.229,-0.098,-0.069,0.235,-0.943,0.088,0.367,-0.067,-0.471
763,0.22,-0.075,-0.08,0.213,-0.922,0.097,0.346,-0.066,-0.453
764,0.215,-0.063,-0.088,0.213,-0.922,0.097,0.346,-0.082,-0.466
765,0.234,-0.078,-0.102,0.203,-0.909,0.11,0.357,-0.073,-0.465
766,0.221,-0.047,-0.109,0.208,-0.912,0.104,0.36,-0.087,-0.457
767,0.221,-0.012,-0.121,0.194,-0.914,0.1,0.36,-0.076,-0.46
768,0.221,-0.012,-0.121,0.18,-0.907,0.103,0.36,-0.076,-0.46
769,0.226,-0.03,-0.141,0.194,-0.922,0.084,0.346,-0.087,-0.463
770,0.236,-0.047,-0.137,0.209,-0.926,0.052,0.345,-0.07,-0.442
771,0.26,-0.042,-0.134,0.211,-0.923,0.035,0.345,-0.07,-0.442
772,0.294,-0.051,-0.138,0.205,-0.926,0.03,0.352,-0.093,-0.459
773,0.316,-0.063,-0.148,0.199,-0.923,0.041,0.361,-0.078,-0.472
774,0.326,-0.065,-0.163,0.199,-0.942,0.064,0.363,-0.094,-0.465
775,0.336,-0.082,-0.165,0.193,-0.955,0.085,0.376,-0.091,-0.447
776,0.336,-0.114,-0.172,0.181,-0.951,0.09,0.376,-0.091,-0.447
777,0.332,-0.123,-0.182,0.167,-0.961,0.084,0.357,-0.099,-0.459
778,0.33,-0.141,-0.191,0.162,-0.974,0.076,0.37,-0.09,-0.445
779,0.332,-0.161,-0.205,0.16,-0.977,0.058,0.357,-0.082,-0.451
780,0.315,-0.153,-0.217,0.159,-0.966,0.046,0.381,-0.09,-0.447
781,0.304,-0.131,-0.231,0.166,-0.953,0.047,0.381,-0.091,-0.447
782,0.283,-0.128,-0.235,0.176,-0.954,0.044,0.379,-0.123,-0.447
783,0.268,-0.131,-0.233,0.18,-0.971,0.039,0.379,-0.123,-0.447
784,0.266,-0.127,-0.222,0.18,-0.971,0.039,0.358,-0.1,-0.448
785,0.268,-0.121,-0.204,0.179,-0.994,0.047,0.358,-0.1,-0.448
786,0.265,-0.113,-0.187,0.173,-1.007,0.066,0.367,-0.105,-0.447
787,0.258,-0.088,-0.173,0.164,-1.006,0.089,0.373,-0.088,-0.442
788,0.258,-0.088,-0.173,0.167,-0.994,0.103,0.387,-0.097,-0.427
789,0.245,-0.06,-0.162,0.183,-0.982,0.113,0.387,-0.097,-0.427
790,0.231,-0.048,-0.155,0.202,-0.965,0.113,0.375,-0.111,-0.445
791,0.217,-0.045,-0.141,0.227,-0.954,0.105,0.387,-0.112,-0.448
792,0.207,-0.037,-0.13,0.258,-0.965,0.105,0.384,-0.106,-0.453
793,0.2,-0.017,-0.122,0.285,-0.98,0.118,0.39,-0.108,-0.429
794,0.173,-0.002,-0.121,0.321,-0.997,0.114,0.382,-0.112,-0.442
795,0.121,0.004,-0.116,0.372,-1.042,0.073,0.381,-0.109,-0.469
796,0.069,0.033,-0.093,0.416,-1.113,0.029,0.381,-0.109,-0.469
797,0.025,0.09,-0.063,0.439,-1.176,0.008,0.394,-0.127,-0.462
798,-0.027,0.157,-0.041,0.467,-1.228,0.008,0.385,-0.12,-0.441
799,-0.095,0.233,-0.007,0.479,-1.265,-0.006,0.385,-0.12,-0.441
800,-0.157,0.324,0.031,0.414,-1.288,-0.026,0.394,-0.132,-0.457
801,-0.227,0.42,0.046,0.287,-1.289,0.0,0.394,-0.124,-0.448
802,-0.345,0.49,0.016,0.171,-1.27,0.047,0.399,-0.102,-0.447
803,-0.49,0.56,-0.028,0.171,-1.27,0.047,0.403,-0.102,-0.474
804,-0.623,0.645,-0.053,0.125,-1.24,0.046,0.403,-0.102,-0.474
805,-0.728,0.765,-0.06,0.111,-1.18,-0.001,0.402,-0.112,-0.457
806,-0.774,0.868,-0.023,0.14,-1.108,-0.086,0.415,-0.109,-0.445
807,-0.906,0.896,-0.086,0.087,-1.012,-0.043,0.423,-0.097,-0.465
808,-0.906,0.896,-0.086,-0.05,-0.901,0.052,0.436,-0.102,-0.478
809,-1.018,1.014,-0.137,-0.054,-0.871,0.025,0.433,-0.099,-0.457
810,-1.083,1.122,-0.121,-0.024,-0.828,0.0,0.433,-0.099,-0.457
811,-1.155,1.148,-0.137,-0.015,-0.827,0.044,0.421,-0.082,-0.487
812,-1.26,1.104,-0.157,0.02,-0.943,0.117,0.444,-0.079,-0.477
813,-1.367,1.015,-0.168,0.048,-1.033,0.135,0.453,-0.084,-0.501
814,-1.376,0.867,-0.179,0.068,-1.096,0.127,0.477,-0.09,-0.498
815,-1.402,0.739,-0.106,0.088,-1.133,0.096,0.463,-0.084,-0.501
816,-1.376,0.62,-0.04,0.077,-1.14,0.092,0.475,-0.064,-0.522
817,-1.369,0.478,-0.005,0.047,-1.14,0.142,0.475,-0.064,-0.522
818,-1.312,0.35,0.009,0.051,-1.124,0.123,0.459,-0.07,-0.513
819,-1.22,0.329,0.038,0.114,-1.113,-0.03,0.468,-0.066,-0.51
820,-1.124,0.469,0.057,0.148,-1.112,-0.078,0.468,-0.066,-0.51
821,-1.062,0.639,0.057,0.182,-1.06,-0.002,0.474,-0.054,-0.517
822,-0.983,0.735,0.072,0.182,-1.06,-0.002,0.456,-0.051,-0.52
823,-0.865,0.751,0.128,0.287,-1.017,0.047,0.472,-0.025,-0.535
824,-0.778,0.762,0.149,0.316,-1.006,0.111,0.472,-0.025,-0.535
825,-0.727,0.812,0.175,0.276,-1.005,0.151,0.489,-0.03,-0.519
826,-0.735,0.932,0.184,0.224,-1.019,0.206,0.466,-0.033,-0.526
827,-0.732,1.017,0.203,0.153,-1.03,0.27,0.48,-0.027,-0.534
828,-0.732,1.017,0.203,0.073,-1.018,0.303,0.484,-0.016,-0.543
829,-0.699,1.082,0.234,0.021,-0.965,0.304,0.495,-0.022,-0.55
830,-0.653,1.095,0.27,-0.016,-0.935,0.317,0.508,-0.034,-0.565
831,-0.613,1.042,0.326,-0.016,-0.949,0.306,0.508,-0.034,-0.565
832,-0.559,0.948,0.38,-0.002,-0.944,0.261,0.498,-0.022,-0.556
833,-0.48,0.875,0.438,-0.044,-0.905,0.236,0.511,-0.01,-0.559
834,-0.386,0.824,0.475,-0.07,-0.865,0.21,0.511,-0.01,-0.559
835,-0.296,0.82,0.501,-0.057,-0.856,0.187,0.495,-0.009,-0.55
836,-0.214,0.847,0.522,-0.042,-0.864,0.19,0.499,-0.007,-0.556
837,-0.153,0.868,0.536,-0.038,-0.858,0.222,0.51,-0.001,-0.574
838,-0.112,0.838,0.539,-0.02,-0.848,0.259,0.51,-0.001,-0.574
839,-0.09,0.776,0.522,-0.014,-0.834,0.285,0.511,-0.012,-0.561
840,-0.081,0.707,0.499,-0.016,-0.819,0.31,0.505,-0.013,-0.579
841,-0.072,0.627,0.472,-0.005,-0.817,0.33,0.492,0.012,-0.576
842,-0.06,0.576,0.472,-0.011,-0.8,0.332,0.525,-0.004,-0.568
843,-0.023,0.555,0.471,-0.011,-0.8,0.332,0.505,0.003,-0.567
844,0.086,0.545,0.471,-0.029,-0.769,0.32,0.523,0.001,-0.547
845,0.173,0.566,0.472,-0.023,-0.76,0.329,0.523,0.001,-0.547
846,0.256,0.589,0.457,0.02,-0.791,0.351,0.525,-0.022,-0.577
847,0.256,0.589,0.457,0.06,-0.806,0.35,0.507,-0.007,-0.555
848,0.312,0.601,0.461,0.095,-0.791,0.341,0.507,-0.007,-0.555
849,0.366,0.634,0.451,0.135,-0.779,0.347,0.517,0.009,-0.567
850,0.42,0.658,0.456,0.153,-0.759,0.371,0.535,-0.024,-0.555
851,0.487,0.67,0.473,0.171,-0.752,0.407,0.517,-0.012,-0.57
852,0.578,0.697,0.492,0.184,-0.742,0.443,0.531,-0.021,-0.577
853,0.688,0.687,0.524,0.211,-0.725,0.47,0.531,-0.021,-0.577
854,0.782,0.653,0.555,0.244,-0.741,0.506,0.534,-0.015,-0.567
855,0.816,0.614,0.567,0.258,-0.782,0.538,0.534,-0.028,-0.565
856,0.793,0.601,0.563,0.274,-0.822,0.518,0.552,-0.049,-0.543
857,0.737,0.659,0.552,0.285,-0.866,0.468,0.555,-0.033,-0.565
858,0.676,0.766,0.557,0.29,-0.897,0.429,0.543,-0.039,-0.559
859,0.632,0.863,0.548,0.284,-0.906,0.39,0.538,-0.048,-0.559
860,0.636,0.919,0.502,0.216,-0.897,0.351,0.538,-0.048,-0.559
861,0.641,0.925,0.429,0.135,-0.897,0.318,0.541,-0.049,-0.537
862,0.592,0.942,0.352,0.102,-0.941,0.28,0.558,-0.064,-0.546
863,0.485,0.967,0.294,0.102,-0.941,0.28,0.568,-0.07,-0.543
864,0.359,1.017,0.238,0.088,-1.024,0.253,0.561,-0.063,-0.541
865,0.268,1.047,0.189,0.048,-1.081,0.21,0.559,-0.07,-0.544
866,0.268,1.047,0.189,-0.033,-1.077,0.176,0.559,-0.07,-0.544
867,0.128,1.134,0.063,-0.122,-1.046,0.203,0.571,-0.07,-0.531
868,0.128,1.134,0.063,-0.206,-0.978,0.245,0.567,-0.066,-0.537
869,0.077,1.159,-0.011,-0.263,-0.826,0.254,0.567,-0.066,-0.537
870,0.147,0.991,-0.075,-0.275,-0.678,0.204,0.588,-0.072,-0.532
871,0.317,0.732,-0.137,-0.271,-0.606,0.011,0.604,-0.081,-0.541
872,0.543,0.553,-0.207,-0.266,-0.613,-0.204,0.576,-0.073,-0.538
873,0.725,0.546,-0.259,-0.174,-0.773,-0.215,0.576,-0.073,-0.538
874,0.764,0.697,-0.233,0.106,-1.095,0.001,0.597,-0.084,-0.546
875,0.627,0.89,-0.111,0.448,-1.483,0.381,0.603,-0.078,-0.511
876,0.42,0.931,0.03,0.636,-1.704,0.643,0.597,-0.112,-0.52
877,0.255,0.889,0.13,0.654,-1.622,0.616,0.618,-0.093,-0.532
878,0.162,0.799,0.203,0.567,-1.357,0.434,0.609,-0.075,-0.507
879,0.135,0.737,0.245,0.433,-1.056,0.19,0.618,-0.102,-0.516
880,0.236,0.732,0.249,0.278,-0.798,-0.067,0.618,-0.102,-0.516
881,0.431,0.821,0.208,0.139,-0.667,-0.218,0.625,-0.091,-0.51
882,0.583,1.077,0.128,0.075,-0.68,-0.188,0.615,-0.094,-0.517
883,0.623,1.43,0.031,0.075,-0.68,-0.188,0.615,-0.094,-0.517
884,0.541,1.698,-0.039,0.078,-0.755,-0.024,0.613,-0.1,-0.526
885,0.426,1.773,-0.053,0.134,-0.837,0.173,0.654,-0.111,-0.498
886,0.426,1.773,-0.053,0.208,-0.894,0.266,0.64,-0.106,-0.498
887,0.368,1.708,-0.012,0.259,-0.918,0.227,0.64,-0.106,-0.498
888,0.387,1.613,0.059,0.275,-0.936,0.134,0.667,-0.112,-0.493
889,0.437,1.56,0.133,0.268,-0.959,0.064,0.66,-0.127,-0.478
890,0.486,1.532,0.183,0.256,-0.978,0.056,0.673,-0.112,-0.475
891,0.515,1.495,0.213,0.248,-0.989,0.072,0.682,-0.127,-0.478
892,0.52,1.442,0.226,0.239,-1.001,0.094,0.679,-0.132,-0.448
893,0.501,1.395,0.228,0.206,-1.001,0.109,0.675,-0.132,-0.465
894,0.471,1.384,0.24,0.205,-0.998,0.083,0.675,-0.132,-0.465
895,0.426,1.391,0.207,0.215,-1.006,0.045,0.679,-0.121,-0.45
896,0.383,1.448,0.219,0.225,-0.997,0.042,0.684,-0.153,-0.442
897,0.365,1.494,0.174,0.219,-0.99,0.051,0.684,-0.153,-0.442
898,0.362,1.558,0.231,0.198,-0.986,0.035,0.7,-0.133,-0.432
899,0.394,1.564,0.267,0.207,-0.96,0.01,0.72,-0.135,-0.432
900,0.418,1.582,0.256,0.173,-0.951,-0.004,0.721,-0.13,-0.426
901,0.438,1.59,0.255,0.194,-0.953,-0.004,0.721,-0.13,-0.426
902,0.467,1.582,0.298,0.194,-0.941,-0.016,0.714,-0.15,-0.403
903,0.488,1.568,0.319,0.214,-0.925,-0.016,0.702,-0.168,-0.405
904,0.485,1.551,0.322,0.172,-0.935,-0.025,0.711,-0.159,-0.385
905,0.478,1.523,0.312,0.176,-0.935,-0.013,0.732,-0.163,-0.402
906,0.464,1.504,0.301,0.164,-0.949,-0.042,0.729,-0.15,-0.402
907,0.464,1.504,0.301,0.181,-0.964,-0.067,0.724,-0.159,-0.369
908,0.457,1.436,0.309,0.201,-0.975,-0.061,0.724,-0.159,-0.369
909,0.449,1.398,0.305,0.177,-1.006,-0.056,0.741,-0.177,-0.369
910,0.439,1.38,0.299,0.146,-1.02,-0.06,0.712,-0.178,-0.328
911,0.443,1.376,0.27,0.098,-0.997,-0.054,0.712,-0.178,-0.328
912,0.452,1.369,0.269,0.104,-1.004,-0.026,0.744,-0.172,-0.337
913,0.438,1.363,0.252,0.111,-1.028,-0.011,0.721,-0.172,-0.319
914,0.423,1.369,0.233,0.097,-1.02,-0.007,0.709,-0.165,-0.321
915,0.401,1.384,0.203,0.094,-1.004,-0.013,0.709,-0.165,-0.321
916,0.368,1.404,0.175,0.104,-0.997,-0.004,0.735,-0.187,-0.313
917,0.336,1.366,0.151,0.115,-1.006,0.014,0.736,-0.175,-0.315
918,0.317,1.309,0.147,0.119,-1.01,0.012,0.724,-0.186,-0.294
919,0.315,1.286,0.14,0.104,-1.014,0.007,0.733,-0.178,-0.285
920,0.287,1.264,0.118,0.085,-1.012,0.008,0.724,-0.192,-0.307
921,0.268,1.195,0.097,0.097,-1.002,-0.013,0.741,-0.168,-0.303
922,0.266,1.148,0.093,0.097,-1.002,-0.013,0.741,-0.168,-0.303
923,0.272,1.18,0.084,0.101,-1.01,-0.078,0.726,-0.183,-0.279
924,0.292,1.204,0.076,0.078,-1.004,-0.102,0.727,-0.177,-0.247
925,0.287,1.219,0.06,0.072,-0.992,-0.054,0.738,-0.198,-0.261
926,0.27,1.19,0.053,0.115,-0.983,-0.004,0.732,-0.177,-0.271
927,0.27,1.19,0.053,0.162,-0.969,0.026,0.715,-0.195,-0.262
928,0.241,1.136,0.032,0.199,-0.966,0.04,0.721,-0.186,-0.243
929,0.203,1.079,0.011,0.233,-0.984,0.04,0.721,-0.186,-0.243
930,0.174,1.008,0.004,0.257,-1.006,0.016,0.73,-0.184,-0.247
931,0.165,0.989,0.007,0.251,-1.009,-0.038,0.736,-0.183,-0.211
932,0.182,1.011,0.011,0.182,-1.007,-0.067,0.736,-0.183,-0.211
933,0.203,1.039,-0.007,0.075,-0.998,-0.004,0.733,-0.177,-0.226
934,0.191,1.013,-0.045,-0.004,-1.002,0.1,0.735,-0.19,-0.237
935,0.131,0.931,-0.098,-0.037,-1.024,0.176,0.733,-0.184,-0.211
936,0.061,0.807,-0.143,-0.033,-1.04,0.176,0.733,-0.184,-0.211
937,0.006,0.707,-0.173,-0.002,-1.039,0.114,0.732,-0.184,-0.207
938,-0.033,0.661,-0.203,0.045,-1.029,0.06,0.742,-0.198,-0.208
939,-0.063,0.63,-0.218,0.1,-1.02,0.042,0.714,-0.186,-0.202
940,-0.086,0.606,-0.232,0.14,-1.02,0.041,0.735,-0.184,-0.202
941,-0.101,0.598,-0.242,0.14,-1.02,0.041,0.75,-0.199,-0.207
942,-0.105,0.585,-0.244,0.167,-1.023,0.036,0.739,-0.178,-0.201
943,-0.091,0.589,-0.245,0.177,-1.014,0.016,0.739,-0.178,-0.201
944,-0.077,0.607,-0.252,0.174,-1.011,-0.011,0.748,-0.189,-0.207
945,-0.077,0.607,-0.252,0.171,-1.022,-0.011,0.72,-0.19,-0.166
946,-0.092,0.629,-0.289,0.182,-1.039,0.013,0.72,-0.19,-0.166
947,-0.092,0.629,-0.289,0.209,-1.059,0.049,0.745,-0.192,-0.202
948,-0.132,0.625,-0.307,0.237,-1.068,0.078,0.75,-0.184,-0.184
949,-0.161,0.602,-0.304,0.269,-1.056,0.083,0.748,-0.162,-0.193
950,-0.168,0.586,-0.281,0.292,-1.035,0.074,0.748,-0.162,-0.193
951,-0.162,0.594,-0.249,0.284,-1.015,0.069,0.747,-0.19,-0.183
952,-0.159,0.622,-0.219,0.259,-0.98,0.063,0.738,-0.18,-0.163
953,-0.169,0.676,-0.205,0.228,-0.939,0.043,0.745,-0.181,-0.172
954,-0.19,0.747,-0.207,0.201,-0.904,0.021,0.748,-0.165,-0.193
955,-0.208,0.831,-0.212,0.186,-0.881,0.007,0.741,-0.186,-0.175
956,-0.203,0.905,-0.21,0.194,-0.874,0.007,0.745,-0.165,-0.18
957,-0.191,0.956,-0.198,0.21,-0.876,0.029,0.745,-0.165,-0.18
958,-0.204,1.005,-0.191,0.208,-0.892,0.054,0.754,-0.184,-0.175
959,-0.233,1.066,-0.178,0.213,-0.903,0.058,0.727,-0.18,-0.16
960,-0.265,1.113,-0.159,0.224,-0.908,0.057,0.727,-0.18,-0.16
961,-0.306,1.138,-0.133,0.214,-0.914,0.05,0.748,-0.148,-0.162
962,-0.36,1.166,-0.104,0.214,-0.914,0.05,0.738,-0.187,-0.154
963,-0.385,1.157,-0.052,0.194,-0.926,0.042,0.736,-0.169,-0.154
964,-0.445,1.166,-0.017,0.175,-0.915,0.023,0.736,-0.169,-0.154
965,-0.445,1.166,-0.017,0.151,-0.929,0.023,0.736,-0.172,-0.175
966,-0.495,1.147,0.029,0.116,-0.952,0.046,0.724,-0.174,-0.16
967,-0.52,1.08,0.088,0.092,-0.96,0.062,0.712,-0.187,-0.153
968,-0.522,0.991,0.156,0.067,-0.966,0.081,0.718,-0.195,-0.162
969,-0.369,1.059,0.179,-0.005,-0.993,0.095,0.726,-0.19,-0.15
970,-0.45,1.038,0.232,-0.007,-1.008,0.266,0.718,-0.175,-0.156
971,-0.55,0.716,0.27,0.069,-0.999,0.257,0.718,-0.175,-0.156
972,-0.5,0.7,0.309,0.085,-1.021,0.05,0.72,-0.181,-0.172
973,-0.443,0.763,0.331,0.074,-1.013,0.025,0.702,-0.172,-0.147
974,-0.413,0.833,0.336,0.101,-1.009,0.043,0.709,-0.204,-0.156
975,-0.36,0.86,0.376,0.147,-1.007,0.054,0.711,-0.19,-0.175
976,-0.356,0.872,0.403,0.148,-1.015,0.078,0.672,-0.189,-0.157
977,-0.346,0.85,0.424,0.144,-1.074,0.116,0.694,-0.181,-0.168
978,-0.373,0.847,0.457,0.158,-1.132,0.161,0.694,-0.181,-0.168
979,-0.373,0.786,0.495,0.157,-1.153,0.178,0.681,-0.186,-0.16
980,-0.33,0.699,0.576,0.199,-1.15,0.164,0.66,-0.205,-0.156
981,-0.317,0.59,0.671,0.199,-1.108,0.162,0.66,-0.205,-0.156
982,-0.253,0.466,0.765,0.207,-1.108,0.162,0.67,-0.198,-0.145
983,-0.172,0.379,0.848,0.18,-1.064,0.133,0.667,-0.202,-0.171
984,-0.053,0.348,0.929,0.192,-1.037,0.086,0.66,-0.202,-0.144
985,-0.053,0.348,0.929,0.191,-0.987,0.007,0.66,-0.202,-0.144
986,0.105,0.422,1.027,0.209,-0.97,-0.017,0.663,-0.207,-0.147
987,0.259,0.64,1.097,0.253,-0.992,-0.041,0.643,-0.201,-0.136
988,0.266,0.886,1.102,0.222,-1.02,-0.018,0.624,-0.214,-0.144
989,0.198,1.131,1.015,0.137,-1.034,0.121,0.625,-0.201,-0.168
990,0.121,1.308,0.933,0.088,-1.038,0.207,0.61,-0.205,-0.15
991,-0.002,1.415,0.84,0.064,-1.035,0.229,0.607,-0.211,-0.148
992,-0.126,1.501,0.757,0.056,-1.018,0.219,0.607,-0.211,-0.148
993,-0.238,1.526,0.683,0.051,-1.018,0.215,0.622,-0.216,-0.13
994,-0.298,1.54,0.616,0.049,-1.017,0.213,0.565,-0.208,-0.141
995,-0.315,1.509,0.558,0.053,-1.014,0.223,0.565,-0.208,-0.141
996,-0.318,1.45,0.509,0.056,-1.017,0.221,0.589,-0.222,-0.136
997,-0.312,1.372,0.467,0.05,-1.013,0.211,0.562,-0.225,-0.127
998,-0.307,1.299,0.432,0.047,-1.013,0.222,0.561,-0.219,-0.127
999,-0.31,1.239,0.397,0.045,-1.015,0.259,0.561,-0.219,-0.127
1000,-0.323,1.194,0.358,0.045,-1.017,0.292,0.567,-0.226,-0.144
1001,-0.33,1.174,0.315,0.066,-1.02,0.292,0.559,-0.214,-0.145
1002,-0.325,1.164,0.29,0.066,-1.02,0.292,0.531,-0.225,-0.156
1003,-0.307,1.145,0.273,0.077,-1.002,0.294,0.552,-0.229,-0.132
1004,-0.29,1.102,0.24,0.069,-0.958,0.289,0.558,-0.217,-0.142
1005,-0.29,1.102,0.24,0.039,-0.918,0.294,0.532,-0.205,-0.172
1006,-0.28,1.053,0.2,0.015,-0.893,0.295,0.532,-0.205,-0.172
1007,-0.263,1.003,0.154,0.018,-0.875,0.29,0.538,-0.22,-0.154
1008,-0.24,0.989,0.133,-0.009,-0.828,0.314,0.517,-0.217,-0.141
1009,-0.2,0.934,0.066,-0.011,-0.816,0.334,0.517,-0.217,-0.141
1010,-0.182,0.876,0.031,0.02,-0.81,0.331,0.532,-0.217,-0.139
1011,-0.179,0.816,-0.014,0.047,-0.802,0.31,0.522,-0.217,-0.175
1012,-0.164,0.777,-0.046,0.043,-0.8,0.308,0.528,-0.214,-0.172
1013,-0.123,0.727,-0.099,0.013,-0.764,0.313,0.528,-0.214,-0.172
1014,-0.074,0.656,-0.115,0.0,-0.739,0.329,0.534,-0.205,-0.174
1015,-0.018,0.577,-0.088,-0.021,-0.706,0.338,0.522,-0.205,-0.154
1016,0.031,0.483,-0.127,0.001,-0.711,0.363,0.522,-0.205,-0.154
1017,0.08,0.42,-0.135,0.048,-0.734,0.396,0.519,-0.226,-0.172
1018,0.118,0.362,-0.098,0.036,-0.7,0.395,0.535,-0.21,-0.174
1019,0.158,0.307,-0.082,0.032,-0.67,0.408,0.538,-0.213,-0.172
1020,0.207,0.257,-0.098,0.087,-0.722,0.434,0.538,-0.213,-0.172
1021,0.259,0.212,-0.075,0.087,-0.722,0.434,0.535,-0.228,-0.175
1022,0.303,0.152,-0.061,0.114,-0.734,0.444,0.519,-0.21,-0.138
1023,0.335,0.089,-0.049,0.106,-0.698,0.45,0.514,-0.22,-0.145
1024,0.359,0.056,-0.044,0.105,-0.697,0.455,0.552,-0.213,-0.163
1025,0.379,0.039,-0.034,0.103,-0.708,0.472,0.531,-0.22,-0.145
1026,0.379,0.039,-0.034,0.105,-0.716,0.494,0.543,-0.214,-0.168
1027,0.404,0.041,-0.016,0.105,-0.719,0.499,0.543,-0.214,-0.168
1028,0.438,0.05,0.007,0.103,-0.736,0.514,0.523,-0.222,-0.166
1029,0.459,0.071,0.032,0.105,-0.761,0.543,0.52,-0.207,-0.138
1030,0.462,0.098,0.058,0.111,-0.799,0.594,0.52,-0.207,-0.138
1031,0.449,0.116,0.085,0.122,-0.823,0.622,0.522,-0.219,-0.15
1032,0.452,0.125,0.102,0.141,-0.843,0.633,0.547,-0.198,-0.138
1033,0.452,0.094,0.112,0.177,-0.892,0.642,0.522,-0.213,-0.144
1034,0.422,0.016,0.126,0.224,-0.965,0.63,0.522,-0.213,-0.144
1035,0.363,-0.093,0.149,0.249,-1.051,0.592,0.523,-0.213,-0.117
1036,0.328,-0.168,0.163,0.224,-1.125,0.549,0.553,-0.201,-0.133
1037,0.291,-0.196,0.188,0.127,-1.125,0.602,0.526,-0.195,-0.139
1038,0.249,-0.075,0.184,0.019,-1.03,0.683,0.523,-0.199,-0.132
1039,0.173,0.112,0.158,-0.056,-0.935,0.733,0.537,-0.208,-0.117
1040,0.124,0.294,0.086,-0.056,-0.935,0.733,0.535,-0.205,-0.135
1041,0.103,0.411,0.002,-0.109,-0.859,0.68,0.535,-0.205,-0.135
1042,0.051,0.34,-0.056,-0.115,-0.889,0.541,0.547,-0.216,-0.138
1043,0.025,0.049,-0.085,-0.081,-1.065,0.449,0.522,-0.226,-0.121
1044,0.103,-0.367,-0.07,-0.025,-1.253,0.352,0.522,-0.226,-0.121
1045,0.103,-0.367,-0.07,0.021,-1.394,0.211,0.531,-0.207,-0.111
1046,0.256,-0.705,-0.034,0.079,-1.49,0.08,0.544,-0.193,-0.115
1047,0.279,-0.772,-0.002,0.182,-1.549,0.063,0.543,-0.219,-0.118
1048,0.122,-0.546,0.027,0.246,-1.462,0.196,0.543,-0.219,-0.118
1049,-0.142,-0.259,0.077,0.222,-1.186,0.409,0.549,-0.205,-0.118
1050,-0.334,-0.227,0.158,0.156,-0.828,0.442,0.54,-0.213,-0.115
1051,-0.26,-0.527,0.212,0.05,-0.485,0.244,0.54,-0.201,-0.124
1052,-0.014,-0.994,0.182,-0.059,-0.267,0.011,0.553,-0.208,-0.132
1053,0.161,-1.219,0.079,-0.061,-0.308,-0.151,0.544,-0.205,-0.138
1054,0.161,-1.054,-0.032,0.088,-0.581,-0.165,0.543,-0.196,-0.121
1055,0.04,-0.717,-0.092,0.316,-0.893,-0.076,0.543,-0.196,-0.121
1056,-0.009,-0.528,-0.102,0.484,-1.106,0.004,0.57,-0.195,-0.129
1057,0.074,-0.556,-0.07,0.547,-1.199,-0.01,0.535,-0.196,-0.133
1058,0.205,-0.63,0.013,0.542,-1.208,-0.094,0.535,-0.196,-0.133
1059,0.282,-0.609,0.099,0.428,-1.141,-0.129,0.561,-0.195,-0.127
1060,0.263,-0.496,0.101,0.428,-1.141,-0.129,0.562,-0.199,-0.121
1061,0.214,-0.431,0.099,0.236,-0.994,-0.045,0.562,-0.199,-0.118
1062,0.182,-0.469,0.079,0.062,-0.85,0.12,0.562,-0.199,-0.118
1063,0.182,-0.616,0.044,-0.065,-0.766,0.259,0.565,-0.198,-0.124
1064,0.182,-0.616,0.044,-0.124,-0.749,0.331,0.576,-0.198,-0.126
1065,0.217,-0.84,0.033,-0.103,-0.814,0.351,0.576,-0.198,-0.126
1066,0.242,-1.102,0.058,-0.029,-0.894,0.298,0.565,-0.217,-0.121
1067,0.319,-1.259,0.05,0.072,-0.955,0.145,0.571,-0.193,-0.126
1068,0.312,-1.246,0.03,0.18,-1.014,0.0,0.574,-0.195,-0.105
1069,0.255,-1.178,0.028,0.278,-1.049,-0.045,0.582,-0.201,-0.138
1070,0.206,-1.115,0.032,0.356,-1.049,-0.066,0.582,-0.201,-0.138
1071,0.213,-1.039,0.037,0.394,-1.011,-0.101,0.571,-0.204,-0.097
1072,0.292,-0.891,0.037,0.394,-0.954,-0.154,0.571,-0.204,-0.097
1073,0.308,-0.666,0.012,0.364,-0.913,-0.125,0.574,-0.201,-0.127
1074,0.319,-0.529,0.004,0.328,-0.864,-0.034,0.592,-0.199,-0.127
1075,0.319,-0.457,-0.009,0.303,-0.805,-0.006,0.588,-0.19,-0.12
1076,0.324,-0.409,-0.035,0.308,-0.806,-0.018,0.588,-0.19,-0.12
1077,0.286,-0.354,-0.083,0.326,-0.842,-0.023,0.591,-0.193,-0.127
1078,0.303,-0.331,-0.087,0.337,-0.87,-0.026,0.591,-0.186,-0.121
1079,0.286,-0.275,-0.11,0.345,-0.922,-0.014,0.597,-0.202,-0.108
1080,0.299,-0.254,-0.092,0.345,-0.922,-0.014,0.6,-0.181,-0.103
1081,0.284,-0.221,-0.081,0.307,-0.934,0.012,0.594,-0.199,-0.117
1082,0.258,-0.175,-0.077,0.268,-0.944,0.042,0.604,-0.192,-0.118
1083,0.258,-0.144,-0.067,0.257,-0.977,0.057,0.604,-0.192,-0.118
1084,0.261,-0.124,-0.059,0.246,-0.974,0.051,0.604,-0.184,-0.108
1085,0.261,-0.124,-0.059,0.234,-0.977,0.052,0.598,-0.213,-0.09
1086,0.249,-0.124,-0.06,0.209,-0.98,0.075,0.603,-0.193,-0.108
1087,0.229,-0.153,-0.071,0.192,-0.967,0.105,0.615,-0.175,-0.106
1088,0.207,-0.207,-0.081,0.191,-0.954,0.114,0.603,-0.187,-0.103
1089,0.196,-0.266,-0.086,0.198,-0.928,0.094,0.616,-0.202,-0.078
1090,0.17,-0.291,-0.097,0.196,-0.873,0.056,0.616,-0.202,-0.078
1091,0.193,-0.288,-0.116,0.194,-0.847,0.017,0.616,-0.184,-0.094
1092,0.244,-0.268,-0.14,0.197,-0.842,-0.006,0.606,-0.159,-0.087
1093,0.289,-0.239,-0.164,0.202,-0.842,-0.016,0.606,-0.159,-0.087
1094,0.323,-0.219,-0.189,0.209,-0.864,0.008,0.6,-0.171,-0.094
1095,0.364,-0.236,-0.209,0.212,-0.892,0.06,0.625,-0.18,-0.084
1096,0.389,-0.25,-0.226,0.222,-0.92,0.074,0.612,-0.174,-0.075
1097,0.415,-0.266,-0.239,0.233,-0.936,0.069,0.612,-0.174,-0.075
1098,0.429,-0.287,-0.249,0.236,-0.934,0.079,0.624,-0.175,-0.085
1099,0.422,-0.316,-0.256,0.236,-0.934,0.079,0.616,-0.183,-0.082
1100,0.401,-0.333,-0.266,0.242,-0.932,0.081,0.619,-0.174,-0.079
1101,0.378,-0.333,-0.277,0.244,-0.932,0.067,0.636,-0.178,-0.072
1102,0.333,-0.296,-0.298,0.244,-0.943,0.041,0.631,-0.181,-0.069
1103,0.327,-0.276,-0.3,0.213,-0.956,0.052,0.64,-0.175,-0.079
1104,0.327,-0.276,-0.3,0.204,-0.957,0.063,0.64,-0.175,-0.079
1105,0.315,-0.261,-0.299,0.236,-0.97,0.061,0.655,-0.154,-0.055
1106,0.288,-0.256,-0.294,0.254,-0.989,0.067,0.633,-0.163,-0.066
1107,0.26,-0.263,-0.277,0.275,-1.007,0.053,0.633,-0.163,-0.066
1108,0.233,-0.274,-0.25,0.296,-1.028,0.046,0.643,-0.156,-0.084
1109,0.201,-0.265,-0.221,0.304,-1.03,0.05,0.648,-0.159,-0.078
1110,0.17,-0.235,-0.196,0.322,-1.012,0.037,0.637,-0.157,-0.067
1111,0.149,-0.172,-0.176,0.346,-0.992,0.025,0.637,-0.157,-0.067
1112,0.144,-0.097,-0.154,0.35,-0.958,0.037,0.642,-0.157,-0.079
1113,0.148,-0.045,-0.134,0.333,-0.938,0.075,0.646,-0.154,-0.076
1114,0.147,-0.028,-0.116,0.309,-0.945,0.127,0.649,-0.157,-0.066
1115,0.142,-0.043,-0.114,0.296,-0.96,0.184,0.631,-0.166,-0.079
1116,0.113,-0.074,-0.12,0.289,-0.987,0.225,0.645,-0.15,-0.063
1117,0.07,-0.112,-0.133,0.294,-0.998,0.216,0.651,-0.165,-0.058
1118,0.03,-0.125,-0.156,0.321,-0.973,0.168,0.651,-0.165,-0.058
1119,-0.004,-0.127,-0.171,0.378,-0.971,0.095,0.645,-0.159,-0.084
1120,-0.044,-0.109,-0.156,0.426,-1.023,0.06,0.64,-0.147,-0.049
1121,-0.112,-0.07,-0.122,0.426,-1.023,0.06,0.64,-0.147,-0.049
1122,-0.19,0.021,-0.081,0.467,-1.101,0.075,0.657,-0.154,-0.066
1123,-0.276,0.17,-0.046,0.517,-1.184,0.053,0.669,-0.178,-0.07
1124,-0.276,0.17,-0.046,0.538,-1.234,-0.034,0.648,-0.162,-0.079
1125,-0.359,0.371,-0.014,0.49,-1.248,-0.122,0.648,-0.162,-0.079
1126,-0.464,0.573,0.0,0.364,-1.241,-0.137,0.649,-0.153,-0.079
1127,-0.582,0.724,0.004,0.204,-1.224,-0.07,0.658,-0.159,-0.084
1128,-0.842,0.779,-0.045,0.061,-1.265,0.003,0.64,-0.165,-0.066
1129,-1.054,0.836,-0.044,0.005,-1.261,-0.035,0.648,-0.157,-0.087
1130,-1.177,0.901,-0.017,-0.011,-1.193,-0.061,0.649,-0.186,-0.102
1131,-1.292,0.891,0.005,-0.034,-1.17,0.008,0.628,-0.16,-0.091
1132,-1.391,0.826,0.014,-0.054,-1.151,0.068,0.628,-0.16,-0.091
1133,-1.455,0.686,0.027,-0.06,-1.159,0.131,0.643,-0.174,-0.1
1134,-1.491,0.519,0.03,-0.062,-1.177,0.177,0.61,-0.19,-0.099
1135,-1.509,0.342,0.01,-0.069,-1.192,0.2,0.634,-0.171,-0.117
1136,-1.498,0.141,0.002,-0.049,-1.207,0.204,0.639,-0.19,-0.144
1137,-1.459,-0.026,0.003,-0.032,-1.179,0.173,0.652,-0.186,-0.141
1138,-1.383,-0.136,0.026,-0.017,-1.141,0.13,0.642,-0.181,-0.162
1139,-1.334,-0.161,0.028,-0.01,-1.107,0.084,0.642,-0.181,-0.162
1140,-1.296,-0.088,0.017,-0.01,-1.107,0.084,0.634,-0.198,-0.168
1141,-1.196,-0.015,0.015,0.02,-1.035,0.038,0.634,-0.186,-0.16
1142,-1.02,0.097,0.034,0.073,-0.95,-0.012,0.634,-0.186,-0.16
1143,-0.975,0.287,0.013,0.142,-0.896,-0.056,0.639,-0.208,-0.202
1144,-0.975,0.287,0.013,0.156,-0.882,0.005,0.637,-0.193,-0.202
1145,-0.961,0.452,-0.02,0.143,-0.891,0.048,0.633,-0.196,-0.193
1146,-0.924,0.653,0.0,0.207,-0.938,0.037,0.633,-0.196,-0.193
1147,-0.928,0.814,0.043,0.238,-1.003,0.123,0.624,-0.18,-0.21
1148,-0.898,0.852,0.081,0.218,-1.006,0.223,0.649,-0.199,-0.208
1149,-0.847,0.896,0.123,0.187,-0.985,0.271,0.637,-0.204,-0.223
1150,-0.793,0.976,0.192,0.117,-0.956,0.307,0.631,-0.19,-0.211
1151,-0.709,0.968,0.221,0.033,-0.884,0.319,0.651,-0.207,-0.219
1152,-0.593,0.864,0.242,0.003,-0.868,0.324,0.628,-0.202,-0.234
1153,-0.541,0.73,0.296,-0.009,-0.914,0.339,0.628,-0.202,-0.234
1154,-0.508,0.656,0.335,-0.042,-0.901,0.291,0.631,-0.211,-0.237
1155,-0.473,0.67,0.355,-0.091,-0.847,0.233,0.612,-0.205,-0.228
1156,-0.417,0.718,0.359,-0.108,-0.81,0.208,0.612,-0.205,-0.228
1157,-0.362,0.756,0.347,-0.119,-0.782,0.225,0.621,-0.186,-0.232
1158,-0.295,0.739,0.335,-0.119,-0.782,0.225,0.621,-0.195,-0.241
1159,-0.231,0.656,0.274,-0.108,-0.746,0.252,0.625,-0.199,-0.228
1160,-0.177,0.545,0.206,-0.105,-0.697,0.276,0.625,-0.199,-0.228
1161,-0.138,0.443,0.17,-0.078,-0.707,0.31,0.609,-0.214,-0.231
1162,-0.093,0.343,0.165,-0.044,-0.724,0.336,0.619,-0.207,-0.246
1163,-0.028,0.283,0.163,-0.029,-0.727,0.345,0.618,-0.207,-0.232
1164,-0.028,0.283,0.163,0.009,-0.754,0.339,0.63,-0.202,-0.232
1165,0.033,0.238,0.173,0.014,-0.75,0.336,0.619,-0.207,-0.247
1166,0.09,0.2,0.193,0.026,-0.74,0.339,0.627,-0.198,-0.249
1167,0.172,0.14,0.191,0.038,-0.716,0.338,0.627,-0.198,-0.249
1168,0.252,0.079,0.163,0.066,-0.721,0.364,0.609,-0.205,-0.243
1169,0.29,0.049,0.172,0.096,-0.738,0.396,0.612,-0.196,-0.217
1170,0.321,0.039,0.176,0.094,-0.708,0.413,0.612,-0.196,-0.217
1171,0.367,0.026,0.159,0.09,-0.685,0.437,0.612,-0.205,-0.231
1172,0.425,0.025,0.152,0.088,-0.68,0.444,0.61,-0.213,-0.216
1173,0.489,0.026,0.144,0.08,-0.675,0.442,0.619,-0.204,-0.235
1174,0.541,0.025,0.138,0.079,-0.687,0.442,0.607,-0.219,-0.22
1175,0.583,0.025,0.143,0.075,-0.706,0.439,0.607,-0.219,-0.22
1176,0.618,0.011,0.157,0.061,-0.737,0.439,0.616,-0.208,-0.226
1177,0.637,0.003,0.165,0.057,-0.776,0.438,0.606,-0.198,-0.219
1178,0.635,0.002,0.175,0.064,-0.814,0.441,0.603,-0.208,-0.208
1179,0.62,-0.011,0.184,0.064,-0.814,0.441,0.594,-0.195,-0.199
1180,0.596,-0.043,0.206,0.066,-0.847,0.455,0.597,-0.199,-0.208
1181,0.587,-0.072,0.218,0.062,-0.854,0.466,0.597,-0.199,-0.208
1182,0.569,-0.1,0.231,0.073,-0.874,0.474,0.601,-0.213,-0.186
1183,0.569,-0.1,0.231,0.097,-0.908,0.475,0.601,-0.213,-0.186
1184,0.546,-0.128,0.24,0.137,-0.931,0.47,0.582,-0.198,-0.189
1185,0.519,-0.151,0.248,0.167,-0.948,0.489,0.589,-0.204,-0.187
1186,0.476,-0.132,0.238,0.189,-0.965,0.508,0.607,-0.204,-0.196
1187,0.388,-0.082,0.217,0.218,-0.986,0.511,0.586,-0.202,-0.189
1188,0.288,-0.042,0.192,0.224,-1.01,0.52,0.586,-0.202,-0.189
1189,0.182,-0.015,0.17,0.21,-1.036,0.522,0.592,-0.199,-0.19
1190,0.105,0.03,0.169,0.206,-1.073,0.522,0.579,-0.216,-0.18
1191,0.068,0.104,0.168,0.207,-1.085,0.534,0.579,-0.216,-0.18
1192,0.061,0.233,0.172,0.171,-1.044,0.575,0.577,-0.216,-0.175
1193,0.034,0.41,0.152,0.118,-0.944,0.613,0.586,-0.222,-0.172
1194,0.004,0.541,0.114,0.084,-0.784,0.59,0.592,-0.21,-0.19
1195,0.05,0.571,0.072,0.046,-0.646,0.488,0.592,-0.21,-0.19
1196,0.133,0.499,0.047,0.013,-0.623,0.376,0.577,-0.226,-0.172
1197,0.201,0.333,0.049,0.013,-0.716,0.286,0.583,-0.21,-0.186
1198,0.226,0.128,0.05,0.022,-0.883,0.21,0.576,-0.208,-0.18
1199,0.228,0.0,0.019,0.022,-0.883,0.21,0.595,-0.202,-0.184
1200,0.206,-0.044,-0.047,0.002,-1.068,0.19,0.577,-0.199,-0.172
1201,0.137,0.028,-0.128,-0.034,-1.247,0.219,0.583,-0.198,-0.172
1202,0.137,0.028,-0.128,-0.024,-1.417,0.288,0.583,-0.198,-0.172
1203,0.059,0.165,-0.191,0.015,-1.521,0.374,0.594,-0.213,-0.163
1204,0.001,0.246,-0.207,0.071,-1.498,0.422,0.574,-0.222,-0.174
1205,-0.046,0.206,-0.168,0.126,-1.345,0.399,0.574,-0.222,-0.174
1206,-0.035,0.055,-0.11,0.116,-1.107,0.306,0.591,-0.21,-0.166
1207,0.05,-0.131,-0.066,0.047,-0.874,0.211,0.592,-0.213,-0.166
1208,0.119,-0.234,-0.053,0.001,-0.742,0.16,0.588,-0.198,-0.163
1209,0.13,-0.245,-0.07,0.019,-0.707,0.129,0.588,-0.198,-0.163
1210,0.105,-0.219,-0.092,0.081,-0.729,0.094,0.589,-0.213,-0.171
1211,0.086,-0.196,-0.098,0.15,-0.777,0.07,0.573,-0.205,-0.178
1212,0.077,-0.203,-0.091,0.209,-0.818,0.054,0.579,-0.201,-0.159
1213,0.119,-0.205,-0.07,0.254,-0.846,0.024,0.6,-0.196,-0.171
1214,0.197,-0.206,-0.047,0.277,-0.887,0.009,0.591,-0.217,-0.151
1215,0.257,-0.213,-0.033,0.283,-0.956,0.024,0.594,-0.195,-0.174
1216,0.277,-0.217,-0.019,0.28,-1.031,0.046,0.594,-0.195,-0.174
1217,0.268,-0.203,0.0,0.26,-1.078,0.056,0.579,-0.199,-0.153
1218,0.252,-0.175,0.014,0.22,-1.093,0.08,0.589,-0.208,-0.156
1219,0.234,-0.168,0.032,0.22,-1.093,0.08,0.589,-0.208,-0.156
1220,0.204,-0.197,0.032,0.161,-1.076,0.128,0.597,-0.187,-0.169
1221,0.204,-0.238,0.045,0.1,-1.032,0.168,0.583,-0.201,-0.163
1222,0.219,-0.28,0.056,0.062,-0.98,0.17,0.6,-0.21,-0.163
1223,0.219,-0.28,0.056,0.05,-0.938,0.158,0.6,-0.21,-0.163
1224,0.231,-0.325,0.061,0.057,-0.919,0.155,0.58,-0.18,-0.166
1225,0.238,-0.368,0.062,0.086,-0.918,0.129,0.592,-0.214,-0.157
1226,0.234,-0.404,0.06,0.126,-0.936,0.095,0.577,-0.196,-0.148
1227,0.223,-0.427,0.066,0.158,-0.955,0.063,0.588,-0.217,-0.156
1228,0.206,-0.415,0.058,0.19,-0.971,0.044,0.597,-0.208,-0.159
1229,0.203,-0.38,0.06,0.229,-0.979,0.046,0.603,-0.213,-0.154
1230,0.218,-0.343,0.082,0.251,-0.975,0.059,0.603,-0.213,-0.154
1231,0.228,-0.325,0.095,0.252,-0.958,0.097,0.597,-0.189,-0.174
1232,0.228,-0.338,0.097,0.247,-0.932,0.134,0.586,-0.186,-0.16
1233,0.261,-0.378,0.105,0.244,-0.905,0.122,0.586,-0.186,-0.16
1234,0.281,-0.382,0.093,0.237,-0.895,0.099,0.58,-0.208,-0.154
1235,0.271,-0.345,0.069,0.219,-0.9,0.098,0.594,-0.198,-0.157
1236,0.232,-0.296,0.043,0.208,-0.9,0.107,0.592,-0.193,-0.168
1237,0.21,-0.259,0.034,0.225,-0.908,0.115,0.592,-0.193,-0.168
1238,0.217,-0.267,0.035,0.225,-0.908,0.115,0.597,-0.19,-0.142
1239,0.229,-0.3,0.046,0.25,-0.923,0.114,0.561,-0.192,-0.123
1240,0.243,-0.308,0.06,0.258,-0.93,0.087,0.561,-0.192,-0.123
1241,0.255,-0.268,0.069,0.248,-0.932,0.043,0.589,-0.189,-0.145
1242,0.258,-0.217,0.067,0.227,-0.943,0.024,0.582,-0.198,-0.135
1243,0.258,-0.217,0.067,0.216,-0.953,0.051,0.594,-0.202,-0.148
1244,0.247,-0.196,0.059,0.208,-0.967,0.093,0.594,-0.202,-0.148
1245,0.234,-0.201,0.052,0.198,-0.97,0.108,0.591,-0.198,-0.145
1246,0.224,-0.202,0.042,0.193,-0.963,0.106,0.558,-0.177,-0.145
1247,0.214,-0.195,0.028,0.188,-0.952,0.099,0.579,-0.199,-0.148
1248,0.196,-0.185,0.016,0.195,-0.949,0.098,0.58,-0.192,-0.126
1249,0.176,-0.18,0.003,0.201,-0.955,0.089,0.588,-0.202,-0.145
1250,0.159,-0.163,-0.004,0.205,-0.958,0.066,0.61,-0.21,-0.144
1251,0.154,-0.139,-0.01,0.218,-0.963,0.059,0.61,-0.21,-0.144
1252,0.156,-0.132,-0.014,0.227,-0.965,0.075,0.58,-0.183,-0.157
1253,0.155,-0.146,-0.01,0.232,-0.962,0.101,0.589,-0.189,-0.126
1254,0.147,-0.176,-0.001,0.231,-0.952,0.113,0.589,-0.189,-0.126
1255,0.143,-0.221,0.001,0.233,-0.95,0.109,0.588,-0.171,-0.139
1256,0.146,-0.251,0.002,0.235,-0.957,0.103,0.591,-0.195,-0.136
1257,0.154,-0.257,0.003,0.233,-0.96,0.105,0.61,-0.16,-0.132
1258,0.157,-0.268,0.002,0.233,-0.96,0.105,0.61,-0.16,-0.132
1259,0.154,-0.293,0.002,0.231,-0.955,0.114,0.583,-0.19,-0.114
1260,0.141,-0.306,0.0,0.223,-0.956,0.119,0.586,-0.202,-0.132
1261,0.126,-0.322,-0.007,0.215,-0.963,0.117,0.585,-0.205,-0.138
1262,0.111,-0.326,-0.016,0.216,-0.967,0.105,0.586,-0.21,-0.129
1263,0.111,-0.326,-0.016,0.223,-0.975,0.093,0.601,-0.19,-0.142
1264,0.091,-0.308,-0.026,0.223,-0.983,0.08,0.612,-0.19,-0.127
1265,0.063,-0.266,-0.031,0.193,-0.981,0.071,0.612,-0.19,-0.127
1266,0.024,-0.217,-0.052,0.178,-0.971,0.07,0.6,-0.177,-0.123
1267,0.014,-0.169,-0.066,0.205,-0.963,0.058,0.595,-0.183,-0.124
1268,0.042,-0.152,-0.06,0.216,-0.954,0.055,0.595,-0.183,-0.124
1269,0.009,-0.097,-0.082,0.214,-0.942,0.065,0.606,-0.163,-0.127
1270,-0.017,-0.067,-0.101,0.217,-0.938,0.081,0.592,-0.189,-0.129
1271,-0.011,-0.065,-0.102,0.233,-0.941,0.082,0.607,-0.187,-0.129
1272,-0.01,-0.071,-0.102,0.25,-0.94,0.071,0.607,-0.187,-0.129
1273,-0.014,-0.079,-0.105,0.265,-0.946,0.072,0.594,-0.193,-0.129
1274,-0.007,-0.095,-0.1,0.277,-0.958,0.071,0.591,-0.195,-0.121
1275,-0.011,-0.12,-0.091,0.284,-0.987,0.07,0.58,-0.183,-0.124
1276,-0.012,-0.144,-0.076,0.287,-1.016,0.057,0.603,-0.192,-0.13
1277,-0.018,-0.147,-0.08,0.287,-1.016,0.057,0.624,-0.183,-0.139
1278,0.035,-0.144,-0.056,0.302,-1.033,0.037,0.594,-0.208,-0.144
1279,0.07,-0.128,-0.044,0.291,-1.025,0.033,0.594,-0.208,-0.144
1280,0.077,-0.106,-0.044,0.261,-0.994,0.035,0.618,-0.184,-0.118
1281,0.077,-0.106,-0.044,0.254,-0.972,0.03,0.604,-0.186,-0.112
1282,0.081,-0.093,-0.042,0.247,-0.956,0.024,0.604,-0.186,-0.112
1283,0.098,-0.087,-0.039,0.239,-0.946,0.009,0.606,-0.177,-0.141
1284,0.114,-0.079,-0.039,0.232,-0.938,-0.004,0.6,-0.187,-0.123
1285,0.123,-0.067,-0.04,0.217,-0.94,-0.014,0.598,-0.196,-0.126
1286,0.125,-0.033,-0.046,0.2,-0.952,-0.011,0.609,-0.183,-0.144
1287,0.126,0.002,-0.052,0.187,-0.966,0.005,0.609,-0.183,-0.144
1288,0.124,0.017,-0.058,0.173,-0.98,0.021,0.615,-0.186,-0.124
1289,0.123,0.031,-0.065,0.159,-0.987,0.026,0.615,-0.186,-0.124
1290,0.12,0.043,-0.072,0.149,-0.986,0.02,0.607,-0.208,-0.13
1291,0.118,0.051,-0.081,0.14,-0.979,0.014,0.604,-0.177,-0.13
1292,0.114,0.056,-0.091,0.13,-0.97,0.007,0.615,-0.192,-0.135
1293,0.106,0.063,-0.105,0.125,-0.965,0.005,0.615,-0.192,-0.135
1294,0.093,0.065,-0.115,0.125,-0.963,0.009,0.606,-0.183,-0.108
1295,0.082,0.06,-0.125,0.124,-0.97,0.014,0.625,-0.174,-0.111
1296,0.078,0.049,-0.122,0.133,-0.975,0.016,0.615,-0.186,-0.115
1297,0.073,0.036,-0.115,0.143,-0.973,0.013,0.615,-0.178,-0.118
1298,0.07,0.018,-0.105,0.143,-0.973,0.013,0.618,-0.184,-0.136
1299,0.07,0.0,-0.093,0.14,-0.975,0.016,0.6,-0.168,-0.124
1300,0.073,-0.018,-0.079,0.138,-0.979,0.015,0.621,-0.172,-0.12
1301,0.073,-0.018,-0.079,0.133,-0.979,0.007,0.621,-0.172,-0.12
1302,0.07,-0.03,-0.065,0.127,-0.972,0.0,0.612,-0.174,-0.115
1303,0.064,-0.027,-0.065,0.128,-0.968,0.005,0.625,-0.178,-0.112
1304,0.054,-0.021,-0.067,0.131,-0.969,0.015,0.625,-0.184,-0.118
1305,0.042,-0.02,-0.07,0.134,-0.968,0.022,0.622,-0.171,-0.103
1306,0.026,-0.012,-0.074,0.139,-0.968,0.02,0.609,-0.18,-0.108
1307,0.014,-0.006,-0.077,0.143,-0.967,0.016,0.609,-0.18,-0.108
1308,0.004,-0.002,-0.075,0.145,-0.969,0.014,0.606,-0.172,-0.112
1309,0.0,-0.002,-0.071,0.146,-0.983,0.016,0.607,-0.166,-0.115
1310,0.0,0.0,-0.07,0.142,-0.986,0.022,0.621,-0.18,-0.123
1311,-0.004,0.0,-0.069,0.14,-0.986,0.03,0.628,-0.187,-0.117
1312,-0.007,-0.004,-0.068,0.142,-0.986,0.031,0.618,-0.19,-0.117
1313,-0.007,-0.006,-0.067,0.141,-0.986,0.03,0.621,-0.177,-0.117
1314,-0.006,-0.002,-0.065,0.136,-0.985,0.03,0.621,-0.177,-0.117
1315,-0.002,-0.008,-0.064,0.136,-0.985,0.03,0.612,-0.183,-0.112
1316,0.004,-0.009,-0.06,0.133,-0.985,0.025,0.612,-0.183,-0.112
1317,0.009,-0.004,-0.06,0.127,-0.988,0.013,0.61,-0.169,-0.124
1318,0.013,-0.001,-0.063,0.117,-0.983,0.016,0.631,-0.162,-0.123
1319,0.017,-0.002,-0.067,0.109,-0.975,0.029,0.621,-0.166,-0.121
1320,0.017,-0.002,-0.067,0.106,-0.973,0.03,0.627,-0.165,-0.118
1321,0.021,0.0,-0.074,0.104,-0.969,0.03,0.634,-0.147,-0.127
1322,0.018,-0.001,-0.079,0.104,-0.96,0.031,0.634,-0.147,-0.127
1323,0.016,-0.004,-0.084,0.105,-0.952,0.028,0.616,-0.175,-0.118
1324,0.021,-0.002,-0.086,0.11,-0.945,0.027,0.627,-0.18,-0.108
1325,0.024,-0.001,-0.088,0.116,-0.937,0.029,0.625,-0.171,-0.124
1326,0.024,-0.009,-0.086,0.12,-0.934,0.028,0.634,-0.192,-0.13
1327,0.022,-0.016,-0.081,0.123,-0.936,0.029,0.622,-0.184,-0.124
1328,0.024,-0.019,-0.072,0.125,-0.943,0.033,0.622,-0.184,-0.124
1329,0.027,-0.023,-0.06,0.124,-0.949,0.045,0.618,-0.166,-0.111
1330,0.032,-0.037,-0.046,0.127,-0.954,0.059,0.618,-0.166,-0.111
1331,0.034,-0.049,-0.033,0.131,-0.963,0.063,0.627,-0.174,-0.108
1332,0.033,-0.061,-0.022,0.136,-0.975,0.061,0.624,-0.175,-0.111
1333,0.031,-0.074,-0.011,0.142,-0.989,0.056,0.613,-0.168,-0.135
1334,0.023,-0.076,-0.006,0.147,-1.003,0.062,0.613,-0.168,-0.135
1335,0.014,-0.077,-0.002,0.147,-1.003,0.062,0.625,-0.192,-0.109
1336,0.006,-0.074,-0.002,0.149,-1.013,0.071,0.616,-0.177,-0.115
1337,-0.004,-0.072,-0.004,0.153,-1.019,0.069,0.607,-0.181,-0.091
1338,-0.021,-0.07,-0.007,0.148,-1.022,0.075,0.625,-0.178,-0.115
1339,-0.034,-0.067,-0.013,0.14,-1.017,0.08,0.634,-0.168,-0.109
1340,-0.034,-0.067,-0.013,0.134,-1.004,0.077,0.603,-0.175,-0.109
1341,-0.042,-0.067,-0.018,0.126,-0.994,0.073,0.618,-0.169,-0.127
1342,-0.053,-0.067,-0.024,0.128,-0.987,0.061,0.618,-0.169,-0.127
1343,-0.059,-0.06,-0.028,0.135,-0.982,0.051,0.622,-0.18,-0.108
1344,-0.068,-0.048,-0.03,0.141,-0.981,0.054,0.622,-0.18,-0.108
1345,-0.067,-0.042,-0.026,0.148,-0.977,0.057,0.63,-0.181,-0.106
1346,-0.057,-0.044,-0.022,0.155,-0.969,0.056,0.634,-0.178,-0.111
1347,-0.048,-0.047,-0.018,0.158,-0.966,0.053,0.613,-0.169,-0.135
1348,-0.042,-0.045,-0.016,0.151,-0.972,0.054,0.645,-0.175,-0.135
1349,-0.033,-0.035,-0.015,0.147,-0.977,0.059,0.645,-0.175,-0.135
1350,-0.025,-0.03,-0.016,0.15,-0.979,0.063,0.636,-0.172,-0.105
1351,-0.018,-0.032,-0.018,0.145,-0.977,0.061,0.636,-0.172,-0.105
1352,-0.013,-0.031,-0.019,0.137,-0.972,0.056,0.657,-0.178,-0.117
1353,-0.004,-0.025,-0.021,0.134,-0.969,0.059,0.615,-0.186,-0.145
1354,0.002,-0.024,-0.023,0.134,-0.971,0.064,0.625,-0.177,-0.111
1355,0.0,-0.029,-0.023,0.134,-0.971,0.064,0.625,-0.177,-0.111
1356,-0.005,-0.028,-0.023,0.134,-0.972,0.063,0.616,-0.186,-0.124
1357,-0.007,-0.028,-0.021,0.135,-0.966,0.059,0.625,-0.183,-0.111
1358,-0.007,-0.032,-0.018,0.136,-0.964,0.06,0.637,-0.177,-0.126
1359,-0.007,-0.032,-0.018,0.132,-0.968,0.061,0.621,-0.18,-0.133
1360,-0.007,-0.028,-0.016,0.131,-0.968,0.061,0.618,-0.172,-0.138
1361,-0.011,-0.019,-0.015,0.134,-0.967,0.065,0.621,-0.193,-0.126
1362,-0.015,-0.016,-0.012,0.14,-0.968,0.07,0.63,-0.169,-0.117
1363,-0.018,-0.012,-0.011,0.147,-0.966,0.073,0.63,-0.169,-0.117
1364,-0.02,-0.009,-0.011,0.151,-0.966,0.072,0.634,-0.18,-0.109
1365,-0.022,-0.014,-0.009,0.153,-0.967,0.065,0.634,-0.18,-0.109
1366,-0.023,-0.014,-0.007,0.154,-0.968,0.058,0.634,-0.175,-0.127
1367,-0.021,-0.004,-0.007,0.151,-0.97,0.054,0.624,-0.184,-0.121
1368,-0.021,0.004,-0.007,0.145,-0.97,0.058,0.625,-0.174,-0.129
1369,-0.021,0.011,-0.007,0.142,-0.969,0.068,0.625,-0.174,-0.129
1370,-0.023,0.011,-0.005,0.142,-0.97,0.076,0.64,-0.178,-0.126
1371,-0.02,0.011,-0.005,0.142,-0.973,0.079,0.64,-0.165,-0.127
1372,-0.022,0.004,-0.002,0.143,-0.971,0.075,0.642,-0.165,-0.117
1373,-0.024,0.004,0.0,0.142,-0.97,0.072,0.619,-0.16,-0.12
1374,-0.021,0.006,0.0,0.138,-0.971,0.072,0.639,-0.192,-0.117
1375,-0.019,0.01,-0.001,0.138,-0.971,0.072,0.624,-0.192,-0.133
1376,-0.017,0.014,0.0,0.134,-0.971,0.071,0.636,-0.171,-0.129
1377,-0.015,0.011,-0.001,0.132,-0.972,0.07,0.636,-0.171,-0.129
1378,-0.015,0.008,-0.002,0.131,-0.972,0.069,0.636,-0.174,-0.106
1379,-0.015,0.008,-0.002,0.132,-0.971,0.07,0.636,-0.174,-0.106
1380,-0.013,0.005,-0.002,0.133,-0.971,0.075,0.624,-0.183,-0.124
1381,-0.011,0.0,-0.001,0.137,-0.975,0.073,0.627,-0.171,-0.126
1382,-0.014,-0.001,-0.001,0.136,-0.977,0.07,0.636,-0.18,-0.121
1383,-0.016,0.002,-0.002,0.135,-0.978,0.07,0.628,-0.183,-0.123
1384,-0.014,0.005,0.0,0.136,-0.977,0.071,0.628,-0.183,-0.123
1385,-0.015,0.003,0.0,0.137,-0.974,0.076,0.628,-0.18,-0.126
1386,-0.015,0.006,-0.001,0.137,-0.971,0.082,0.625,-0.184,-0.117
1387,-0.018,0.002,-0.002,0.135,-0.969,0.078,0.625,-0.19,-0.142
1388,-0.021,-0.002,-0.002,0.134,-0.968,0.072,0.636,-0.193,-0.12
1389,-0.021,0.004,-0.003,0.135,-0.966,0.07,0.612,-0.178,-0.115
1390,-0.018,0.014,-0.004,0.139,-0.967,0.072,0.633,-0.172,-0.133
1391,-0.014,0.011,-0.003,0.142,-0.969,0.077,0.633,-0.172,-0.133
1392,-0.011,0.002,-0.002,0.144,-0.97,0.075,0.633,-0.157,-0.105
1393,-0.009,0.002,-0.002,0.144,-0.97,0.073,0.633,-0.157,-0.105
1394,-0.007,0.003,-0.001,0.144,-0.97,0.073,0.621,-0.174,-0.111
1395,-0.004,0.003,0.0,0.142,-0.971,0.073,0.636,-0.183,-0.129
1396,-0.004,0.003,-0.001,0.142,-0.971,0.073,0.63,-0.162,-0.129
1397,-0.004,-0.002,-0.002,0.141,-0.972,0.074,0.63,-0.162,-0.129
1398,-0.004,-0.002,-0.002,0.141,-0.973,0.072,0.64,-0.181,-0.135
1399,-0.004,-0.002,-0.002,0.137,-0.973,0.071,0.615,-0.175,-0.12
1400,-0.006,0.004,-0.004,0.136,-0.974,0.075,0.615,-0.175,-0.12
1401,-0.007,0.003,-0.004,0.138,-0.975,0.077,0.607,-0.181,-0.112
1402,-0.007,0.001,-0.004,0.14,-0.973,0.073,0.628,-0.177,-0.138
1403,-0.008,0.002,-0.005,0.141,-0.97,0.068,0.619,-0.177,-0.121
1404,-0.008,0.009,-0.006,0.14,-0.968,0.07,0.619,-0.177,-0.121
1405,-0.008,0.015,-0.005,0.138,-0.963,0.076,0.631,-0.171,-0.135
1406,-0.008,0.014,-0.006,0.137,-0.961,0.079,0.622,-0.192,-0.106
1407,-0.008,0.011,-0.006,0.139,-0.966,0.076,0.619,-0.186,-0.136
1408,-0.008,0.008,-0.004,0.14,-0.971,0.079,0.634,-0.196,-0.142
1409,-0.007,0.003,-0.002,0.141,-0.975,0.082,0.631,-0.181,-0.132
1410,-0.006,-0.002,-0.002,0.141,-0.975,0.077,0.631,-0.177,-0.121
1411,-0.002,-0.001,-0.002,0.14,-0.972,0.072,0.633,-0.178,-0.126
1412,0.0,0.009,-0.002,0.144,-0.972,0.073,0.633,-0.178,-0.126
1413,0.002,0.006,-0.002,0.151,-0.97,0.076,0.618,-0.184,-0.123
1414,0.001,0.011,-0.003,0.151,-0.97,0.076,0.618,-0.184,-0.123
1415,0.001,0.014,-0.002,0.153,-0.966,0.073,0.627,-0.172,-0.126
1416,0.0,0.014,-0.002,0.151,-0.968,0.074,0.619,-0.181,-0.126
1417,0.0,0.01,-0.001,0.147,-0.97,0.08,0.619,-0.163,-0.133
1418,0.0,0.01,-0.001,0.139,-0.969,0.081,0.619,-0.163,-0.133
1419,-0.002,0.011,-0.003,0.133,-0.97,0.078,0.624,-0.187,-0.13
1420,-0.004,0.012,-0.004,0.129,-0.973,0.075,0.619,-0.195,-0.114
1421,-0.007,0.012,-0.005,0.127,-0.975,0.073,0.625,-0.181,-0.124
1422,-0.009,0.009,-0.005,0.128,-0.976,0.077,0.601,-0.178,-0.142
1423,-0.007,0.004,-0.006,0.13,-0.978,0.082,0.631,-0.189,-0.123
1424,-0.006,-0.004,-0.006,0.132,-0.977,0.082,0.631,-0.183,-0.123
1425,-0.004,-0.01,-0.004,0.131,-0.974,0.081,0.616,-0.16,-0.124
1426,-0.003,-0.014,-0.003,0.131,-0.972,0.078,0.616,-0.16,-0.124
1427,-0.001,-0.016,-0.003,0.131,-0.971,0.077,0.618,-0.174,-0.132
1428,-0.001,-0.019,-0.002,0.136,-0.971,0.078,0.618,-0.174,-0.132
1429,0.001,-0.023,-0.001,0.142,-0.973,0.077,0.627,-0.169,-0.123
1430,0.002,-0.025,0.0,0.146,-0.973,0.081,0.618,-0.181,-0.132
1431,0.004,-0.03,0.0,0.147,-0.973,0.083,0.624,-0.171,-0.132
1432,0.002,-0.033,0.0,0.146,-0.971,0.08,0.624,-0.171,-0.132
1433,-0.001,-0.033,-0.002,0.145,-0.969,0.077,0.63,-0.163,-0.115
1434,-0.003,-0.032,-0.002,0.144,-0.968,0.076,0.622,-0.181,-0.138
1435,-0.005,-0.023,-0.004,0.144,-0.968,0.076,0.618,-0.178,-0.136
1436,-0.005,-0.021,-0.002,0.143,-0.97,0.072,0.639,-0.186,-0.13
1437,-0.004,-0.018,0.0,0.144,-0.969,0.072,0.615,-0.166,-0.126
1438,-0.004,-0.018,0.0,0.144,-0.966,0.078,0.622,-0.172,-0.117
1439,-0.003,-0.011,0.0,0.145,-0.967,0.082,0.627,-0.19,-0.139
1440,-0.003,-0.01,0.0,0.146,-0.969,0.083,0.627,-0.19,-0.139
1441,0.0,-0.014,0.0,0.148,-0.969,0.08,0.598,-0.18,-0.109
1442,0.003,-0.018,0.002,0.15,-0.969,0.076,0.598,-0.18,-0.109
1443,0.006,-0.021,0.004,0.148,-0.971,0.074,0.631,-0.178,-0.135
1444,0.009,-0.018,0.003,0.145,-0.968,0.073,0.628,-0.157,-0.142
1445,0.012,-0.012,0.003,0.143,-0.967,0.066,0.652,-0.175,-0.124
1446,0.012,-0.007,0.002,0.14,-0.968,0.064,0.652,-0.175,-0.124
1447,0.011,-0.002,0.0,0.141,-0.966,0.069,0.633,-0.181,-0.15
1448,0.015,-0.002,-0.002,0.144,-0.969,0.072,0.618,-0.181,-0.139
1449,0.016,-0.002,-0.002,0.148,-0.975,0.074,0.622,-0.174,-0.13
1450,0.016,-0.002,-0.002,0.149,-0.976,0.074,0.649,-0.171,-0.13
1451,0.018,0.0,-0.002,0.147,-0.975,0.071,0.634,-0.175,-0.144
1452,0.021,0.0,-0.003,0.146,-0.972,0.066,0.63,-0.177,-0.142
1453,0.021,0.0,-0.006,0.14,-0.966,0.068,0.63,-0.177,-0.142
1454,0.018,0.007,-0.007,0.14,-0.966,0.068,0.624,-0.183,-0.129
1455,0.018,0.001,-0.005,0.139,-0.967,0.068,0.616,-0.18,-0.109
1456,0.018,0.001,-0.007,0.142,-0.971,0.071,0.615,-0.171,-0.117
1457,0.018,0.0,-0.005,0.14,-0.971,0.075,0.627,-0.177,-0.132
1458,0.018,0.0,-0.005,0.14,-0.975,0.073,0.624,-0.168,-0.132
1459,0.018,0.0,-0.003,0.142,-0.976,0.071,0.633,-0.174,-0.139
1460,0.017,0.0,-0.003,0.142,-0.974,0.069,0.633,-0.174,-0.139
1461,0.014,0.004,-0.003,0.142,-0.97,0.071,0.625,-0.181,-0.132
1462,0.013,0.0,-0.003,0.145,-0.969,0.07,0.606,-0.168,-0.126
1463,0.01,0.003,-0.003,0.146,-0.972,0.067,0.606,-0.168,-0.126
1464,0.009,0.004,-0.003,0.147,-0.973,0.066,0.622,-0.169,-0.127
1465,0.009,0.002,-0.004,0.148,-0.971,0.065,0.622,-0.178,-0.123
1466,0.007,0.002,-0.007,0.148,-0.97,0.062,0.63,-0.178,-0.142
1467,0.008,0.004,-0.007,0.146,-0.972,0.063,0.63,-0.178,-0.142
1468,0.01,0.004,-0.007,0.147,-0.975,0.064,0.624,-0.165,-0.124
1469,0.012,0.005,-0.007,0.147,-0.976,0.065,0.627,-0.178,-0.138
1470,0.011,0.007,-0.007,0.145,-0.973,0.067,0.618,-0.186,-0.126
1471,0.011,0.005,-0.008,0.145,-0.971,0.066,0.639,-0.183,-0.123
1472,0.01,0.0,-0.007,0.145,-0.971,0.066,0.636,-0.189,-0.148
1473,0.007,0.0,-0.007,0.146,-0.97,0.062,0.621,-0.174,-0.141
1474,0.006,0.0,-0.007,0.144,-0.97,0.061,0.621,-0.174,-0.141
1475,0.005,0.001,-0.007,0.14,-0.971,0.064,0.633,-0.178,-0.124
1476,0.005,0.0,-0.007,0.139,-0.97,0.063,0.63,-0.163,-0.109
1477,0.007,0.002,-0.007,0.138,-0.97,0.062,0.63,-0.163,-0.109
1478,0.007,0.002,-0.007,0.14,-0.972,0.065,0.637,-0.162,-0.115
1479,0.009,0.003,-0.006,0.144,-0.972,0.066,0.634,-0.192,-0.118
1480,0.012,0.005,-0.007,0.147,-0.969,0.066,0.622,-0.183,-0.139
1481,0.016,0.001,-0.006,0.148,-0.968,0.062,0.633,-0.171,-0.121
1482,0.017,-0.002,-0.004,0.146,-0.967,0.058,0.633,-0.171,-0.121
1483,0.016,-0.002,-0.003,0.145,-0.969,0.057,0.636,-0.166,-0.118
1484,0.015,-0.009,-0.003,0.145,-0.972,0.059,0.624,-0.165,-0.124
1485,0.014,-0.011,-0.004,0.146,-0.97,0.059,0.612,-0.169,-0.118
1486,0.011,-0.004,-0.009,0.147,-0.971,0.059,0.625,-0.177,-0.132
1487,0.007,0.004,-0.011,0.145,-0.975,0.063,0.636,-0.186,-0.129
1488,0.004,0.01,-0.012,0.144,-0.978,0.067,0.625,-0.196,-0.133
1489,0.004,0.007,-0.011,0.146,-0.979,0.071,0.625,-0.196,-0.133
1490,0.004,-0.001,-0.009,0.145,-0.976,0.068,0.616,-0.172,-0.123
1491,0.007,-0.008,-0.007,0.143,-0.974,0.063,0.616,-0.172,-0.123
1492,0.005,-0.011,-0.005,0.142,-0.973,0.065,0.61,-0.181,-0.133
1493,0.003,-0.013,-0.005,0.142,-0.973,0.065,0.616,-0.175,-0.138
1494,0.0,-0.009,-0.006,0.144,-0.969,0.065,0.628,-0.165,-0.132
1495,0.0,-0.004,-0.007,0.148,-0.966,0.06,0.628,-0.165,-0.132
1496,-0.001,0.003,-0.006,0.151,-0.963,0.061,0.64,-0.186,-0.13
1497,-0.001,0.003,-0.006,0.152,-0.964,0.065,0.627,-0.169,-0.148
1498,-0.002,0.011,-0.006,0.152,-0.968,0.068,0.616,-0.175,-0.118
1499,-0.004,0.015,-0.007,0.151,-0.969,0.07,0.637,-0.18,-0.13
1500,-0.008,0.012,-0.008,0.15,-0.97,0.07,0.63,-0.181,-0.12
1501,-0.01,0.009,-0.008,0.148,-0.973,0.067,0.613,-0.181,-0.132
1502,-0.005,0.001,-0.007,0.146,-0.974,0.066,0.636,-0.174,-0.126
1503,0.0,-0.001,-0.006,0.145,-0.974,0.067,0.636,-0.174,-0.126
1504,0.001,-0.004,-0.005,0.14,-0.976,0.068,0.625,-0.19,-0.124
1505,0.004,0.0,-0.006,0.14,-0.978,0.07,0.625,-0.19,-0.124
1506,0.008,-0.003,-0.005,0.142,-0.979,0.069,0.612,-0.183,-0.129
1507,0.006,-0.003,-0.006,0.142,-0.976,0.069,0.615,-0.174,-0.126
1508,0.004,-0.002,-0.006,0.144,-0.972,0.072,0.622,-0.186,-0.13
1509,0.003,-0.003,-0.005,0.146,-0.973,0.073,0.622,-0.186,-0.13
1510,0.002,-0.007,-0.006,0.145,-0.972,0.072,0.627,-0.172,-0.109
1511,0.0,-0.011,-0.005,0.145,-0.968,0.07,0.618,-0.172,-0.112
1512,0.001,-0.014,-0.005,0.144,-0.969,0.066,0.618,-0.172,-0.112
1513,0.0,-0.011,-0.006,0.144,-0.969,0.066,0.622,-0.18,-0.118
1514,0.0,-0.007,-0.007,0.144,-0.971,0.066,0.616,-0.186,-0.124
1515,0.0,-0.008,-0.007,0.146,-0.97,0.069,0.613,-0.186,-0.124
1516,0.0,-0.008,-0.007,0.146,-0.97,0.069,0.613,-0.186,-0.124
1517,0.0,-0.005,-0.009,0.147,-0.974,0.068,0.621,-0.169,-0.135
1518,0.0,-0.005,-0.009,0.146,-0.974,0.07,0.613,-0.175,-0.106
1519,0.002,-0.004,-0.008,0.142,-0.974,0.071,0.628,-0.192,-0.13
1520,0.002,-0.005,-0.007,0.143,-0.973,0.071,0.633,-0.178,-0.147
1521,0.001,-0.01,-0.007,0.143,-0.972,0.072,0.625,-0.178,-0.133
1522,0.0,-0.014,-0.006,0.143,-0.971,0.072,0.622,-0.181,-0.147
1523,0.001,-0.016,-0.006,0.144,-0.97,0.071,0.628,-0.181,-0.139
1524,0.001,-0.016,-0.005,0.143,-0.971,0.069,0.628,-0.181,-0.139
1525,-0.001,-0.011,-0.006,0.143,-0.969,0.068,0.615,-0.192,-0.126
1526,-0.004,-0.009,-0.006,0.145,-0.97,0.068,0.615,-0.192,-0.126
1527,-0.004,-0.007,-0.006,0.146,-0.974,0.067,0.64,-0.181,-0.13
1528,-0.004,-0.008,-0.006,0.146,-0.973,0.067,0.618,-0.166,-0.138
1529,-0.002,-0.007,-0.007,0.146,-0.972,0.066,0.619,-0.195,-0.123
1530,-0.003,-0.007,-0.007,0.144,-0.97,0.067,0.627,-0.171,-0.126
1531,-0.003,-0.007,-0.007,0.143,-0.968,0.066,0.627,-0.171,-0.126
1532,-0.002,-0.011,-0.007,0.142,-0.97,0.065,0.621,-0.193,-0.133
1533,0.0,-0.011,-0.007,0.142,-0.97,0.065,0.616,-0.193,-0.12
1534,0.0,-0.011,-0.007,0.143,-0.973,0.067,0.622,-0.201,-0.141
1535,-0.002,-0.008,-0.007,0.142,-0.974,0.069,0.634,-0.181,-0.13
1536,-0.002,-0.008,-0.007,0.138,-0.975,0.068,0.628,-0.171,-0.139
1537,-0.003,-0.011,-0.007,0.14,-0.975,0.066,0.628,-0.171,-0.139
1538,-0.004,-0.009,-0.007,0.141,-0.974,0.066,0.628,-0.187,-0.132
1539,-0.004,-0.01,-0.006,0.138,-0.973,0.069,0.628,-0.187,-0.132
1540,-0.004,-0.015,-0.006,0.14,-0.972,0.07,0.609,-0.177,-0.138
1541,-0.004,-0.01,-0.007,0.143,-0.973,0.068,0.642,-0.171,-0.141
1542,-0.003,-0.009,-0.007,0.142,-0.971,0.069,0.634,-0.174,-0.138
1543,-0.002,-0.011,-0.007,0.143,-0.968,0.07,0.637,-0.174,-0.129
1544,-0.004,-0.015,-0.007,0.142,-0.968,0.068,0.621,-0.181,-0.136
1545,-0.007,-0.013,-0.007,0.14,-0.97,0.063,0.621,-0.181,-0.136
1546,-0.005,-0.012,-0.007,0.143,-0.973,0.063,0.619,-0.174,-0.138
1547,-0.007,-0.01,-0.007,0.146,-0.971,0.065,0.613,-0.189,-0.145
1548,-0.006,-0.013,-0.004,0.146,-0.971,0.064,0.619,-0.183,-0.142
1549,-0.007,-0.014,-0.004,0.143,-0.972,0.062,0.625,-0.171,-0.13
1550,-0.008,-0.011,-0.006,0.142,-0.973,0.063,0.621,-0.184,-0.126
1551,-0.008,-0.009,-0.006,0.142,-0.974,0.068,0.633,-0.172,-0.139
1552,-0.007,-0.013,-0.004,0.142,-0.972,0.068,0.633,-0.172,-0.139
1553,-0.009,-0.013,-0.005,0.14,-0.972,0.068,0.618,-0.186,-0.12
1554,-0.009,-0.011,-0.004,0.14,-0.969,0.065,0.618,-0.186,-0.12
1555,-0.005,-0.012,-0.004,0.139,-0.969,0.062,0.612,-0.178,-0.121
1556,-0.004,-0.011,-0.004,0.14,-0.969,0.062,0.627,-0.165,-0.141
1557,-0.004,-0.011,-0.004,0.141,-0.97,0.067,0.619,-0.181,-0.144
1558,-0.004,-0.009,-0.004,0.145,-0.969,0.069,0.619,-0.181,-0.144
1559,-0.002,-0.016,-0.004,0.145,-0.969,0.067,0.615,-0.184,-0.118
1560,0.0,-0.015,-0.004,0.142,-0.97,0.065,0.624,-0.186,-0.13
1561,-0.001,-0.009,-0.005,0.144,-0.971,0.066,0.624,-0.186,-0.13
1562,0.002,-0.006,-0.007,0.147,-0.973,0.066,0.624,-0.171,-0.121
1563,0.003,-0.004,-0.007,0.147,-0.972,0.064,0.613,-0.168,-0.121
1564,0.001,-0.004,-0.008,0.145,-0.971,0.065,0.618,-0.169,-0.13
1565,0.002,-0.004,-0.008,0.144,-0.974,0.065,0.643,-0.187,-0.132
1566,0.003,-0.003,-0.009,0.142,-0.973,0.067,0.643,-0.187,-0.132
1567,0.002,-0.004,-0.008,0.139,-0.97,0.07,0.624,-0.184,-0.138
1568,0.0,-0.003,-0.008,0.139,-0.971,0.072,0.624,-0.184,-0.138
1569,0.0,-0.004,-0.007,0.141,-0.971,0.072,0.619,-0.165,-0.117
1570,0.001,-0.007,-0.007,0.142,-0.972,0.07,0.616,-0.183,-0.13
1571,0.0,-0.009,-0.005,0.142,-0.972,0.07,0.625,-0.174,-0.133
1572,0.001,-0.009,-0.004,0.141,-0.973,0.068,0.639,-0.166,-0.148
1573,0.001,-0.007,-0.004,0.141,-0.972,0.067,0.639,-0.166,-0.148
1574,0.0,-0.005,-0.004,0.142,-0.974,0.068,0.601,-0.178,-0.109
1575,0.003,-0.004,-0.006,0.143,-0.971,0.071,0.601,-0.178,-0.109
1576,0.004,-0.002,-0.007,0.143,-0.972,0.071,0.622,-0.168,-0.136
1577,0.004,-0.002,-0.007,0.144,-0.973,0.068,0.637,-0.172,-0.129
1578,0.007,0.0,-0.008,0.144,-0.971,0.066,0.615,-0.184,-0.123
1579,0.009,0.0,-0.007,0.145,-0.969,0.066,0.615,-0.184,-0.123
1580,0.007,-0.002,-0.006,0.142,-0.966,0.068,0.616,-0.193,-0.114
1581,0.009,0.0,-0.004,0.141,-0.965,0.071,0.625,-0.184,-0.126
1582,0.005,0.002,-0.002,0.141,-0.966,0.072,0.627,-0.169,-0.132
1583,0.004,0.002,-0.002,0.14,-0.97,0.069,0.609,-0.181,-0.145
1584,0.005,0.007,-0.003,0.143,-0.972,0.069,0.627,-0.169,-0.142
1585,0.007,0.009,-0.003,0.144,-0.972,0.073,0.618,-0.181,-0.132
1586,0.007,0.008,-0.004,0.143,-0.973,0.073,0.643,-0.162,-0.133
1587,0.009,0.006,-0.004,0.14,-0.972,0.072,0.643,-0.162,-0.133
1588,0.01,0.009,-0.005,0.136,-0.973,0.072,0.618,-0.171,-0.112
1589,0.013,0.009,-0.007,0.134,-0.973,0.071,0.618,-0.171,-0.112
1590,0.015,0.009,-0.009,0.137,-0.97,0.072,0.63,-0.151,-0.118
1591,0.016,0.01,-0.008,0.137,-0.97,0.072,0.63,-0.193,-0.13
1592,0.018,0.007,-0.008,0.139,-0.971,0.074,0.615,-0.177,-0.124
1593,0.018,0.002,-0.005,0.143,-0.97,0.073,0.615,-0.177,-0.124
1594,0.02,-0.002,-0.004,0.148,-0.968,0.071,0.622,-0.178,-0.129
1595,0.02,0.0,-0.004,0.146,-0.97,0.068,0.621,-0.186,-0.144
1596,0.02,0.0,-0.004,0.142,-0.972,0.067,0.634,-0.168,-0.124
1597,0.017,0.002,-0.004,0.139,-0.971,0.068,0.634,-0.168,-0.138
1598,0.015,0.005,-0.005,0.138,-0.971,0.071,0.63,-0.178,-0.121
1599,0.014,0.004,-0.005,0.139,-0.97,0.07,0.628,-0.168,-0.135
1600,0.014,0.004,-0.005,0.142,-0.968,0.072,0.628,-0.168,-0.135
1601,0.011,0.002,-0.004,0.146,-0.97,0.077,0.622,-0.175,-0.142
1602,0.01,0.009,-0.004,0.148,-0.973,0.077,0.619,-0.172,-0.138
1603,0.011,0.0,-0.003,0.147,-0.976,0.073,0.619,-0.172,-0.138
1604,0.009,-0.001,-0.004,0.148,-0.976,0.068,0.631,-0.192,-0.127
1605,0.007,0.001,-0.002,0.151,-0.974,0.07,0.631,-0.196,-0.124
1606,0.009,0.0,-0.002,0.148,-0.972,0.069,0.639,-0.16,-0.126
1607,0.009,0.0,-0.003,0.143,-0.97,0.067,0.627,-0.168,-0.124
1608,0.007,0.003,-0.004,0.141,-0.969,0.069,0.627,-0.168,-0.124
1609,0.007,0.002,-0.004,0.141,-0.971,0.069,0.639,-0.166,-0.118
1610,0.007,0.0,-0.003,0.144,-0.969,0.071,0.61,-0.175,-0.117
1611,0.008,-0.005,-0.002,0.146,-0.968,0.074,0.633,-0.172,-0.12
1612,0.009,-0.004,-0.001,0.146,-0.968,0.074,0.615,-0.154,-0.129
1613,0.007,-0.005,-0.002,0.146,-0.97,0.074,0.618,-0.166,-0.126
1614,0.005,-0.007,-0.001,0.146,-0.97,0.073,0.618,-0.166,-0.126
1615,0.006,-0.007,-0.001,0.145,-0.971,0.072,0.619,-0.178,-0.144
1616,0.006,-0.007,-0.001,0.145,-0.971,0.071,0.621,-0.169,-0.115
1617,0.004,-0.005,-0.002,0.144,-0.972,0.069,0.622,-0.172,-0.129
1618,0.005,-0.007,-0.001,0.145,-0.973,0.068,0.645,-0.168,-0.13
1619,0.006,-0.006,-0.002,0.147,-0.971,0.067,0.637,-0.19,-0.13
1620,0.007,-0.004,-0.002,0.147,-0.968,0.066,0.628,-0.18,-0.151
1621,0.007,0.0,-0.002,0.145,-0.97,0.066,0.628,-0.18,-0.151
1622,0.007,0.002,-0.004,0.143,-0.974,0.07,0.63,-0.16,-0.133
1623,0.011,0.002,-0.004,0.143,-0.973,0.071,0.612,-0.168,-0.12
1624,0.011,0.0,-0.006,0.146,-0.97,0.068,0.612,-0.168,-0.12
1625,0.01,0.0,-0.007,0.145,-0.967,0.067,0.624,-0.169,-0.13
1626,0.011,0.0,-0.007,0.143,-0.967,0.069,0.613,-0.18,-0.133
1627,0.012,0.002,-0.009,0.145,-0.967,0.072,0.634,-0.19,-0.117
1628,0.011,0.001,-0.009,0.148,-0.969,0.073,0.625,-0.178,-0.136
1629,0.014,0.001,-0.007,0.149,-0.972,0.074,0.625,-0.178,-0.136
1630,0.015,0.0,-0.008,0.147,-0.975,0.075,0.618,-0.172,-0.12
1631,0.016,-0.004,-0.007,0.147,-0.977,0.075,0.625,-0.156,-0.115
1632,0.016,-0.004,-0.007,0.145,-0.977,0.073,0.636,-0.171,-0.13
1633,0.018,-0.007,-0.005,0.141,-0.975,0.07,0.618,-0.174,-0.124
1634,0.018,-0.009,-0.005,0.138,-0.975,0.066,0.63,-0.166,-0.132
1635,0.018,-0.009,-0.005,0.138,-0.975,0.063,0.621,-0.192,-0.114
1636,0.02,-0.014,-0.004,0.138,-0.973,0.061,0.621,-0.192,-0.114
1637,0.02,-0.011,-0.004,0.141,-0.968,0.061,0.648,-0.183,-0.129
1638,0.021,-0.014,-0.004,0.144,-0.965,0.063,0.648,-0.183,-0.129
1639,0.02,-0.018,-0.006,0.147,-0.966,0.061,0.628,-0.172,-0.126
1640,0.017,-0.023,-0.006,0.147,-0.973,0.061,0.627,-0.169,-0.147
1641,0.015,-0.024,-0.006,0.146,-0.976,0.062,0.63,-0.166,-0.13
1642,0.014,-0.024,-0.007,0.145,-0.975,0.061,0.63,-0.166,-0.13
1643,0.013,-0.023,-0.007,0.146,-0.973,0.063,0.624,-0.171,-0.126
1644,0.013,-0.018,-0.009,0.15,-0.971,0.064,0.622,-0.178,-0.148
1645,0.013,-0.017,-0.009,0.152,-0.972,0.065,0.619,-0.178,-0.105
1646,0.014,-0.019,-0.011,0.151,-0.967,0.067,0.624,-0.174,-0.135
1647,0.016,-0.014,-0.01,0.155,-0.969,0.063,0.633,-0.178,-0.126
1648,0.015,-0.015,-0.01,0.156,-0.976,0.06,0.622,-0.169,-0.129
1649,0.014,-0.018,-0.01,0.153,-0.973,0.061,0.616,-0.168,-0.132
1650,0.013,-0.016,-0.01,0.153,-0.971,0.057,0.616,-0.168,-0.132
1651,0.016,-0.014,-0.011,0.153,-0.971,0.057,0.622,-0.19,-0.105
1652,0.015,-0.013,-0.01,0.152,-0.972,0.06,0.622,-0.19,-0.105
1653,0.014,-0.018,-0.01,0.152,-0.972,0.066,0.616,-0.189,-0.135
1654,0.013,-0.016,-0.009,0.152,-0.972,0.065,0.625,-0.187,-0.118
1655,0.013,-0.02,-0.007,0.15,-0.973,0.062,0.628,-0.192,-0.126
1656,0.013,-0.02,-0.007,0.15,-0.97,0.06,0.627,-0.162,-0.121
1657,0.014,-0.018,-0.008,0.154,-0.968,0.059,0.627,-0.162,-0.121
1658,0.015,-0.016,-0.008,0.153,-0.967,0.059,0.646,-0.189,-0.129
1659,0.018,-0.014,-0.009,0.148,-0.971,0.059,0.615,-0.183,-0.13
1660,0.018,-0.009,-0.01,0.149,-0.972,0.061,0.627,-0.162,-0.114
1661,0.018,-0.008,-0.011,0.152,-0.97,0.064,0.622,-0.175,-0.126
1662,0.021,-0.014,-0.008,0.153,-0.969,0.06,0.622,-0.165,-0.115
1663,0.02,-0.018,-0.008,0.155,-0.969,0.054,0.621,-0.184,-0.118
1664,0.02,-0.017,-0.008,0.154,-0.968,0.055,0.621,-0.184,-0.118
1665,0.022,-0.014,-0.008,0.154,-0.967,0.056,0.613,-0.168,-0.118
1666,0.023,-0.021,-0.008,0.154,-0.968,0.053,0.613,-0.168,-0.118
1667,0.019,-0.025,-0.008,0.151,-0.968,0.051,0.61,-0.178,-0.127
1668,0.017,-0.024,-0.009,0.149,-0.967,0.052,0.622,-0.186,-0.142
1669,0.015,-0.022,-0.012,0.147,-0.965,0.054,0.639,-0.166,-0.135
1670,0.015,-0.02,-0.014,0.149,-0.968,0.048,0.619,-0.193,-0.124
1671,0.018,-0.017,-0.013,0.149,-0.968,0.048,0.619,-0.193,-0.124
1672,0.016,-0.014,-0.015,0.148,-0.968,0.046,0.622,-0.168,-0.106
1673,0.017,-0.019,-0.015,0.145,-0.967,0.051,0.622,-0.168,-0.106
1674,0.018,-0.025,-0.016,0.149,-0.968,0.05,0.63,-0.174,-0.127
1675,0.018,-0.025,-0.016,0.153,-0.966,0.047,0.627,-0.181,-0.118
1676,0.018,-0.025,-0.016,0.153,-0.966,0.044,0.63,-0.172,-0.127
1677,0.021,-0.023,-0.015,0.154,-0.966,0.045,0.63,-0.172,-0.127
1678,0.021,-0.019,-0.016,0.158,-0.967,0.046,0.633,-0.154,-0.123
1679,0.022,-0.014,-0.017,0.16,-0.972,0.049,0.627,-0.181,-0.109
1680,0.02,-0.016,-0.018,0.158,-0.975,0.05,0.609,-0.174,-0.136
1681,0.017,-0.014,-0.018,0.155,-0.976,0.048,0.627,-0.168,-0.123
1682,0.015,-0.013,-0.021,0.152,-0.978,0.048,0.643,-0.177,-0.126
1683,0.011,-0.011,-0.023,0.151,-0.978,0.048,0.637,-0.169,-0.139
1684,0.009,-0.01,-0.025,0.15,-0.978,0.046,0.631,-0.187,-0.133
1685,0.011,-0.012,-0.027,0.147,-0.976,0.047,0.631,-0.187,-0.133
1686,0.014,-0.007,-0.028,0.142,-0.972,0.048,0.624,-0.172,-0.127
1687,0.014,-0.004,-0.028,0.141,-0.97,0.047,0.624,-0.172,-0.127
1688,0.018,-0.006,-0.029,0.143,-0.968,0.048,0.61,-0.169,-0.136
1689,0.022,-0.009,-0.028,0.146,-0.967,0.05,0.631,-0.177,-0.129
1690,0.023,-0.011,-0.028,0.146,-0.967,0.05,0.63,-0.174,-0.111
1691,0.023,-0.016,-0.027,0.149,-0.966,0.049,0.63,-0.174,-0.111
1692,0.024,-0.021,-0.027,0.15,-0.966,0.046,0.642,-0.169,-0.124
1693,0.025,-0.024,-0.026,0.15,-0.966,0.044,0.634,-0.172,-0.135
1694,0.024,-0.021,-0.028,0.149,-0.967,0.042,0.631,-0.181,-0.13
1695,0.024,-0.021,-0.028,0.148,-0.97,0.045,0.621,-0.16,-0.127
1696,0.023,-0.017,-0.029,0.146,-0.972,0.047,0.642,-0.174,-0.132
1697,0.023,-0.017,-0.029,0.147,-0.974,0.046,0.64,-0.177,-0.127
1698,0.021,-0.014,-0.03,0.147,-0.975,0.046,0.645,-0.166,-0.13
1699,0.02,-0.013,-0.03,0.146,-0.974,0.05,0.645,-0.166,-0.13
1700,0.02,-0.018,-0.029,0.148,-0.975,0.052,0.636,-0.163,-0.106
1701,0.019,-0.018,-0.03,0.148,-0.976,0.05,0.636,-0.163,-0.106
1702,0.017,-0.018,-0.032,0.148,-0.972,0.046,0.622,-0.175,-0.123
1703,0.018,-0.016,-0.032,0.149,-0.97,0.044,0.631,-0.163,-0.106
1704,0.018,-0.015,-0.034,0.148,-0.969,0.044,0.622,-0.187,-0.109
1705,0.021,-0.011,-0.035,0.145,-0.969,0.045,0.622,-0.187,-0.109
1706,0.023,-0.009,-0.037,0.144,-0.97,0.045,0.645,-0.169,-0.118
1707,0.025,-0.002,-0.037,0.146,-0.971,0.043,0.622,-0.168,-0.13
1708,0.026,-0.005,-0.036,0.145,-0.971,0.045,0.631,-0.157,-0.126
1709,0.028,-0.01,-0.037,0.141,-0.969,0.046,0.63,-0.16,-0.115
1710,0.03,-0.012,-0.037,0.141,-0.969,0.046,0.64,-0.183,-0.115
1711,0.033,-0.013,-0.038,0.136,-0.968,0.043,0.64,-0.184,-0.129
1712,0.032,-0.011,-0.039,0.134,-0.969,0.042,0.64,-0.184,-0.129
