,Gyroscope X (deg/s),Gyroscope Y (deg/s),Gyroscope Z (deg/s),Accelerometer X (g),Accelerometer Y (g),Accelerometer Z (g),Magnetometer X (G),Magnetometer Y (G),Magnetometer Z (G)
0,-0.006,0.0,-0.002,0.089,-0.973,0.12,0.37,-0.172,-0.138
1,-0.006,0.0,-0.002,0.089,-0.973,0.12,0.37,-0.172,-0.138
2,-0.006,0.0,-0.002,0.089,-0.973,0.12,0.37,-0.172,-0.138
3,-0.006,0.0,-0.002,0.089,-0.973,0.12,0.37,-0.172,-0.138
4,-0.006,0.0,-0.002,0.089,-0.973,0.12,0.37,-0.172,-0.138
5,-0.006,0.0,-0.002,0.089,-0.973,0.12,0.37,-0.172,-0.138
6,-0.006,0.0,-0.002,0.089,-0.973,0.12,0.37,-0.172,-0.138
7,-0.006,0.0,-0.002,0.089,-0.973,0.12,0.37,-0.172,-0.138
8,-0.006,0.0,-0.002,0.089,-0.973,0.12,0.37,-0.172,-0.138
9,-0.006,0.0,-0.002,0.089,-0.973,0.12,0.37,-0.172,-0.138
10,-0.006,0.0,-0.002,0.089,-0.973,0.12,0.37,-0.172,-0.138
11,-0.006,0.0,-0.002,0.089,-0.973,0.12,0.37,-0.172,-0.138
12,-0.006,0.0,-0.002,0.089,-0.973,0.12,0.37,-0.172,-0.138
13,-0.006,0.0,-0.002,0.089,-0.973,0.12,0.37,-0.172,-0.138
14,-0.006,0.0,-0.002,0.089,-0.973,0.12,0.37,-0.172,-0.138
15,-0.006,0.0,-0.002,0.089,-0.973,0.12,0.37,-0.172,-0.138
16,-0.006,0.0,-0.002,0.089,-0.973,0.12,0.37,-0.172,-0.138
17,-0.006,0.0,-0.002,0.089,-0.973,0.12,0.37,-0.172,-0.138
18,-0.006,0.0,-0.002,0.089,-0.973,0.12,0.37,-0.172,-0.138
19,-0.006,0.0,-0.002,0.089,-0.973,0.12,0.37,-0.172,-0.138
20,-0.006,0.0,-0.002,0.089,-0.973,0.12,0.37,-0.172,-0.138
21,-0.006,0.0,-0.002,0.089,-0.973,0.12,0.37,-0.172,-0.138
22,-0.006,0.0,-0.002,0.089,-0.973,0.12,0.37,-0.172,-0.138
23,-0.006,0.0,-0.002,0.089,-0.973,0.12,0.37,-0.172,-0.138
24,-0.006,0.0,-0.002,0.089,-0.973,0.12,0.37,-0.172,-0.138
25,-0.006,0.0,-0.002,0.089,-0.973,0.12,0.37,-0.172,-0.138
26,-0.006,0.0,-0.002,0.089,-0.973,0.12,0.37,-0.172,-0.138
27,-0.006,0.0,-0.002,0.089,-0.973,0.12,0.37,-0.172,-0.138
28,-0.006,0.0,-0.002,0.089,-0.973,0.12,0.37,-0.172,-0.138
29,-0.006,0.0,-0.002,0.089,-0.973,0.12,0.37,-0.172,-0.138
30,-0.006,0.0,-0.002,0.089,-0.973,0.12,0.37,-0.172,-0.138
31,0.008,-0.013,-0.009,0.066,-0.98,0.052,0.655,-0.18,-0.384
32,0.008,-0.011,-0.007,0.063,-0.979,0.05,0.685,-0.178,-0.399
33,0.007,-0.011,-0.007,0.066,-0.98,0.053,0.67,-0.189,-0.409
34,0.007,-0.011,-0.007,0.07,-0.979,0.055,0.67,-0.189,-0.409
35,0.004,-0.005,-0.009,0.071,-0.979,0.055,0.682,-0.168,-0.39
36,0.003,0.001,-0.01,0.07,-0.98,0.057,0.679,-0.157,-0.387
37,0.003,0.002,-0.01,0.072,-0.978,0.057,0.666,-0.15,-0.382
38,0.002,-0.002,-0.009,0.076,-0.975,0.054,0.67,-0.183,-0.378
39,0.0,-0.007,-0.008,0.074,-0.979,0.054,0.679,-0.162,-0.378
40,-0.001,-0.007,-0.007,0.073,-0.983,0.056,0.679,-0.162,-0.378
41,-0.002,-0.007,-0.007,0.072,-0.985,0.06,0.669,-0.174,-0.382
42,-0.002,-0.007,-0.007,0.068,-0.986,0.058,0.664,-0.184,-0.406
43,-0.004,-0.006,-0.008,0.064,-0.984,0.057,0.685,-0.166,-0.387
44,-0.003,-0.003,-0.011,0.06,-0.984,0.059,0.669,-0.168,-0.391
45,-0.003,0.0,-0.013,0.062,-0.983,0.061,0.693,-0.162,-0.385
46,0.0,-0.002,-0.012,0.064,-0.98,0.06,0.693,-0.162,-0.385
47,0.0,-0.01,-0.011,0.066,-0.977,0.057,0.691,-0.177,-0.384
48,0.002,-0.018,-0.009,0.065,-0.977,0.054,0.679,-0.178,-0.399
49,0.002,-0.017,-0.009,0.065,-0.98,0.053,0.693,-0.178,-0.393
50,0.004,-0.014,-0.009,0.065,-0.98,0.053,0.685,-0.178,-0.39
51,0.006,-0.021,-0.007,0.068,-0.982,0.057,0.654,-0.183,-0.37
52,0.005,-0.022,-0.006,0.069,-0.984,0.057,0.654,-0.183,-0.37
53,0.004,-0.017,-0.007,0.068,-0.982,0.054,0.649,-0.16,-0.397
54,0.004,-0.016,-0.008,0.068,-0.979,0.055,0.682,-0.175,-0.399
55,0.004,-0.016,-0.008,0.068,-0.977,0.058,0.676,-0.159,-0.391
56,0.005,-0.016,-0.008,0.068,-0.979,0.059,0.678,-0.171,-0.393
57,0.006,-0.014,-0.009,0.068,-0.98,0.058,0.672,-0.162,-0.384
58,0.007,-0.008,-0.009,0.071,-0.98,0.058,0.672,-0.162,-0.384
59,0.008,-0.009,-0.009,0.075,-0.98,0.059,0.675,-0.183,-0.379
60,0.004,-0.009,-0.009,0.075,-0.977,0.061,0.684,-0.166,-0.384
61,0.002,-0.007,-0.008,0.075,-0.976,0.06,0.667,-0.172,-0.381
62,0.002,-0.008,-0.007,0.078,-0.978,0.059,0.679,-0.178,-0.394
63,0.002,-0.006,-0.007,0.077,-0.981,0.056,0.673,-0.169,-0.381
64,0.001,-0.004,-0.007,0.076,-0.983,0.056,0.673,-0.169,-0.381
65,0.0,-0.009,-0.005,0.076,-0.986,0.057,0.687,-0.178,-0.382
66,0.002,0.0,-0.007,0.077,-0.986,0.058,0.675,-0.18,-0.393
67,0.003,0.002,-0.007,0.075,-0.982,0.06,0.675,-0.165,-0.403
68,0.0,0.0,-0.007,0.072,-0.978,0.059,0.672,-0.184,-0.393
69,0.0,-0.002,-0.007,0.071,-0.976,0.056,0.658,-0.166,-0.393
70,0.0,0.0,-0.007,0.071,-0.976,0.056,0.658,-0.166,-0.393
71,0.0,0.002,-0.008,0.073,-0.975,0.054,0.679,-0.163,-0.39
72,0.0,0.006,-0.008,0.071,-0.978,0.054,0.646,-0.171,-0.379
73,0.003,0.006,-0.007,0.069,-0.983,0.057,0.646,-0.171,-0.379
74,0.003,0.006,-0.007,0.069,-0.985,0.054,0.684,-0.193,-0.379
75,0.006,0.004,-0.006,0.07,-0.986,0.05,0.676,-0.178,-0.393
76,0.007,-0.002,-0.007,0.071,-0.984,0.05,0.687,-0.178,-0.372
77,0.005,-0.008,-0.007,0.07,-0.98,0.049,0.687,-0.178,-0.372
78,0.006,-0.006,-0.009,0.068,-0.979,0.048,0.672,-0.171,-0.397
79,0.009,-0.005,-0.01,0.07,-0.978,0.049,0.667,-0.19,-0.384
80,0.005,-0.006,-0.01,0.07,-0.979,0.051,0.667,-0.178,-0.39
81,0.007,-0.004,-0.009,0.071,-0.981,0.053,0.666,-0.18,-0.384
82,0.011,-0.004,-0.009,0.072,-0.983,0.054,0.675,-0.166,-0.378
83,0.011,-0.003,-0.007,0.074,-0.98,0.053,0.675,-0.166,-0.378
84,0.01,-0.004,-0.007,0.075,-0.978,0.053,0.672,-0.153,-0.393
85,0.007,-0.007,-0.008,0.074,-0.978,0.052,0.663,-0.166,-0.387
86,0.003,-0.018,-0.007,0.074,-0.98,0.052,0.67,-0.178,-0.369
87,0.002,-0.015,-0.007,0.072,-0.984,0.049,0.669,-0.159,-0.411
88,0.001,-0.011,-0.007,0.072,-0.984,0.049,0.657,-0.172,-0.4
89,0.0,-0.011,-0.008,0.068,-0.983,0.046,0.676,-0.175,-0.385
90,-0.001,-0.006,-0.009,0.068,-0.982,0.05,0.676,-0.175,-0.385
91,-0.004,-0.007,-0.01,0.07,-0.982,0.055,0.678,-0.172,-0.385
92,-0.004,-0.011,-0.009,0.073,-0.982,0.058,0.664,-0.177,-0.397
93,-0.004,-0.016,-0.007,0.078,-0.982,0.061,0.661,-0.171,-0.396
94,-0.004,-0.016,-0.007,0.081,-0.985,0.061,0.676,-0.163,-0.405
95,-0.004,-0.018,-0.006,0.077,-0.985,0.055,0.675,-0.174,-0.399
96,-0.003,-0.017,-0.005,0.073,-0.981,0.053,0.672,-0.177,-0.388
97,-0.003,-0.015,-0.007,0.074,-0.978,0.052,0.672,-0.177,-0.388
98,0.0,-0.007,-0.008,0.075,-0.98,0.05,0.664,-0.175,-0.391
99,0.002,-0.001,-0.009,0.074,-0.977,0.054,0.685,-0.177,-0.396
100,0.004,0.002,-0.01,0.075,-0.975,0.056,0.657,-0.172,-0.385
101,0.001,0.009,-0.01,0.077,-0.977,0.06,0.688,-0.163,-0.387
102,0.002,0.004,-0.008,0.077,-0.98,0.062,0.672,-0.183,-0.394
103,0.003,-0.009,-0.004,0.077,-0.98,0.057,0.672,-0.183,-0.394
104,0.002,-0.016,-0.005,0.074,-0.98,0.051,0.672,-0.172,-0.399
105,0.002,-0.017,-0.005,0.071,-0.984,0.049,0.673,-0.162,-0.39
106,0.003,-0.013,-0.007,0.07,-0.983,0.05,0.679,-0.174,-0.411
107,0.005,-0.004,-0.009,0.07,-0.98,0.05,0.664,-0.181,-0.376
108,0.002,-0.002,-0.009,0.07,-0.98,0.05,0.664,-0.181,-0.376
109,0.0,-0.002,-0.009,0.069,-0.98,0.052,0.669,-0.178,-0.412
110,0.0,-0.002,-0.008,0.07,-0.98,0.055,0.669,-0.178,-0.412
111,0.001,-0.002,-0.007,0.073,-0.98,0.057,0.675,-0.181,-0.388
112,0.001,-0.008,-0.005,0.075,-0.98,0.057,0.664,-0.145,-0.381
113,0.002,-0.009,-0.004,0.073,-0.98,0.053,0.672,-0.187,-0.408
114,0.002,-0.009,-0.004,0.069,-0.979,0.049,0.684,-0.169,-0.372
115,0.005,-0.004,-0.005,0.069,-0.98,0.049,0.669,-0.181,-0.394
116,0.005,-0.004,-0.007,0.075,-0.979,0.049,0.67,-0.159,-0.402
117,0.004,-0.004,-0.008,0.076,-0.979,0.049,0.67,-0.159,-0.402
118,0.003,-0.001,-0.01,0.074,-0.982,0.05,0.669,-0.166,-0.396
119,0.003,0.0,-0.01,0.075,-0.983,0.051,0.664,-0.175,-0.4
120,0.004,0.0,-0.009,0.076,-0.984,0.05,0.66,-0.18,-0.406
121,0.007,0.0,-0.009,0.073,-0.982,0.048,0.679,-0.175,-0.376
122,0.008,0.0,-0.009,0.073,-0.98,0.048,0.678,-0.196,-0.39
123,0.005,0.0,-0.009,0.073,-0.98,0.049,0.678,-0.196,-0.39
124,0.003,0.0,-0.009,0.07,-0.979,0.052,0.663,-0.174,-0.394
125,0.004,0.002,-0.009,0.07,-0.978,0.054,0.684,-0.168,-0.405
126,0.004,0.005,-0.008,0.071,-0.979,0.052,0.67,-0.186,-0.399
127,0.002,0.008,-0.009,0.071,-0.98,0.05,0.675,-0.192,-0.393
128,0.004,0.009,-0.008,0.073,-0.978,0.05,0.687,-0.174,-0.39
129,0.004,0.004,-0.007,0.073,-0.978,0.05,0.687,-0.174,-0.39
130,0.002,0.002,-0.007,0.077,-0.979,0.051,0.676,-0.18,-0.369
131,0.002,0.001,-0.007,0.076,-0.982,0.049,0.667,-0.166,-0.388
132,0.002,0.004,-0.009,0.074,-0.983,0.046,0.669,-0.154,-0.402
133,0.002,0.006,-0.01,0.072,-0.982,0.049,0.676,-0.177,-0.381
134,0.002,0.006,-0.01,0.068,-0.981,0.051,0.679,-0.192,-0.4
135,0.003,0.001,-0.011,0.066,-0.981,0.05,0.679,-0.192,-0.4
136,0.004,0.0,-0.011,0.066,-0.98,0.05,0.658,-0.186,-0.37
137,0.005,0.007,-0.011,0.068,-0.978,0.054,0.658,-0.186,-0.37
138,0.007,0.005,-0.011,0.07,-0.977,0.054,0.666,-0.165,-0.408
139,0.009,0.002,-0.009,0.071,-0.977,0.051,0.675,-0.15,-0.396
140,0.011,-0.001,-0.007,0.072,-0.978,0.047,0.67,-0.178,-0.378
141,0.012,0.0,-0.007,0.074,-0.981,0.046,0.67,-0.178,-0.378
142,0.014,0.003,-0.008,0.075,-0.982,0.048,0.681,-0.175,-0.382
143,0.015,0.006,-0.008,0.072,-0.982,0.05,0.67,-0.18,-0.393
144,0.018,0.014,-0.009,0.071,-0.981,0.05,0.69,-0.172,-0.4
145,0.023,0.016,-0.009,0.072,-0.981,0.053,0.672,-0.175,-0.388
146,0.022,0.012,-0.009,0.074,-0.98,0.051,0.67,-0.183,-0.394
147,0.022,0.009,-0.009,0.075,-0.98,0.042,0.67,-0.183,-0.394
148,0.025,0.011,-0.009,0.075,-0.979,0.04,0.687,-0.177,-0.406
149,0.027,0.018,-0.008,0.075,-0.979,0.04,0.687,-0.201,-0.385
150,0.028,0.016,-0.008,0.075,-0.978,0.046,0.669,-0.195,-0.385
151,0.03,0.013,-0.008,0.076,-0.977,0.045,0.678,-0.163,-0.376
152,0.03,0.013,-0.008,0.077,-0.979,0.041,0.673,-0.168,-0.388
153,0.03,0.01,-0.008,0.074,-0.981,0.037,0.673,-0.168,-0.388
154,0.031,0.011,-0.007,0.065,-0.981,0.039,0.687,-0.169,-0.384
155,0.031,0.013,-0.008,0.061,-0.98,0.042,0.697,-0.181,-0.381
156,0.031,0.016,-0.009,0.061,-0.979,0.043,0.681,-0.168,-0.387
157,0.029,0.018,-0.011,0.062,-0.982,0.046,0.657,-0.172,-0.39
158,0.025,0.006,-0.01,0.065,-0.983,0.046,0.684,-0.154,-0.393
159,0.021,-0.009,-0.007,0.07,-0.986,0.042,0.67,-0.174,-0.384
160,0.018,-0.016,-0.006,0.071,-0.987,0.044,0.67,-0.174,-0.384
161,0.015,-0.016,-0.007,0.068,-0.987,0.046,0.681,-0.184,-0.39
162,0.01,-0.014,-0.009,0.064,-0.987,0.045,0.66,-0.168,-0.388
163,0.007,-0.009,-0.012,0.062,-0.985,0.044,0.681,-0.166,-0.381
164,0.003,0.0,-0.014,0.064,-0.984,0.045,0.661,-0.175,-0.366
165,0.001,0.002,-0.014,0.072,-0.983,0.046,0.679,-0.172,-0.378
166,0.0,-0.007,-0.011,0.078,-0.982,0.044,0.685,-0.16,-0.39
167,0.0,-0.016,-0.011,0.077,-0.974,0.04,0.685,-0.16,-0.39
168,-0.001,-0.013,-0.011,0.077,-0.974,0.04,0.684,-0.166,-0.39
169,0.0,-0.002,-0.012,0.074,-0.97,0.041,0.672,-0.177,-0.375
170,0.0,0.0,-0.014,0.074,-0.971,0.045,0.699,-0.172,-0.382
171,0.0,0.004,-0.014,0.075,-0.973,0.047,0.684,-0.159,-0.393
172,0.002,0.002,-0.014,0.077,-0.977,0.046,0.661,-0.181,-0.381
173,0.002,0.002,-0.014,0.078,-0.981,0.048,0.676,-0.174,-0.375
174,0.005,-0.007,-0.013,0.076,-0.983,0.048,0.676,-0.174,-0.375
175,0.007,-0.004,-0.016,0.072,-0.982,0.045,0.667,-0.169,-0.372
176,0.007,0.0,-0.016,0.071,-0.984,0.049,0.675,-0.175,-0.385
177,0.01,0.002,-0.017,0.071,-0.985,0.056,0.667,-0.166,-0.376
178,0.008,-0.004,-0.016,0.072,-0.984,0.058,0.66,-0.184,-0.37
179,0.008,-0.002,-0.016,0.073,-0.981,0.056,0.685,-0.19,-0.397
180,0.011,-0.004,-0.015,0.073,-0.978,0.055,0.684,-0.162,-0.37
181,0.014,-0.009,-0.014,0.072,-0.976,0.052,0.684,-0.162,-0.37
182,0.016,-0.009,-0.012,0.073,-0.976,0.053,0.682,-0.19,-0.394
183,0.017,-0.008,-0.012,0.074,-0.976,0.053,0.663,-0.174,-0.4
184,0.018,-0.004,-0.012,0.075,-0.976,0.052,0.658,-0.178,-0.397
185,0.015,-0.009,-0.012,0.075,-0.976,0.052,0.667,-0.171,-0.397
186,0.014,0.0,-0.014,0.077,-0.98,0.05,0.648,-0.169,-0.372
187,0.013,0.002,-0.013,0.077,-0.98,0.05,0.648,-0.169,-0.372
188,0.009,-0.003,-0.011,0.079,-0.983,0.053,0.676,-0.175,-0.39
189,0.007,-0.004,-0.012,0.076,-0.983,0.055,0.657,-0.168,-0.397
190,0.004,-0.004,-0.011,0.074,-0.983,0.053,0.666,-0.183,-0.388
191,0.004,-0.004,-0.011,0.07,-0.985,0.053,0.667,-0.186,-0.388
192,0.004,-0.004,-0.011,0.069,-0.984,0.056,0.667,-0.186,-0.388
193,0.002,-0.002,-0.012,0.069,-0.982,0.057,0.688,-0.175,-0.37
194,0.0,-0.002,-0.012,0.069,-0.981,0.055,0.688,-0.175,-0.37
195,0.0,-0.004,-0.012,0.07,-0.981,0.051,0.676,-0.163,-0.382
196,0.0,-0.004,-0.012,0.068,-0.979,0.048,0.666,-0.163,-0.405
197,-0.002,0.0,-0.011,0.067,-0.978,0.047,0.682,-0.18,-0.388
198,-0.003,0.0,-0.012,0.068,-0.98,0.049,0.682,-0.18,-0.388
199,-0.004,0.0,-0.012,0.07,-0.983,0.052,0.672,-0.177,-0.381
200,-0.002,0.0,-0.011,0.067,-0.984,0.051,0.666,-0.168,-0.381
201,-0.002,-0.004,-0.011,0.066,-0.981,0.05,0.666,-0.168,-0.381
202,0.002,-0.007,-0.011,0.07,-0.978,0.052,0.675,-0.156,-0.382
203,0.006,-0.006,-0.011,0.074,-0.978,0.053,0.673,-0.169,-0.399
204,0.009,-0.007,-0.009,0.076,-0.977,0.053,0.666,-0.181,-0.385
205,0.009,-0.008,-0.009,0.075,-0.977,0.052,0.666,-0.181,-0.385
206,0.008,-0.009,-0.009,0.075,-0.979,0.05,0.693,-0.175,-0.387
207,0.009,0.0,-0.009,0.075,-0.979,0.05,0.661,-0.169,-0.379
208,0.011,0.007,-0.01,0.072,-0.981,0.048,0.669,-0.178,-0.381
209,0.013,0.015,-0.011,0.07,-0.981,0.047,0.669,-0.175,-0.391
210,0.013,0.015,-0.009,0.071,-0.983,0.05,0.681,-0.16,-0.39
211,0.014,0.014,-0.009,0.071,-0.984,0.051,0.681,-0.16,-0.39
212,0.014,0.014,-0.009,0.07,-0.981,0.048,0.684,-0.165,-0.391
213,0.013,0.013,-0.008,0.071,-0.98,0.045,0.682,-0.178,-0.397
214,0.014,0.014,-0.007,0.072,-0.981,0.045,0.697,-0.175,-0.406
215,0.013,0.016,-0.007,0.07,-0.979,0.045,0.666,-0.183,-0.373
216,0.01,0.019,-0.007,0.068,-0.979,0.043,0.666,-0.183,-0.373
217,0.012,0.024,-0.007,0.068,-0.979,0.041,0.676,-0.183,-0.379
218,0.014,0.024,-0.007,0.064,-0.979,0.043,0.654,-0.162,-0.387
219,0.016,0.021,-0.006,0.058,-0.978,0.044,0.679,-0.187,-0.397
220,0.02,0.023,-0.007,0.052,-0.979,0.043,0.67,-0.175,-0.394
221,0.02,0.025,-0.007,0.053,-0.983,0.041,0.661,-0.178,-0.402
222,0.019,0.02,-0.006,0.055,-0.983,0.039,0.661,-0.178,-0.402
223,0.016,0.012,-0.005,0.053,-0.984,0.036,0.684,-0.184,-0.403
224,0.014,0.009,-0.005,0.051,-0.986,0.033,0.679,-0.166,-0.385
225,0.014,0.011,-0.004,0.052,-0.985,0.034,0.694,-0.162,-0.39
226,0.015,0.003,-0.003,0.053,-0.984,0.033,0.673,-0.163,-0.393
227,0.015,-0.004,-0.002,0.053,-0.984,0.033,0.676,-0.178,-0.387
228,0.013,-0.009,-0.002,0.051,-0.986,0.03,0.676,-0.178,-0.387
229,0.009,-0.016,-0.003,0.048,-0.988,0.029,0.676,-0.162,-0.364
230,0.006,-0.024,-0.004,0.049,-0.99,0.028,0.676,-0.162,-0.364
231,0.007,-0.025,-0.004,0.052,-0.993,0.032,0.67,-0.177,-0.372
232,0.007,-0.025,-0.004,0.051,-0.991,0.034,0.673,-0.168,-0.384
233,0.007,-0.03,-0.004,0.053,-0.987,0.034,0.664,-0.175,-0.387
234,0.009,-0.036,-0.005,0.056,-0.983,0.031,0.664,-0.175,-0.387
235,0.007,-0.047,-0.007,0.057,-0.982,0.026,0.673,-0.174,-0.382
236,0.009,-0.048,-0.007,0.058,-0.981,0.027,0.682,-0.174,-0.384
237,0.008,-0.047,-0.005,0.062,-0.979,0.03,0.676,-0.181,-0.37
238,0.01,-0.048,-0.004,0.069,-0.978,0.032,0.673,-0.169,-0.367
239,0.011,-0.046,-0.002,0.076,-0.979,0.038,0.678,-0.177,-0.379
240,0.014,-0.047,0.0,0.082,-0.979,0.037,0.678,-0.177,-0.379
241,0.012,-0.049,0.0,0.083,-0.981,0.036,0.693,-0.166,-0.381
242,0.01,-0.046,0.0,0.082,-0.982,0.038,0.681,-0.18,-0.406
243,0.009,-0.049,0.0,0.082,-0.981,0.039,0.679,-0.157,-0.373
244,0.007,-0.041,-0.002,0.08,-0.984,0.036,0.667,-0.162,-0.376
245,0.005,-0.032,-0.004,0.078,-0.986,0.033,0.678,-0.165,-0.385
246,0.005,-0.023,-0.006,0.079,-0.983,0.039,0.685,-0.178,-0.393
247,0.005,-0.021,-0.007,0.079,-0.983,0.039,0.685,-0.178,-0.393
248,0.005,-0.022,-0.006,0.081,-0.98,0.045,0.684,-0.178,-0.387
249,0.003,-0.021,-0.004,0.081,-0.979,0.044,0.673,-0.184,-0.372
250,0.002,-0.022,-0.004,0.081,-0.977,0.044,0.675,-0.178,-0.384
251,0.0,-0.018,-0.004,0.086,-0.979,0.042,0.687,-0.166,-0.388
252,0.0,-0.018,-0.004,0.088,-0.979,0.038,0.652,-0.165,-0.382
253,0.0,-0.007,-0.005,0.086,-0.977,0.037,0.652,-0.165,-0.382
254,0.0,0.006,-0.007,0.085,-0.977,0.038,0.676,-0.178,-0.388
255,0.0,0.013,-0.007,0.086,-0.978,0.043,0.675,-0.169,-0.384
256,0.0,0.016,-0.007,0.088,-0.978,0.046,0.673,-0.171,-0.367
257,0.001,0.011,-0.007,0.086,-0.977,0.043,0.666,-0.181,-0.372
258,0.002,0.015,-0.007,0.082,-0.977,0.04,0.681,-0.186,-0.37
259,0.002,0.016,-0.007,0.083,-0.977,0.04,0.681,-0.184,-0.403
260,0.003,0.016,-0.007,0.083,-0.978,0.04,0.681,-0.184,-0.403
261,0.003,0.016,-0.007,0.079,-0.982,0.04,0.694,-0.186,-0.381
262,0.003,0.014,-0.006,0.076,-0.983,0.041,0.685,-0.174,-0.378
263,0.004,0.014,-0.007,0.069,-0.983,0.038,0.682,-0.165,-0.387
264,0.005,0.014,-0.007,0.066,-0.982,0.038,0.678,-0.145,-0.384
265,0.002,0.018,-0.008,0.066,-0.979,0.039,0.673,-0.174,-0.379
266,0.001,0.015,-0.008,0.066,-0.978,0.038,0.664,-0.172,-0.391
267,0.003,0.011,-0.007,0.066,-0.978,0.038,0.664,-0.172,-0.391
268,0.004,0.008,-0.005,0.068,-0.981,0.037,0.676,-0.18,-0.376
269,0.004,0.005,-0.005,0.068,-0.983,0.037,0.679,-0.19,-0.379
270,0.005,0.007,-0.006,0.065,-0.98,0.032,0.672,-0.166,-0.378
271,0.007,0.006,-0.007,0.061,-0.98,0.028,0.664,-0.166,-0.361
272,0.007,0.006,-0.007,0.059,-0.983,0.03,0.688,-0.169,-0.375
273,0.006,0.008,-0.007,0.058,-0.983,0.036,0.688,-0.169,-0.375
274,0.006,0.0,-0.007,0.063,-0.984,0.042,0.672,-0.183,-0.387
275,0.006,-0.009,-0.005,0.066,-0.986,0.04,0.672,-0.171,-0.385
276,0.007,-0.016,-0.005,0.063,-0.985,0.035,0.681,-0.157,-0.373
277,0.007,-0.016,-0.007,0.061,-0.983,0.032,0.67,-0.166,-0.388
278,0.009,-0.023,-0.007,0.061,-0.981,0.031,0.651,-0.171,-0.375
279,0.009,-0.018,-0.01,0.063,-0.981,0.031,0.651,-0.171,-0.375
280,0.01,-0.011,-0.011,0.065,-0.979,0.031,0.67,-0.183,-0.379
281,0.012,-0.01,-0.008,0.069,-0.977,0.032,0.676,-0.195,-0.394
282,0.014,-0.011,-0.007,0.069,-0.977,0.033,0.673,-0.181,-0.369
283,0.016,-0.01,-0.006,0.065,-0.978,0.033,0.678,-0.163,-0.384
284,0.014,-0.011,-0.005,0.068,-0.982,0.037,0.67,-0.181,-0.39
285,0.011,-0.018,-0.004,0.073,-0.985,0.044,0.67,-0.181,-0.39
286,0.005,-0.024,-0.004,0.072,-0.989,0.047,0.643,-0.177,-0.381
287,0.0,-0.021,-0.004,0.072,-0.989,0.047,0.684,-0.186,-0.385
288,0.0,-0.013,-0.004,0.07,-0.991,0.044,0.675,-0.199,-0.39
289,0.003,-0.008,-0.006,0.068,-0.99,0.038,0.685,-0.18,-0.39
290,0.003,-0.008,-0.006,0.071,-0.988,0.038,0.67,-0.169,-0.411
291,0.005,-0.009,-0.004,0.077,-0.987,0.038,0.67,-0.169,-0.411
292,0.004,-0.008,-0.005,0.077,-0.984,0.037,0.676,-0.181,-0.358
293,0.004,-0.005,-0.007,0.077,-0.979,0.035,0.676,-0.181,-0.358
294,0.001,-0.004,-0.007,0.08,-0.976,0.034,0.664,-0.166,-0.376
295,0.0,-0.005,-0.007,0.081,-0.974,0.035,0.663,-0.183,-0.367
296,0.004,-0.002,-0.007,0.081,-0.975,0.033,0.672,-0.174,-0.384
297,0.008,0.002,-0.006,0.084,-0.978,0.031,0.672,-0.174,-0.384
298,0.008,0.006,-0.006,0.083,-0.98,0.033,0.678,-0.183,-0.388
299,0.007,0.009,-0.006,0.08,-0.981,0.037,0.667,-0.174,-0.384
300,0.007,0.01,-0.005,0.08,-0.981,0.04,0.669,-0.19,-0.381
301,0.008,0.005,-0.004,0.078,-0.981,0.042,0.675,-0.157,-0.372
302,0.008,0.0,-0.003,0.075,-0.982,0.042,0.688,-0.184,-0.379
303,0.009,-0.003,-0.004,0.076,-0.981,0.039,0.669,-0.163,-0.379
304,0.008,-0.005,-0.003,0.077,-0.979,0.038,0.669,-0.163,-0.379
305,0.008,-0.005,-0.003,0.076,-0.979,0.038,0.682,-0.178,-0.388
306,0.005,-0.002,-0.005,0.076,-0.979,0.038,0.645,-0.18,-0.373
307,0.003,0.0,-0.006,0.078,-0.979,0.038,0.645,-0.18,-0.373
308,0.002,0.002,-0.006,0.078,-0.981,0.035,0.691,-0.184,-0.387
309,0.003,0.0,-0.005,0.078,-0.985,0.034,0.681,-0.177,-0.376
310,0.003,0.0,-0.005,0.077,-0.986,0.033,0.691,-0.174,-0.388
311,0.001,-0.001,-0.006,0.076,-0.984,0.03,0.691,-0.174,-0.388
312,0.001,0.001,-0.006,0.078,-0.982,0.032,0.676,-0.189,-0.388
313,0.001,0.001,-0.005,0.078,-0.981,0.035,0.678,-0.18,-0.403
314,0.001,-0.002,-0.004,0.075,-0.981,0.035,0.675,-0.187,-0.406
315,0.003,-0.002,-0.004,0.071,-0.978,0.037,0.672,-0.172,-0.382
316,0.004,-0.004,-0.004,0.071,-0.976,0.036,0.669,-0.177,-0.379
317,0.004,-0.004,-0.004,0.072,-0.977,0.035,0.673,-0.153,-0.37
318,0.005,0.0,-0.004,0.071,-0.981,0.034,0.673,-0.153,-0.37
319,0.007,0.004,-0.004,0.072,-0.98,0.032,0.679,-0.181,-0.385
320,0.007,0.012,-0.005,0.073,-0.978,0.031,0.667,-0.159,-0.376
321,0.008,0.016,-0.004,0.074,-0.982,0.032,0.667,-0.159,-0.376
322,0.009,0.014,-0.002,0.075,-0.984,0.032,0.663,-0.18,-0.379
323,0.008,0.022,-0.003,0.073,-0.983,0.032,0.666,-0.181,-0.393
324,0.007,0.028,-0.004,0.072,-0.981,0.034,0.681,-0.165,-0.396
325,0.006,0.027,-0.004,0.072,-0.982,0.035,0.681,-0.165,-0.396
326,0.006,0.023,-0.003,0.072,-0.982,0.035,0.684,-0.171,-0.397
327,0.01,0.014,-0.003,0.072,-0.984,0.035,0.681,-0.171,-0.376
328,0.009,0.013,-0.002,0.076,-0.984,0.036,0.679,-0.154,-0.399
329,0.007,0.018,-0.003,0.076,-0.981,0.035,0.666,-0.171,-0.385
330,0.007,0.018,-0.004,0.077,-0.979,0.035,0.679,-0.172,-0.382
331,0.007,0.018,-0.004,0.079,-0.98,0.034,0.679,-0.172,-0.382
332,0.006,0.015,-0.002,0.079,-0.983,0.034,0.675,-0.178,-0.37
333,0.007,0.011,-0.002,0.076,-0.984,0.034,0.681,-0.18,-0.384
334,0.009,0.012,-0.004,0.073,-0.982,0.029,0.67,-0.184,-0.355
335,0.007,0.013,-0.005,0.071,-0.983,0.028,0.664,-0.178,-0.391
336,0.007,0.01,-0.004,0.071,-0.982,0.032,0.66,-0.181,-0.399
337,0.009,0.007,-0.004,0.074,-0.978,0.031,0.682,-0.166,-0.39
338,0.009,0.001,-0.004,0.073,-0.979,0.028,0.682,-0.166,-0.39
339,0.007,-0.002,-0.003,0.072,-0.984,0.028,0.684,-0.183,-0.394
340,0.007,0.0,-0.003,0.071,-0.983,0.028,0.69,-0.187,-0.393
341,0.006,0.008,-0.003,0.069,-0.983,0.031,0.654,-0.175,-0.373
342,-0.001,-0.002,-0.003,0.068,-0.986,0.03,0.654,-0.175,-0.373
343,-0.002,-0.006,-0.004,0.067,-0.987,0.026,0.682,-0.169,-0.381
344,-0.001,-0.004,-0.005,0.07,-0.987,0.031,0.676,-0.172,-0.354
345,0.0,-0.003,-0.006,0.073,-0.986,0.038,0.676,-0.172,-0.354
346,-0.001,-0.007,-0.004,0.073,-0.986,0.038,0.678,-0.166,-0.375
347,0.0,-0.011,-0.004,0.073,-0.984,0.037,0.684,-0.175,-0.372
348,0.0,-0.016,-0.004,0.072,-0.983,0.034,0.673,-0.172,-0.37
349,0.0,-0.022,-0.004,0.07,-0.981,0.029,0.676,-0.174,-0.381
350,0.0,-0.022,-0.004,0.071,-0.98,0.024,0.681,-0.174,-0.379
351,0.0,-0.02,-0.005,0.075,-0.98,0.026,0.681,-0.174,-0.379
352,0.0,-0.016,-0.004,0.078,-0.983,0.029,0.688,-0.168,-0.388
353,0.001,-0.016,-0.003,0.079,-0.984,0.032,0.676,-0.187,-0.385
354,0.0,-0.016,-0.004,0.076,-0.982,0.034,0.691,-0.168,-0.39
355,0.002,-0.013,-0.004,0.075,-0.982,0.035,0.664,-0.195,-0.378
356,0.004,-0.016,-0.003,0.079,-0.984,0.037,0.664,-0.195,-0.378
357,0.002,-0.021,-0.002,0.083,-0.982,0.035,0.667,-0.201,-0.37
358,0.002,-0.02,-0.002,0.083,-0.979,0.032,0.667,-0.201,-0.37
359,0.002,-0.018,-0.002,0.082,-0.98,0.033,0.669,-0.174,-0.376
360,0.001,-0.013,-0.003,0.082,-0.98,0.035,0.655,-0.186,-0.372
361,0.001,-0.005,-0.004,0.082,-0.978,0.035,0.678,-0.186,-0.393
362,0.0,0.002,-0.004,0.08,-0.979,0.034,0.676,-0.166,-0.381
363,0.0,0.001,-0.005,0.081,-0.978,0.034,0.678,-0.186,-0.366
364,0.002,0.002,-0.004,0.082,-0.979,0.036,0.666,-0.174,-0.387
365,0.004,0.003,-0.002,0.081,-0.981,0.036,0.666,-0.174,-0.387
366,0.007,0.002,-0.001,0.081,-0.981,0.036,0.66,-0.201,-0.379
367,0.009,0.005,0.0,0.081,-0.98,0.033,0.684,-0.18,-0.381
368,0.009,0.008,0.0,0.08,-0.977,0.033,0.667,-0.192,-0.393
369,0.009,0.011,0.0,0.081,-0.98,0.034,0.666,-0.168,-0.364
370,0.009,0.011,0.0,0.079,-0.983,0.034,0.678,-0.189,-0.397
371,0.009,0.011,0.0,0.075,-0.982,0.031,0.669,-0.172,-0.379
372,0.007,0.014,0.0,0.071,-0.981,0.031,0.669,-0.172,-0.379
373,0.008,0.015,0.0,0.066,-0.98,0.033,0.682,-0.178,-0.381
374,0.009,0.013,0.0,0.066,-0.98,0.032,0.688,-0.174,-0.391
375,0.009,0.012,0.0,0.071,-0.98,0.031,0.682,-0.168,-0.388
376,0.002,0.002,0.002,0.073,-0.982,0.03,0.667,-0.181,-0.376
377,0.006,0.002,0.002,0.074,-0.983,0.03,0.669,-0.178,-0.393
378,0.007,0.005,0.003,0.075,-0.981,0.029,0.672,-0.18,-0.363
379,0.003,0.009,0.002,0.075,-0.98,0.028,0.672,-0.18,-0.363
380,0.0,0.011,0.003,0.074,-0.978,0.029,0.667,-0.175,-0.376
381,0.0,0.014,0.004,0.074,-0.975,0.031,0.676,-0.181,-0.391
382,0.0,0.018,0.003,0.072,-0.976,0.032,0.684,-0.171,-0.388
383,-0.002,0.023,0.004,0.068,-0.976,0.037,0.642,-0.178,-0.372
384,-0.005,0.024,0.006,0.068,-0.976,0.037,0.669,-0.187,-0.385
385,-0.006,0.023,0.008,0.067,-0.978,0.044,0.688,-0.163,-0.369
386,-0.004,0.018,0.011,0.069,-0.987,0.048,0.688,-0.163,-0.369
387,0.001,0.009,0.013,0.071,-0.992,0.05,0.667,-0.174,-0.384
388,0.01,0.0,0.014,0.07,-0.992,0.047,0.679,-0.175,-0.382
389,0.015,-0.001,0.011,0.068,-0.986,0.037,0.684,-0.178,-0.376
390,0.015,-0.001,0.011,0.068,-0.976,0.031,0.658,-0.181,-0.382
391,0.014,0.004,0.009,0.069,-0.973,0.032,0.67,-0.184,-0.372
392,0.014,0.014,0.008,0.07,-0.971,0.032,0.67,-0.184,-0.372
393,0.018,0.014,0.009,0.07,-0.972,0.035,0.673,-0.175,-0.372
394,0.021,0.011,0.016,0.072,-0.975,0.036,0.675,-0.174,-0.384
395,0.025,0.005,0.019,0.072,-0.976,0.035,0.678,-0.175,-0.378
396,0.027,0.0,0.023,0.069,-0.975,0.035,0.675,-0.168,-0.379
397,0.023,-0.001,0.024,0.066,-0.975,0.033,0.666,-0.175,-0.357
398,0.021,0.003,0.024,0.064,-0.973,0.034,0.666,-0.175,-0.357
399,0.016,0.011,0.025,0.064,-0.973,0.037,0.673,-0.187,-0.388
400,0.009,0.023,0.025,0.064,-0.978,0.044,0.684,-0.171,-0.39
401,0.004,0.039,0.026,0.067,-0.983,0.049,0.688,-0.174,-0.396
402,0.004,0.049,0.03,0.068,-0.986,0.05,0.678,-0.181,-0.385
403,0.008,0.044,0.032,0.07,-0.985,0.05,0.664,-0.201,-0.376
404,0.013,0.036,0.036,0.07,-0.985,0.05,0.661,-0.184,-0.379
405,0.002,0.035,0.036,0.074,-0.979,0.038,0.661,-0.184,-0.379
406,-0.014,0.04,0.032,0.077,-0.973,0.028,0.675,-0.177,-0.366
407,-0.028,0.053,0.028,0.072,-0.97,0.027,0.672,-0.177,-0.385
408,-0.028,0.056,0.028,0.066,-0.97,0.03,0.676,-0.189,-0.387
409,-0.024,0.047,0.031,0.066,-0.971,0.04,0.678,-0.181,-0.384
410,-0.024,0.047,0.031,0.07,-0.971,0.049,0.66,-0.192,-0.4
411,-0.023,0.042,0.033,0.072,-0.968,0.053,0.66,-0.192,-0.4
412,-0.021,0.03,0.034,0.075,-0.97,0.059,0.66,-0.165,-0.379
413,-0.017,0.023,0.035,0.076,-0.979,0.071,0.658,-0.172,-0.384
414,-0.004,0.015,0.037,0.077,-0.991,0.078,0.676,-0.163,-0.363
415,0.011,0.004,0.037,0.078,-0.998,0.074,0.654,-0.178,-0.384
416,0.028,-0.008,0.041,0.077,-0.994,0.067,0.679,-0.196,-0.361
417,0.042,-0.027,0.044,0.07,-0.985,0.058,0.679,-0.196,-0.361
418,0.058,-0.051,0.047,0.061,-0.972,0.048,0.655,-0.175,-0.372
419,0.063,-0.069,0.047,0.056,-0.966,0.039,0.655,-0.175,-0.372
420,0.062,-0.081,0.047,0.053,-0.966,0.037,0.669,-0.184,-0.382
421,0.06,-0.086,0.049,0.054,-0.97,0.043,0.655,-0.181,-0.382
422,0.069,-0.081,0.047,0.047,-0.988,0.069,0.658,-0.159,-0.384
423,0.057,-0.098,0.055,0.051,-0.992,0.072,0.658,-0.159,-0.384
424,0.05,-0.112,0.06,0.051,-0.992,0.072,0.66,-0.183,-0.375
425,0.05,-0.123,0.063,0.063,-0.984,0.052,0.652,-0.172,-0.363
426,0.046,-0.128,0.068,0.067,-0.985,0.054,0.658,-0.171,-0.384
427,0.049,-0.134,0.072,0.07,-0.985,0.054,0.675,-0.186,-0.378
428,0.049,-0.134,0.072,0.07,-0.982,0.049,0.66,-0.178,-0.372
429,0.051,-0.143,0.074,0.071,-0.977,0.047,0.66,-0.178,-0.372
430,0.047,-0.158,0.077,0.078,-0.969,0.043,0.67,-0.183,-0.381
431,0.046,-0.169,0.077,0.085,-0.963,0.034,0.634,-0.166,-0.385
432,0.044,-0.172,0.077,0.092,-0.959,0.027,0.645,-0.168,-0.372
433,0.042,-0.165,0.079,0.102,-0.952,0.013,0.645,-0.168,-0.372
434,0.046,-0.161,0.085,0.105,-0.956,0.008,0.648,-0.186,-0.382
435,0.055,-0.149,0.09,0.109,-0.965,0.0,0.661,-0.18,-0.381
436,0.069,-0.146,0.099,0.111,-0.974,0.002,0.661,-0.18,-0.381
437,0.076,-0.151,0.105,0.105,-0.986,0.018,0.642,-0.19,-0.378
438,0.076,-0.17,0.11,0.102,-0.986,0.027,0.66,-0.189,-0.384
439,0.073,-0.191,0.114,0.099,-0.983,0.034,0.646,-0.181,-0.39
440,0.07,-0.215,0.111,0.096,-0.974,0.034,0.657,-0.187,-0.373
441,0.058,-0.224,0.105,0.112,-0.957,0.014,0.649,-0.19,-0.382
442,0.041,-0.224,0.094,0.131,-0.953,0.001,0.64,-0.181,-0.382
443,0.022,-0.219,0.079,0.137,-0.957,0.008,0.64,-0.181,-0.382
444,0.004,-0.219,0.069,0.137,-0.969,0.024,0.657,-0.181,-0.381
445,-0.007,-0.228,0.065,0.147,-0.969,0.016,0.648,-0.192,-0.381
446,-0.009,-0.231,0.061,0.167,-0.983,0.014,0.639,-0.187,-0.381
447,-0.007,-0.228,0.054,0.181,-0.993,0.007,0.639,-0.178,-0.385
448,-0.018,-0.225,0.052,0.179,-1.013,0.016,0.648,-0.187,-0.384
449,-0.018,-0.225,0.052,0.175,-1.022,0.029,0.648,-0.187,-0.384
450,-0.023,-0.232,0.048,0.174,-1.016,0.044,0.66,-0.171,-0.39
451,-0.025,-0.255,0.047,0.189,-1.012,0.056,0.631,-0.174,-0.378
452,-0.008,-0.268,0.04,0.208,-1.0,0.053,0.654,-0.183,-0.393
453,0.003,-0.31,0.052,0.213,-0.985,0.044,0.624,-0.202,-0.382
454,0.006,-0.357,0.057,0.209,-0.972,0.037,0.651,-0.202,-0.394
455,0.01,-0.384,0.051,0.212,-0.966,0.032,0.63,-0.199,-0.391
456,0.009,-0.385,0.042,0.225,-0.965,0.022,0.63,-0.199,-0.391
457,0.003,-0.371,0.036,0.236,-0.968,0.012,0.645,-0.195,-0.385
458,-0.002,-0.352,0.032,0.234,-0.971,0.01,0.637,-0.18,-0.376
459,-0.003,-0.348,0.033,0.221,-0.972,0.011,0.631,-0.177,-0.384
460,-0.002,-0.35,0.032,0.209,-0.973,0.01,0.622,-0.195,-0.367
461,-0.005,-0.347,0.028,0.2,-0.973,0.0,0.633,-0.18,-0.393
462,-0.011,-0.329,0.023,0.193,-0.966,-0.009,0.643,-0.199,-0.385
463,-0.007,-0.318,0.021,0.188,-0.961,0.0,0.643,-0.199,-0.385
464,0.001,-0.319,0.022,0.188,-0.961,0.0,0.633,-0.171,-0.403
465,0.011,-0.327,0.025,0.189,-0.956,0.015,0.616,-0.199,-0.396
466,0.019,-0.34,0.028,0.196,-0.948,0.023,0.625,-0.186,-0.412
467,0.027,-0.357,0.032,0.21,-0.938,0.026,0.621,-0.184,-0.367
468,0.037,-0.366,0.036,0.23,-0.924,0.017,0.621,-0.184,-0.367
469,0.037,-0.366,0.036,0.243,-0.916,0.004,0.624,-0.186,-0.406
470,0.044,-0.358,0.035,0.245,-0.921,-0.008,0.624,-0.186,-0.406
471,0.049,-0.332,0.03,0.243,-0.932,-0.016,0.624,-0.199,-0.397
472,0.052,-0.284,0.021,0.233,-0.945,-0.007,0.615,-0.19,-0.397
473,0.052,-0.235,0.011,0.216,-0.954,0.012,0.633,-0.187,-0.394
474,0.043,-0.212,0.006,0.204,-0.959,0.034,0.613,-0.19,-0.385
475,0.042,-0.196,0.0,0.202,-0.967,0.05,0.607,-0.19,-0.399
476,0.04,-0.208,0.004,0.206,-0.963,0.048,0.607,-0.19,-0.399
477,0.036,-0.23,0.007,0.213,-0.954,0.034,0.618,-0.172,-0.394
478,0.041,-0.226,0.009,0.207,-0.953,0.013,0.613,-0.181,-0.409
479,0.051,-0.19,0.007,0.193,-0.94,0.005,0.606,-0.201,-0.399
480,0.058,-0.16,0.0,0.189,-0.923,0.019,0.61,-0.19,-0.367
481,0.064,-0.137,-0.006,0.199,-0.92,0.034,0.609,-0.175,-0.396
482,0.077,-0.126,-0.014,0.21,-0.925,0.042,0.609,-0.175,-0.396
483,0.082,-0.131,-0.022,0.215,-0.929,0.04,0.595,-0.207,-0.403
484,0.081,-0.142,-0.03,0.215,-0.929,0.04,0.607,-0.195,-0.399
485,0.084,-0.149,-0.039,0.222,-0.934,0.023,0.604,-0.187,-0.409
486,0.08,-0.142,-0.051,0.219,-0.951,0.007,0.621,-0.181,-0.393
487,0.067,-0.128,-0.06,0.207,-0.969,0.008,0.606,-0.186,-0.391
488,0.067,-0.128,-0.06,0.201,-0.978,0.003,0.606,-0.186,-0.391
489,0.059,-0.116,-0.066,0.202,-0.982,0.002,0.607,-0.205,-0.376
490,0.06,-0.093,-0.071,0.201,-0.984,0.009,0.613,-0.19,-0.39
491,0.059,-0.069,-0.076,0.203,-0.98,0.024,0.612,-0.189,-0.408
492,0.058,-0.067,-0.074,0.215,-0.971,0.049,0.601,-0.192,-0.388
493,0.065,-0.088,-0.072,0.226,-0.968,0.058,0.618,-0.196,-0.391
494,0.073,-0.102,-0.072,0.23,-0.968,0.055,0.618,-0.196,-0.391
495,0.079,-0.107,-0.078,0.233,-0.963,0.053,0.604,-0.199,-0.382
496,0.081,-0.113,-0.088,0.235,-0.958,0.045,0.604,-0.199,-0.382
497,0.081,-0.109,-0.097,0.236,-0.953,0.035,0.598,-0.214,-0.393
498,0.09,-0.095,-0.104,0.228,-0.954,0.033,0.613,-0.217,-0.387
499,0.098,-0.083,-0.113,0.218,-0.952,0.037,0.615,-0.193,-0.403
500,0.103,-0.078,-0.119,0.203,-0.96,0.039,0.615,-0.193,-0.403
501,0.112,-0.084,-0.124,0.188,-0.973,0.042,0.607,-0.189,-0.4
502,0.123,-0.107,-0.125,0.172,-0.973,0.049,0.6,-0.193,-0.375
503,0.138,-0.125,-0.127,0.152,-0.972,0.056,0.613,-0.199,-0.373
504,0.154,-0.137,-0.13,0.152,-0.972,0.056,0.595,-0.201,-0.393
505,0.161,-0.142,-0.138,0.139,-0.968,0.065,0.618,-0.186,-0.388
506,0.155,-0.148,-0.149,0.136,-0.96,0.078,0.615,-0.196,-0.381
507,0.155,-0.148,-0.149,0.145,-0.953,0.086,0.615,-0.196,-0.381
508,0.147,-0.159,-0.158,0.16,-0.951,0.087,0.613,-0.198,-0.378
509,0.139,-0.172,-0.166,0.178,-0.953,0.089,0.613,-0.196,-0.373
510,0.132,-0.176,-0.174,0.188,-0.95,0.085,0.613,-0.196,-0.373
511,0.13,-0.169,-0.182,0.196,-0.95,0.087,0.606,-0.204,-0.385
512,0.133,-0.147,-0.189,0.214,-0.96,0.097,0.606,-0.198,-0.387
513,0.135,-0.117,-0.197,0.243,-0.976,0.105,0.631,-0.202,-0.39
514,0.122,-0.102,-0.204,0.277,-1.008,0.111,0.631,-0.202,-0.39
515,0.089,-0.104,-0.203,0.303,-1.059,0.112,0.607,-0.198,-0.382
516,0.041,-0.119,-0.191,0.31,-1.12,0.106,0.615,-0.207,-0.382
517,-0.016,-0.131,-0.166,0.301,-1.183,0.103,0.612,-0.201,-0.37
518,-0.088,-0.131,-0.13,0.28,-1.229,0.099,0.619,-0.205,-0.406
519,-0.172,-0.091,-0.094,0.263,-1.257,0.083,0.633,-0.213,-0.381
520,-0.265,-0.009,-0.072,0.248,-1.256,0.063,0.633,-0.213,-0.381
521,-0.373,0.096,-0.07,0.227,-1.239,0.064,0.604,-0.207,-0.388
522,-0.494,0.18,-0.085,0.205,-1.216,0.087,0.634,-0.183,-0.382
523,-0.636,0.236,-0.105,0.205,-1.216,0.087,0.598,-0.207,-0.387
524,-0.756,0.277,-0.117,0.195,-1.179,0.086,0.621,-0.186,-0.393
525,-0.854,0.326,-0.12,0.184,-1.13,0.032,0.618,-0.187,-0.418
526,-0.868,0.385,-0.107,0.155,-1.089,-0.053,0.646,-0.196,-0.408
527,-0.868,0.385,-0.107,0.086,-1.02,-0.13,0.646,-0.196,-0.408
528,-0.917,0.48,-0.133,-0.008,-0.987,-0.13,0.616,-0.184,-0.42
529,-0.987,0.565,-0.164,-0.07,-0.957,-0.074,0.627,-0.18,-0.436
530,-1.033,0.6,-0.207,-0.095,-0.897,-0.032,0.615,-0.18,-0.411
531,-1.021,0.641,-0.242,-0.104,-0.935,0.056,0.633,-0.187,-0.433
532,-1.288,0.762,-0.301,-0.102,-1.007,0.163,0.64,-0.184,-0.441
533,-1.441,0.814,-0.352,-0.081,-1.016,0.176,0.646,-0.18,-0.429
534,-1.389,0.807,-0.333,-0.012,-0.988,0.126,0.646,-0.18,-0.429
535,-1.272,0.742,-0.288,0.015,-0.986,0.135,0.624,-0.166,-0.439
536,-1.196,0.646,-0.245,-0.012,-1.01,0.168,0.637,-0.159,-0.445
537,-1.178,0.564,-0.218,-0.016,-1.062,0.177,0.646,-0.13,-0.451
538,-1.176,0.462,-0.165,-0.027,-1.096,0.196,0.66,-0.139,-0.454
539,-1.091,0.349,-0.092,0.007,-1.088,0.145,0.658,-0.139,-0.454
540,-0.972,0.318,-0.004,0.091,-1.102,0.046,0.66,-0.138,-0.484
541,-0.821,0.353,0.107,0.154,-1.111,-0.021,0.66,-0.138,-0.484
542,-0.707,0.455,0.194,0.174,-1.1,-0.028,0.661,-0.13,-0.483
543,-0.645,0.569,0.263,0.174,-1.1,-0.028,0.66,-0.135,-0.478
544,-0.644,0.706,0.291,0.175,-1.098,0.033,0.673,-0.121,-0.471
545,-0.672,0.807,0.28,0.165,-1.072,0.102,0.661,-0.136,-0.492
546,-0.702,0.849,0.263,0.134,-1.014,0.16,0.666,-0.118,-0.48
547,-0.702,0.849,0.263,0.091,-0.945,0.231,0.666,-0.118,-0.48
548,-0.706,0.858,0.247,0.041,-0.871,0.283,0.675,-0.124,-0.487
549,-0.683,0.868,0.225,0.0,-0.811,0.298,0.675,-0.118,-0.48
550,-0.654,0.877,0.191,-0.044,-0.793,0.306,0.676,-0.109,-0.478
551,-0.585,0.848,0.152,-0.081,-0.79,0.307,0.678,-0.115,-0.486
552,-0.532,0.807,0.125,-0.098,-0.801,0.299,0.691,-0.091,-0.496
553,-0.513,0.784,0.119,-0.105,-0.84,0.291,0.678,-0.094,-0.484
554,-0.493,0.753,0.078,-0.096,-0.876,0.29,0.678,-0.094,-0.484
555,-0.459,0.715,0.055,-0.102,-0.885,0.302,0.685,-0.109,-0.492
556,-0.403,0.655,0.051,-0.118,-0.872,0.318,0.705,-0.111,-0.489
557,-0.331,0.564,0.05,-0.115,-0.862,0.321,0.694,-0.102,-0.493
558,-0.254,0.461,0.054,-0.106,-0.848,0.319,0.697,-0.1,-0.495
559,-0.184,0.348,0.065,-0.098,-0.821,0.325,0.694,-0.094,-0.484
560,-0.119,0.251,0.077,-0.094,-0.797,0.339,0.699,-0.106,-0.511
561,-0.066,0.193,0.07,-0.092,-0.776,0.353,0.699,-0.106,-0.511
562,-0.037,0.154,0.067,-0.088,-0.742,0.353,0.7,-0.073,-0.486
563,-0.002,0.136,0.058,-0.088,-0.742,0.353,0.7,-0.115,-0.501
564,0.046,0.138,0.049,-0.079,-0.734,0.351,0.724,-0.084,-0.501
565,0.103,0.135,0.049,-0.065,-0.739,0.344,0.724,-0.076,-0.465
566,0.159,0.135,0.04,-0.05,-0.744,0.336,0.709,-0.099,-0.478
567,0.159,0.135,0.04,-0.03,-0.763,0.335,0.699,-0.088,-0.492
568,0.198,0.128,0.037,-0.014,-0.779,0.34,0.699,-0.088,-0.492
569,0.228,0.102,0.045,-0.003,-0.793,0.35,0.7,-0.091,-0.484
570,0.265,0.07,0.056,-0.002,-0.789,0.37,0.703,-0.1,-0.484
571,0.306,0.026,0.072,-0.02,-0.774,0.388,0.706,-0.111,-0.492
572,0.352,-0.031,0.087,-0.032,-0.759,0.386,0.711,-0.09,-0.474
573,0.401,-0.086,0.103,-0.039,-0.756,0.393,0.72,-0.097,-0.484
574,0.441,-0.115,0.106,-0.042,-0.762,0.397,0.72,-0.097,-0.484
575,0.464,-0.13,0.11,-0.033,-0.764,0.398,0.699,-0.123,-0.477
576,0.476,-0.135,0.116,-0.027,-0.771,0.411,0.72,-0.117,-0.489
577,0.485,-0.139,0.124,-0.02,-0.778,0.42,0.709,-0.105,-0.474
578,0.485,-0.153,0.137,-0.002,-0.789,0.415,0.708,-0.118,-0.487
579,0.487,-0.142,0.149,0.001,-0.808,0.443,0.69,-0.123,-0.489
580,0.484,-0.137,0.161,-0.004,-0.827,0.485,0.69,-0.123,-0.489
581,0.488,-0.148,0.173,0.001,-0.84,0.506,0.682,-0.121,-0.48
582,0.494,-0.158,0.189,0.001,-0.855,0.506,0.684,-0.106,-0.477
583,0.469,-0.189,0.205,0.026,-0.855,0.523,0.691,-0.132,-0.48
584,0.451,-0.133,0.215,0.09,-0.868,0.505,0.699,-0.139,-0.463
585,0.402,-0.086,0.227,0.134,-0.908,0.519,0.69,-0.142,-0.48
586,0.402,-0.086,0.227,0.163,-0.97,0.56,0.69,-0.142,-0.48
587,0.325,-0.066,0.246,0.205,-1.03,0.566,0.675,-0.151,-0.462
588,0.271,-0.068,0.282,0.214,-1.059,0.567,0.69,-0.141,-0.465
589,0.248,-0.092,0.315,0.178,-1.027,0.576,0.688,-0.15,-0.457
590,0.219,-0.064,0.305,0.115,-0.967,0.615,0.693,-0.141,-0.459
591,0.175,0.044,0.277,0.051,-0.865,0.648,0.697,-0.141,-0.468
592,0.155,0.161,0.245,-0.059,-0.779,0.722,0.697,-0.141,-0.468
593,0.201,0.257,0.21,-0.115,-0.722,0.638,0.685,-0.132,-0.445
594,0.263,0.268,0.191,-0.102,-0.753,0.421,0.688,-0.151,-0.465
595,0.285,0.147,0.179,-0.113,-0.957,0.326,0.676,-0.148,-0.465
596,0.289,-0.1,0.167,-0.118,-1.241,0.291,0.679,-0.154,-0.457
597,0.323,-0.483,0.132,-0.104,-1.504,0.193,0.672,-0.139,-0.456
598,0.409,-0.864,0.105,-0.107,-1.627,0.04,0.672,-0.139,-0.456
599,0.431,-0.982,0.054,-0.096,-1.625,0.016,0.679,-0.138,-0.453
600,0.268,-0.765,0.017,-0.007,-1.544,0.123,0.66,-0.15,-0.459
601,-0.001,-0.35,0.01,0.034,-1.346,0.28,0.66,-0.144,-0.445
602,-0.252,-0.049,0.0,0.034,-1.346,0.28,0.673,-0.162,-0.469
603,-0.322,-0.102,-0.005,-0.029,-1.056,0.388,0.67,-0.177,-0.454
604,-0.161,-0.5,0.002,-0.091,-0.742,0.34,0.667,-0.142,-0.463
605,0.109,-0.92,-0.012,-0.116,-0.449,0.132,0.667,-0.142,-0.463
606,0.3,-1.066,-0.065,-0.125,-0.264,-0.114,0.678,-0.153,-0.474
607,0.35,-0.884,-0.151,0.076,-0.497,-0.248,0.654,-0.151,-0.466
608,0.272,-0.581,-0.216,0.309,-0.814,-0.162,0.652,-0.148,-0.472
609,0.207,-0.401,-0.191,0.516,-1.094,-0.055,0.642,-0.147,-0.465
610,0.236,-0.422,-0.086,0.635,-1.264,-0.011,0.658,-0.154,-0.466
611,0.366,-0.58,0.067,0.639,-1.317,-0.042,0.658,-0.154,-0.466
612,0.487,-0.644,0.219,0.535,-1.265,-0.1,0.64,-0.163,-0.459
613,0.501,-0.555,0.294,0.334,-1.147,-0.065,0.636,-0.162,-0.463
614,0.44,-0.426,0.282,0.116,-0.99,0.057,0.628,-0.159,-0.46
615,0.366,-0.376,0.224,-0.019,-0.869,0.174,0.634,-0.169,-0.466
616,0.294,-0.405,0.143,-0.112,-0.829,0.274,0.645,-0.159,-0.478
617,0.273,-0.536,0.083,-0.132,-0.82,0.281,0.645,-0.159,-0.478
618,0.306,-0.682,0.041,-0.087,-0.849,0.212,0.633,-0.159,-0.471
619,0.314,-0.774,0.011,-0.026,-0.918,0.138,0.642,-0.15,-0.463
620,0.301,-0.784,-0.003,0.073,-0.968,0.013,0.624,-0.175,-0.457
621,0.276,-0.69,-0.006,0.073,-0.968,0.013,0.612,-0.163,-0.456
622,0.241,-0.567,0.005,0.193,-1.014,-0.109,0.612,-0.163,-0.456
623,0.231,-0.484,0.032,0.288,-1.038,-0.155,0.609,-0.175,-0.469
624,0.231,-0.484,0.032,0.335,-1.016,-0.149,0.609,-0.175,-0.469
625,0.239,-0.408,0.049,0.336,-0.968,-0.13,0.625,-0.201,-0.463
626,0.245,-0.291,0.049,0.307,-0.905,-0.122,0.604,-0.16,-0.462
627,0.263,-0.133,0.04,0.267,-0.866,-0.128,0.606,-0.169,-0.45
628,0.312,-0.001,0.037,0.217,-0.87,-0.109,0.589,-0.169,-0.447
629,0.327,0.109,0.024,0.191,-0.909,-0.05,0.603,-0.165,-0.46
630,0.317,0.182,0.009,0.192,-0.938,0.005,0.604,-0.184,-0.471
631,0.317,0.193,0.0,0.185,-0.943,0.048,0.604,-0.184,-0.471
632,0.326,0.156,-0.002,0.177,-0.946,0.074,0.595,-0.181,-0.447
633,0.323,0.105,-0.006,0.174,-0.945,0.092,0.603,-0.181,-0.447
634,0.31,0.06,-0.014,0.179,-0.945,0.099,0.603,-0.201,-0.444
635,0.294,0.032,-0.023,0.19,-0.941,0.092,0.598,-0.192,-0.429
636,0.289,0.018,-0.037,0.205,-0.939,0.085,0.594,-0.177,-0.445
637,0.279,0.007,-0.058,0.218,-0.947,0.075,0.6,-0.19,-0.436
638,0.275,-0.004,-0.07,0.231,-0.95,0.074,0.6,-0.19,-0.436
639,0.284,-0.005,-0.079,0.231,-0.943,0.073,0.612,-0.195,-0.45
640,0.302,0.007,-0.098,0.217,-0.929,0.082,0.603,-0.184,-0.451
641,0.322,0.016,-0.118,0.217,-0.929,0.082,0.609,-0.201,-0.462
642,0.323,0.032,-0.142,0.21,-0.913,0.098,0.619,-0.171,-0.442
643,0.329,0.053,-0.158,0.215,-0.925,0.09,0.592,-0.193,-0.441
644,0.329,0.053,-0.158,0.222,-0.938,0.083,0.601,-0.198,-0.429
645,0.329,0.07,-0.166,0.232,-0.94,0.088,0.601,-0.198,-0.429
646,0.337,0.079,-0.166,0.244,-0.946,0.096,0.603,-0.198,-0.442
647,0.341,0.09,-0.156,0.252,-0.95,0.113,0.613,-0.199,-0.426
648,0.336,0.078,-0.14,0.254,-0.957,0.132,0.618,-0.207,-0.42
649,0.328,0.054,-0.123,0.251,-0.969,0.145,0.618,-0.189,-0.424
650,0.312,0.016,-0.112,0.242,-0.977,0.156,0.628,-0.192,-0.462
651,0.286,-0.018,-0.112,0.229,-0.985,0.168,0.616,-0.198,-0.42
652,0.242,-0.059,-0.112,0.216,-0.987,0.175,0.616,-0.198,-0.42
653,0.2,-0.098,-0.118,0.202,-0.982,0.171,0.615,-0.192,-0.423
654,0.158,-0.115,-0.137,0.18,-0.98,0.16,0.609,-0.201,-0.421
655,0.119,-0.108,-0.175,0.163,-0.988,0.143,0.613,-0.213,-0.42
656,0.062,-0.071,-0.22,0.186,-1.023,0.105,0.622,-0.192,-0.42
657,0.03,-0.028,-0.252,0.205,-1.059,0.065,0.615,-0.205,-0.426
658,-0.01,0.006,-0.268,0.2,-1.067,0.044,0.622,-0.22,-0.414
659,-0.053,0.088,-0.278,0.2,-1.067,0.044,0.622,-0.22,-0.414
660,-0.102,0.231,-0.284,0.212,-1.053,0.019,0.63,-0.217,-0.433
661,-0.166,0.34,-0.274,0.24,-1.039,0.001,0.625,-0.199,-0.432
662,-0.258,0.386,-0.245,0.257,-1.033,0.01,0.627,-0.198,-0.421
663,-0.371,0.375,-0.198,0.247,-1.046,0.029,0.633,-0.207,-0.408
664,-0.371,0.375,-0.198,0.22,-1.1,0.073,0.633,-0.207,-0.408
665,-0.508,0.336,-0.147,0.182,-1.175,0.113,0.625,-0.199,-0.424
666,-0.658,0.339,-0.111,0.178,-1.235,0.085,0.643,-0.183,-0.432
667,-0.802,0.368,-0.078,0.194,-1.265,0.036,0.631,-0.19,-0.421
668,-0.888,0.394,-0.044,0.17,-1.246,0.0,0.649,-0.186,-0.442
669,-0.963,0.403,-0.034,0.107,-1.196,-0.025,0.642,-0.187,-0.454
670,-1.12,0.606,-0.1,0.013,-1.1,-0.036,0.643,-0.189,-0.436
671,-1.138,0.788,-0.121,0.021,-1.044,-0.044,0.642,-0.172,-0.454
672,-1.195,0.861,-0.203,0.0,-0.997,0.016,0.652,-0.172,-0.465
673,-1.331,0.997,-0.272,0.018,-1.048,0.024,0.657,-0.178,-0.454
674,-1.304,1.22,-0.297,0.062,-0.973,-0.128,0.652,-0.168,-0.48
675,-1.224,1.46,-0.312,0.076,-0.925,-0.116,0.652,-0.168,-0.48
676,-1.131,1.425,-0.303,0.083,-0.984,0.059,0.675,-0.162,-0.471
677,-1.041,1.173,-0.268,0.067,-0.988,0.178,0.684,-0.139,-0.457
678,-0.963,0.926,-0.222,0.052,-1.02,0.186,0.684,-0.139,-0.457
679,-0.914,0.778,-0.183,0.052,-1.02,0.186,0.681,-0.138,-0.472
680,-0.905,0.623,-0.135,0.051,-1.082,0.18,0.705,-0.118,-0.483
681,-0.835,0.461,-0.042,0.071,-1.121,0.246,0.682,-0.13,-0.478
682,-0.735,0.403,0.08,0.12,-1.133,0.249,0.682,-0.13,-0.478
683,-0.658,0.465,0.2,0.138,-1.151,0.178,0.708,-0.115,-0.474
684,-0.658,0.465,0.2,0.119,-1.135,0.129,0.712,-0.117,-0.493
685,-0.588,0.546,0.282,0.073,-1.057,0.13,0.712,-0.117,-0.493
686,-0.543,0.619,0.336,0.009,-0.966,0.155,0.718,-0.13,-0.495
687,-0.531,0.684,0.355,-0.048,-0.884,0.192,0.709,-0.115,-0.486
688,-0.519,0.753,0.315,-0.08,-0.82,0.217,0.709,-0.115,-0.486
689,-0.506,0.809,0.262,-0.07,-0.814,0.23,0.718,-0.12,-0.483
690,-0.49,0.864,0.224,-0.032,-0.847,0.234,0.724,-0.096,-0.49
691,-0.471,0.898,0.209,-0.003,-0.88,0.232,0.706,-0.094,-0.477
692,-0.459,0.883,0.208,0.002,-0.905,0.26,0.718,-0.115,-0.495
693,-0.427,0.829,0.239,0.021,-0.905,0.254,0.721,-0.087,-0.501
694,-0.367,0.781,0.261,0.042,-0.891,0.224,0.732,-0.105,-0.475
695,-0.324,0.756,0.276,0.029,-0.875,0.231,0.732,-0.105,-0.475
696,-0.289,0.744,0.281,0.002,-0.84,0.246,0.744,-0.117,-0.513
697,-0.255,0.744,0.261,-0.028,-0.791,0.262,0.729,-0.09,-0.493
698,-0.193,0.703,0.256,-0.068,-0.731,0.275,0.727,-0.103,-0.472
699,-0.107,0.665,0.231,-0.068,-0.731,0.275,0.727,-0.103,-0.472
700,-0.037,0.622,0.209,-0.096,-0.697,0.299,0.73,-0.117,-0.478
701,0.007,0.569,0.201,-0.096,-0.702,0.326,0.736,-0.108,-0.484
702,0.007,0.569,0.201,-0.079,-0.727,0.345,0.736,-0.108,-0.484
703,0.032,0.536,0.191,-0.051,-0.779,0.364,0.744,-0.118,-0.48
704,0.042,0.518,0.2,-0.022,-0.816,0.368,0.753,-0.085,-0.484
705,0.06,0.527,0.209,0.001,-0.844,0.372,0.745,-0.111,-0.462
706,0.088,0.546,0.224,0.025,-0.864,0.383,0.751,-0.114,-0.462
707,0.121,0.56,0.244,0.048,-0.879,0.395,0.744,-0.115,-0.466
708,0.14,0.573,0.268,0.07,-0.893,0.403,0.741,-0.093,-0.466
709,0.149,0.573,0.298,0.083,-0.88,0.394,0.741,-0.093,-0.466
710,0.167,0.571,0.331,0.076,-0.85,0.398,0.741,-0.096,-0.474
711,0.184,0.57,0.355,0.059,-0.822,0.429,0.753,-0.136,-0.475
712,0.225,0.555,0.389,0.041,-0.809,0.468,0.739,-0.127,-0.459
713,0.305,0.545,0.42,0.043,-0.811,0.517,0.739,-0.127,-0.459
714,0.373,0.508,0.446,0.054,-0.807,0.565,0.756,-0.129,-0.444
715,0.417,0.48,0.457,0.064,-0.785,0.572,0.748,-0.132,-0.435
716,0.429,0.478,0.464,0.085,-0.767,0.535,0.748,-0.132,-0.435
717,0.421,0.543,0.467,0.113,-0.78,0.482,0.739,-0.114,-0.45
718,0.402,0.645,0.45,0.146,-0.806,0.439,0.76,-0.139,-0.46
719,0.373,0.74,0.415,0.158,-0.83,0.419,0.753,-0.135,-0.418
720,0.337,0.849,0.368,0.158,-0.83,0.419,0.744,-0.136,-0.427
721,0.312,0.954,0.32,0.172,-0.866,0.391,0.765,-0.138,-0.418
722,0.312,0.954,0.32,0.193,-0.91,0.356,0.753,-0.135,-0.409
723,0.285,1.008,0.263,0.174,-0.954,0.352,0.753,-0.135,-0.409
724,0.263,1.013,0.214,0.127,-0.978,0.347,0.753,-0.135,-0.421
725,0.289,1.044,0.179,0.074,-0.999,0.33,0.757,-0.156,-0.427
726,0.303,1.087,0.181,0.025,-1.013,0.33,0.76,-0.123,-0.384
727,0.294,1.143,0.203,-0.02,-1.006,0.36,0.76,-0.123,-0.384
728,0.279,1.199,0.233,-0.059,-0.979,0.396,0.76,-0.157,-0.375
729,0.271,1.239,0.274,-0.075,-0.923,0.409,0.781,-0.153,-0.37
730,0.284,1.245,0.319,-0.073,-0.85,0.408,0.781,-0.153,-0.37
731,0.319,1.222,0.366,-0.055,-0.792,0.391,0.778,-0.175,-0.375
732,0.35,1.153,0.42,-0.028,-0.75,0.349,0.762,-0.157,-0.358
733,0.389,1.106,0.464,-0.025,-0.728,0.33,0.765,-0.151,-0.354
734,0.413,1.05,0.507,-0.02,-0.731,0.324,0.76,-0.169,-0.358
735,0.422,0.963,0.546,0.012,-0.758,0.295,0.771,-0.162,-0.346
736,0.428,0.839,0.576,0.027,-0.818,0.25,0.772,-0.162,-0.355
737,0.464,0.638,0.585,0.013,-0.907,0.193,0.772,-0.162,-0.355
738,0.517,0.422,0.564,0.013,-0.907,0.193,0.783,-0.166,-0.351
739,0.537,0.321,0.514,-0.02,-1.036,0.124,0.772,-0.189,-0.331
740,0.572,0.327,0.447,-0.045,-1.193,0.055,0.75,-0.196,-0.312
741,0.639,0.317,0.356,-0.046,-1.327,0.043,0.751,-0.181,-0.337
742,0.704,0.295,0.249,-0.021,-1.384,0.054,0.763,-0.187,-0.324
743,0.704,0.295,0.249,-0.016,-1.38,0.03,0.768,-0.195,-0.319
744,0.655,0.364,0.129,-0.02,-1.383,0.034,0.768,-0.195,-0.319
745,0.492,0.517,0.025,0.017,-1.347,0.105,0.768,-0.193,-0.298
746,0.314,0.696,-0.042,0.05,-1.232,0.185,0.753,-0.183,-0.31
747,0.172,0.859,-0.088,0.046,-1.058,0.236,0.748,-0.214,-0.285
748,0.105,0.905,-0.121,0.023,-0.861,0.246,0.759,-0.165,-0.298
749,0.123,0.788,-0.141,0.007,-0.698,0.192,0.76,-0.18,-0.289
750,0.189,0.624,-0.151,0.017,-0.616,0.089,0.762,-0.199,-0.285
751,0.27,0.568,-0.156,0.057,-0.621,0.005,0.762,-0.199,-0.285
752,0.353,0.657,-0.145,0.142,-0.681,-0.023,0.775,-0.166,-0.273
753,0.418,0.847,-0.104,0.249,-0.774,0.019,0.768,-0.193,-0.277
754,0.441,1.027,-0.049,0.35,-0.884,0.113,0.756,-0.187,-0.253
755,0.457,1.176,0.019,0.445,-0.99,0.186,0.766,-0.202,-0.259
756,0.458,1.303,0.088,0.515,-1.059,0.215,0.772,-0.183,-0.261
757,0.461,1.347,0.145,0.537,-1.074,0.2,0.772,-0.183,-0.261
758,0.456,1.356,0.184,0.537,-1.074,0.2,0.765,-0.195,-0.261
759,0.437,1.361,0.197,0.514,-1.041,0.144,0.778,-0.193,-0.25
760,0.433,1.414,0.191,0.456,-0.998,0.071,0.765,-0.192,-0.256
761,0.429,1.48,0.168,0.399,-0.972,0.01,0.751,-0.201,-0.213
762,0.434,1.514,0.155,0.32,-0.951,-0.002,0.751,-0.201,-0.213
763,0.434,1.514,0.155,0.225,-0.931,0.0,0.766,-0.175,-0.198
764,0.438,1.572,0.157,0.198,-0.935,0.003,0.766,-0.175,-0.198
765,0.424,1.619,0.165,0.203,-0.948,0.026,0.771,-0.202,-0.187
766,0.419,1.622,0.174,0.194,-0.945,0.035,0.76,-0.201,-0.181
767,0.406,1.607,0.168,0.181,-0.945,0.043,0.76,-0.205,-0.172
768,0.381,1.582,0.167,0.201,-0.956,0.046,0.745,-0.219,-0.16
769,0.352,1.583,0.168,0.227,-0.972,0.035,0.759,-0.21,-0.162
770,0.305,1.606,0.166,0.234,-1.004,0.026,0.759,-0.21,-0.162
771,0.271,1.603,0.184,0.24,-1.001,-0.004,0.765,-0.205,-0.15
772,0.259,1.652,0.196,0.237,-0.972,-0.051,0.75,-0.193,-0.148
773,0.27,1.716,0.194,0.226,-0.981,-0.069,0.754,-0.192,-0.142
774,0.266,1.736,0.19,0.233,-1.0,-0.051,0.724,-0.213,-0.129
775,0.263,1.677,0.219,0.212,-0.974,-0.052,0.702,-0.201,-0.105
776,0.263,1.618,0.232,0.166,-0.963,-0.094,0.702,-0.201,-0.105
777,0.28,1.554,0.238,0.164,-0.995,-0.147,0.73,-0.187,-0.117
778,0.302,1.553,0.267,0.164,-0.995,-0.147,0.726,-0.196,-0.099
779,0.317,1.574,0.262,0.16,-1.001,-0.159,0.706,-0.198,-0.094
780,0.337,1.591,0.261,0.146,-1.013,-0.138,0.708,-0.204,-0.096
781,0.337,1.591,0.261,0.154,-1.035,-0.1,0.702,-0.204,-0.109
782,0.353,1.591,0.277,0.152,-1.025,-0.058,0.702,-0.204,-0.109
783,0.354,1.554,0.282,0.131,-1.005,-0.032,0.693,-0.19,-0.06
784,0.339,1.505,0.268,0.134,-0.985,-0.013,0.676,-0.213,-0.082
785,0.321,1.465,0.241,0.172,-0.978,-0.019,0.679,-0.18,-0.073
786,0.31,1.435,0.24,0.205,-0.975,-0.048,0.67,-0.207,-0.054
787,0.315,1.442,0.218,0.197,-0.953,-0.086,0.66,-0.186,-0.046
788,0.323,1.428,0.215,0.192,-0.981,-0.106,0.66,-0.186,-0.046
789,0.312,1.407,0.224,0.2,-1.018,-0.093,0.643,-0.192,-0.033
790,0.299,1.327,0.179,0.199,-1.015,-0.057,0.643,-0.192,-0.033
791,0.282,1.374,0.203,0.175,-1.02,-0.051,0.649,-0.186,-0.06
792,0.277,1.339,0.211,0.142,-1.027,-0.073,0.639,-0.196,-0.04
793,0.27,1.308,0.196,0.126,-1.036,-0.088,0.631,-0.21,-0.043
794,0.264,1.308,0.16,0.12,-1.039,-0.095,0.631,-0.21,-0.043
795,0.245,1.322,0.138,0.153,-1.044,-0.081,0.618,-0.211,-0.028
796,0.223,1.318,0.133,0.184,-1.024,-0.051,0.621,-0.195,-0.025
797,0.2,1.27,0.124,0.184,-1.024,-0.051,0.595,-0.192,-0.021
798,0.186,1.202,0.112,0.195,-0.987,-0.061,0.595,-0.187,-0.015
799,0.178,1.171,0.095,0.198,-0.972,-0.092,0.604,-0.186,-0.009
800,0.168,1.165,0.08,0.195,-0.974,-0.105,0.6,-0.196,-0.021
801,0.168,1.165,0.08,0.173,-0.977,-0.102,0.6,-0.196,-0.021
802,0.166,1.193,0.049,0.139,-0.964,-0.08,0.594,-0.186,-0.01
803,0.156,1.188,0.014,0.129,-0.959,-0.048,0.565,-0.198,-0.003
804,0.128,1.151,-0.021,0.131,-0.971,-0.019,0.565,-0.198,-0.003
805,0.093,1.096,-0.047,0.144,-0.988,-0.001,0.55,-0.186,-0.001
806,0.06,1.042,-0.06,0.141,-1.005,0.0,0.568,-0.19,-0.01
807,0.051,1.01,-0.069,0.155,-1.021,-0.016,0.555,-0.187,0.001
808,0.057,0.96,-0.07,0.167,-1.033,-0.038,0.555,-0.187,0.001
809,0.067,0.929,-0.075,0.158,-1.027,-0.048,0.568,-0.192,-0.015
810,0.071,0.901,-0.081,0.159,-1.009,-0.055,0.553,-0.171,-0.019
811,0.086,0.894,-0.092,0.16,-0.992,-0.035,0.55,-0.193,0.003
812,0.084,0.872,-0.102,0.158,-0.978,0.003,0.546,-0.172,0.001
813,0.074,0.849,-0.118,0.157,-0.959,0.003,0.534,-0.193,-0.013
814,0.063,0.813,-0.137,0.164,-0.948,-0.006,0.547,-0.186,-0.004
815,0.049,0.774,-0.143,0.156,-0.949,0.0,0.547,-0.186,-0.004
816,0.039,0.738,-0.147,0.125,-0.95,-0.007,0.538,-0.177,-0.01
817,0.042,0.71,-0.158,0.104,-0.948,-0.007,0.519,-0.174,-0.01
818,0.033,0.64,-0.168,0.104,-0.948,-0.007,0.519,-0.174,-0.01
819,0.024,0.604,-0.179,0.083,-0.957,0.003,0.528,-0.175,-0.01
820,0.028,0.582,-0.187,0.065,-0.966,-0.007,0.517,-0.177,0.004
821,0.028,0.582,-0.187,0.067,-0.972,-0.011,0.528,-0.177,-0.021
822,0.022,0.537,-0.193,0.07,-0.983,0.014,0.528,-0.177,-0.021
823,0.018,0.499,-0.2,0.079,-0.997,0.038,0.528,-0.174,-0.025
824,0.007,0.463,-0.204,0.087,-0.997,0.031,0.504,-0.189,0.003
825,0.0,0.459,-0.214,0.104,-0.985,0.026,0.504,-0.189,0.003
826,0.01,0.442,-0.217,0.139,-0.977,0.032,0.528,-0.175,0.007
827,0.026,0.427,-0.225,0.164,-0.967,0.028,0.507,-0.198,-0.006
828,0.035,0.421,-0.232,0.18,-0.958,0.028,0.538,-0.171,0.003
829,0.044,0.42,-0.24,0.189,-0.954,0.037,0.538,-0.171,0.003
830,0.053,0.422,-0.242,0.182,-0.961,0.05,0.511,-0.171,-0.022
831,0.068,0.417,-0.246,0.176,-0.967,0.063,0.519,-0.186,0.012
832,0.07,0.413,-0.246,0.18,-0.968,0.075,0.516,-0.189,0.027
833,0.066,0.403,-0.241,0.181,-0.979,0.072,0.517,-0.178,0.007
834,0.074,0.387,-0.224,0.185,-0.992,0.052,0.529,-0.192,0.0
835,0.104,0.387,-0.203,0.18,-0.99,0.034,0.52,-0.171,-0.019
836,0.13,0.403,-0.191,0.167,-0.98,0.026,0.52,-0.171,-0.019
837,0.14,0.436,-0.189,0.167,-0.98,0.026,0.519,-0.189,0.006
838,0.143,0.439,-0.193,0.167,-0.94,0.058,0.519,-0.189,0.006
839,0.134,0.436,-0.193,0.167,-0.94,0.058,0.505,-0.177,0.007
840,0.135,0.44,-0.193,0.188,-0.927,0.067,0.525,-0.202,0.007
841,0.135,0.44,-0.193,0.211,-0.917,0.041,0.508,-0.186,0.006
842,0.139,0.452,-0.193,0.245,-0.926,0.015,0.519,-0.184,-0.012
843,0.145,0.506,-0.179,0.258,-0.93,0.0,0.519,-0.184,-0.012
844,0.173,0.57,-0.167,0.248,-0.925,0.004,0.525,-0.18,0.006
845,0.208,0.613,-0.157,0.235,-0.933,0.02,0.507,-0.18,-0.009
846,0.237,0.674,-0.152,0.206,-0.938,0.032,0.52,-0.178,0.0
847,0.254,0.738,-0.153,0.165,-0.944,0.061,0.496,-0.186,0.009
848,0.259,0.766,-0.155,0.129,-0.953,0.1,0.495,-0.163,0.009
849,0.247,0.756,-0.159,0.113,-0.947,0.12,0.502,-0.162,0.0
850,0.22,0.721,-0.172,0.098,-0.954,0.128,0.502,-0.162,0.0
851,0.177,0.692,-0.186,0.091,-0.968,0.127,0.484,-0.174,-0.001
852,0.131,0.679,-0.193,0.102,-0.96,0.114,0.486,-0.171,0.003
853,0.074,0.693,-0.205,0.111,-0.958,0.09,0.486,-0.171,0.003
854,0.0,0.753,-0.224,0.12,-0.973,0.079,0.483,-0.189,-0.004
855,-0.073,0.794,-0.232,0.12,-0.973,0.079,0.487,-0.174,0.012
856,-0.156,0.835,-0.231,0.134,-0.986,0.088,0.469,-0.181,0.004
857,-0.233,0.89,-0.218,0.147,-0.998,0.079,0.469,-0.181,0.004
858,-0.317,0.944,-0.2,0.15,-1.012,0.064,0.478,-0.166,-0.004
859,-0.426,0.977,-0.182,0.119,-1.018,0.084,0.486,-0.168,-0.018
860,-0.556,0.98,-0.155,0.082,-1.031,0.13,0.457,-0.178,-0.025
861,-0.556,0.98,-0.155,0.051,-1.028,0.153,0.453,-0.192,-0.018
862,-0.669,0.968,-0.12,0.016,-1.019,0.154,0.462,-0.175,-0.019
863,-0.763,0.945,-0.081,-0.015,-1.032,0.146,0.45,-0.181,-0.025
864,-0.842,0.946,-0.044,-0.045,-1.051,0.123,0.45,-0.181,-0.025
865,-0.919,1.001,-0.011,-0.048,-1.1,0.108,0.448,-0.196,-0.028
866,-0.999,1.09,0.03,-0.044,-1.151,0.137,0.456,-0.199,-0.031
867,-1.046,1.035,0.08,-0.047,-1.122,0.172,0.456,-0.199,-0.031
868,-1.075,0.911,0.108,-0.03,-1.126,0.166,0.448,-0.205,-0.039
869,-1.08,0.772,0.149,0.013,-1.188,0.095,0.436,-0.193,-0.066
870,-1.059,0.662,0.21,0.043,-1.226,-0.012,0.43,-0.219,-0.09
871,-0.986,0.586,0.28,0.044,-1.222,-0.114,0.43,-0.219,-0.09
872,-0.844,0.609,0.365,0.006,-1.2,-0.104,0.444,-0.208,-0.087
873,-0.765,0.711,0.418,-0.041,-1.21,-0.005,0.415,-0.21,-0.087
874,-0.746,0.861,0.443,-0.048,-1.255,0.054,0.406,-0.204,-0.081
875,-0.791,1.005,0.51,0.011,-1.343,0.113,0.423,-0.225,-0.106
876,-0.793,1.1,0.652,0.011,-1.343,0.113,0.414,-0.195,-0.091
877,-0.798,1.166,0.826,0.153,-1.366,0.131,0.394,-0.213,-0.115
878,-0.868,1.274,0.881,0.188,-1.334,0.187,0.394,-0.213,-0.115
879,-0.9,1.39,0.859,0.093,-1.279,0.221,0.4,-0.223,-0.126
880,-0.9,1.39,0.859,0.018,-1.13,0.155,0.352,-0.21,-0.118
881,-0.949,1.495,0.742,-0.078,-0.957,0.086,0.352,-0.21,-0.118
882,-1.003,1.628,0.582,-0.176,-0.887,0.087,0.366,-0.234,-0.141
883,-0.98,1.661,0.448,-0.289,-0.835,0.201,0.358,-0.211,-0.178
884,-0.898,1.586,0.309,-0.332,-0.79,0.27,0.355,-0.207,-0.192
885,-0.823,1.502,0.169,-0.273,-0.802,0.277,0.355,-0.207,-0.192
886,-0.791,1.346,0.058,-0.204,-0.811,0.309,0.355,-0.223,-0.186
887,-0.774,1.139,-0.021,-0.162,-0.824,0.373,0.37,-0.205,-0.196
888,-0.767,0.878,-0.095,-0.19,-0.816,0.428,0.37,-0.205,-0.196
889,-0.686,0.707,-0.135,-0.167,-0.788,0.344,0.343,-0.216,-0.21
890,-0.546,0.675,-0.14,-0.106,-0.787,0.245,0.36,-0.214,-0.226
891,-0.422,0.637,-0.109,-0.082,-0.792,0.236,0.357,-0.232,-0.229
892,-0.308,0.585,-0.065,-0.062,-0.79,0.224,0.357,-0.232,-0.229
893,-0.193,0.541,-0.021,-0.058,-0.762,0.193,0.355,-0.222,-0.225
894,-0.098,0.508,0.006,-0.08,-0.708,0.172,0.357,-0.207,-0.222
895,-0.002,0.456,0.027,-0.11,-0.674,0.184,0.355,-0.235,-0.234
896,0.091,0.406,0.057,-0.11,-0.674,0.184,0.382,-0.217,-0.25
897,0.201,0.371,0.075,-0.123,-0.64,0.18,0.363,-0.214,-0.255
898,0.312,0.35,0.089,-0.134,-0.609,0.198,0.357,-0.214,-0.24
899,0.312,0.35,0.089,-0.135,-0.61,0.262,0.357,-0.214,-0.24
900,0.419,0.335,0.112,-0.128,-0.611,0.333,0.363,-0.207,-0.256
901,0.528,0.338,0.141,-0.122,-0.601,0.4,0.354,-0.21,-0.241
902,0.621,0.364,0.17,-0.102,-0.62,0.437,0.339,-0.202,-0.24
903,0.681,0.417,0.202,-0.068,-0.685,0.463,0.342,-0.223,-0.228
904,0.713,0.456,0.248,-0.024,-0.77,0.507,0.352,-0.219,-0.235
905,0.717,0.422,0.319,0.019,-0.852,0.575,0.352,-0.219,-0.235
906,0.668,0.282,0.407,0.061,-0.914,0.644,0.346,-0.204,-0.225
907,0.591,0.109,0.47,0.059,-0.965,0.722,0.336,-0.207,-0.231
908,0.474,-0.081,0.5,0.015,-0.971,0.78,0.327,-0.196,-0.196
909,0.321,-0.221,0.464,-0.045,-0.96,0.811,0.333,-0.211,-0.211
910,0.12,-0.266,0.384,-0.113,-0.968,0.81,0.345,-0.193,-0.219
911,-0.098,-0.194,0.284,-0.163,-0.964,0.69,0.339,-0.208,-0.208
912,-0.201,-0.029,0.163,-0.219,-0.96,0.458,0.339,-0.208,-0.208
913,-0.081,0.151,0.029,-0.204,-0.939,0.188,0.339,-0.195,-0.223
914,0.178,0.385,-0.067,-0.114,-0.952,0.064,0.33,-0.198,-0.231
915,0.255,0.594,-0.026,-0.029,-0.986,0.238,0.322,-0.207,-0.201
916,0.009,0.572,0.099,-0.029,-0.986,0.238,0.322,-0.207,-0.201
917,-0.13,0.352,0.153,-0.026,-0.89,0.504,0.334,-0.202,-0.235
918,0.017,0.124,0.163,-0.149,-0.711,0.49,0.325,-0.198,-0.249
919,0.017,0.124,0.163,-0.24,-0.622,0.277,0.325,-0.198,-0.249
920,0.246,-0.035,0.221,-0.148,-0.684,0.188,0.331,-0.196,-0.219
921,0.38,-0.231,0.392,0.099,-0.933,0.299,0.33,-0.193,-0.22
922,0.364,-0.655,0.565,0.351,-1.362,0.441,0.31,-0.196,-0.232
923,0.273,-1.131,0.61,0.493,-1.737,0.346,0.331,-0.181,-0.213
924,0.169,-1.41,0.558,0.489,-1.744,0.08,0.327,-0.189,-0.202
925,0.126,-1.463,0.471,0.3,-1.418,-0.205,0.318,-0.193,-0.195
926,0.215,-1.195,0.304,-0.068,-0.984,-0.389,0.318,-0.193,-0.195
927,0.345,-0.632,0.077,-0.378,-0.662,-0.249,0.322,-0.184,-0.198
928,0.315,-0.147,-0.102,-0.368,-0.588,0.142,0.303,-0.204,-0.202
929,0.21,-0.042,-0.186,-0.153,-0.655,0.427,0.309,-0.166,-0.178
930,0.13,-0.266,-0.231,0.057,-0.714,0.439,0.309,-0.166,-0.178
931,0.13,-0.605,-0.245,0.205,-0.773,0.225,0.336,-0.192,-0.193
932,0.197,-0.872,-0.21,0.332,-0.887,-0.033,0.322,-0.183,-0.186
933,0.289,-0.994,-0.086,0.471,-1.016,-0.194,0.322,-0.183,-0.186
934,0.445,-0.968,0.085,0.505,-1.096,-0.256,0.325,-0.195,-0.154
935,0.512,-0.753,0.211,0.505,-1.128,-0.256,0.313,-0.181,-0.163
936,0.465,-0.474,0.291,0.459,-1.14,0.039,0.334,-0.18,-0.16
937,0.363,-0.424,0.317,0.39,-1.14,0.039,0.327,-0.166,-0.162
938,0.377,-0.583,0.309,0.224,-1.071,0.335,0.321,-0.186,-0.157
939,0.377,-0.583,0.309,0.077,-0.943,0.49,0.322,-0.174,-0.145
940,0.48,-0.849,0.262,-0.011,-0.848,0.422,0.322,-0.174,-0.145
941,0.597,-0.975,0.22,-0.011,-0.84,0.228,0.324,-0.178,-0.157
942,0.596,-0.916,0.151,0.061,-0.89,0.067,0.325,-0.178,-0.141
943,0.511,-0.79,0.068,0.162,-0.952,0.011,0.294,-0.177,-0.124
944,0.451,-0.69,0.028,0.257,-1.001,-0.003,0.324,-0.172,-0.12
945,0.434,-0.611,0.021,0.282,-0.994,-0.025,0.324,-0.172,-0.12
946,0.434,-0.52,0.027,0.289,-0.96,-0.042,0.331,-0.168,-0.129
947,0.424,-0.427,0.024,0.278,-0.915,-0.049,0.33,-0.187,-0.115
948,0.427,-0.326,0.02,0.249,-0.878,-0.041,0.328,-0.177,-0.102
949,0.422,-0.242,0.019,0.219,-0.878,-0.007,0.316,-0.18,-0.109
950,0.429,-0.218,0.004,0.223,-0.894,0.033,0.33,-0.154,-0.109
951,0.433,-0.219,-0.008,0.25,-0.907,0.032,0.33,-0.154,-0.109
952,0.415,-0.219,-0.021,0.265,-0.924,0.024,0.324,-0.177,-0.115
953,0.401,-0.222,-0.027,0.269,-0.938,0.04,0.325,-0.172,-0.115
954,0.387,-0.229,-0.034,0.273,-0.937,0.055,0.334,-0.16,-0.1
955,0.373,-0.236,-0.04,0.273,-0.937,0.055,0.33,-0.16,-0.106
956,0.364,-0.24,-0.034,0.263,-0.928,0.057,0.348,-0.18,-0.088
957,0.351,-0.243,-0.045,0.239,-0.919,0.05,0.348,-0.18,-0.088
958,0.347,-0.249,-0.056,0.232,-0.917,0.037,0.324,-0.148,-0.084
959,0.346,-0.246,-0.065,0.231,-0.925,0.038,0.328,-0.154,-0.081
960,0.346,-0.246,-0.065,0.215,-0.931,0.043,0.334,-0.169,-0.087
961,0.331,-0.25,-0.079,0.203,-0.931,0.038,0.333,-0.15,-0.07
962,0.314,-0.246,-0.094,0.196,-0.921,0.034,0.342,-0.148,-0.09
963,0.305,-0.241,-0.109,0.193,-0.919,0.043,0.342,-0.148,-0.09
964,0.307,-0.238,-0.116,0.189,-0.915,0.035,0.322,-0.154,-0.064
965,0.328,-0.228,-0.121,0.18,-0.899,-0.003,0.322,-0.154,-0.064
966,0.37,-0.204,-0.126,0.171,-0.882,-0.016,0.337,-0.147,-0.061
967,0.41,-0.182,-0.137,0.164,-0.864,0.01,0.334,-0.168,-0.072
968,0.444,-0.183,-0.147,0.167,-0.861,0.034,0.339,-0.138,-0.073
969,0.467,-0.207,-0.149,0.181,-0.874,0.04,0.339,-0.138,-0.073
970,0.478,-0.251,-0.144,0.191,-0.89,0.043,0.343,-0.144,-0.076
971,0.479,-0.296,-0.138,0.194,-0.903,0.04,0.334,-0.162,-0.042
972,0.479,-0.326,-0.134,0.201,-0.918,0.035,0.339,-0.145,-0.054
973,0.468,-0.349,-0.137,0.205,-0.929,0.026,0.349,-0.145,-0.06
974,0.45,-0.356,-0.144,0.205,-0.929,0.026,0.358,-0.145,-0.054
975,0.436,-0.336,-0.163,0.218,-0.934,0.023,0.336,-0.142,-0.028
976,0.424,-0.318,-0.177,0.238,-0.946,0.027,0.336,-0.142,-0.028
977,0.415,-0.316,-0.186,0.25,-0.969,0.027,0.358,-0.145,-0.063
978,0.394,-0.317,-0.192,0.249,-0.987,0.041,0.339,-0.133,-0.045
979,0.394,-0.317,-0.192,0.241,-1.0,0.068,0.339,-0.133,-0.045
980,0.366,-0.315,-0.192,0.219,-1.011,0.078,0.364,-0.144,-0.04
981,0.329,-0.304,-0.192,0.189,-1.013,0.055,0.372,-0.166,-0.036
982,0.286,-0.287,-0.194,0.166,-1.009,0.036,0.37,-0.145,-0.021
983,0.245,-0.275,-0.191,0.16,-1.0,0.037,0.37,-0.145,-0.021
984,0.198,-0.281,-0.188,0.189,-0.99,0.04,0.375,-0.154,-0.021
985,0.147,-0.285,-0.179,0.235,-0.988,0.04,0.366,-0.144,-0.024
986,0.104,-0.271,-0.159,0.28,-0.977,0.027,0.367,-0.15,-0.028
987,0.058,-0.221,-0.137,0.314,-0.972,0.024,0.388,-0.153,-0.031
988,0.028,-0.149,-0.119,0.323,-0.98,0.053,0.351,-0.138,-0.034
989,0.002,-0.087,-0.118,0.31,-0.999,0.097,0.369,-0.148,-0.024
990,-0.03,-0.06,-0.123,0.296,-1.039,0.138,0.369,-0.148,-0.024
991,-0.082,-0.078,-0.13,0.297,-1.082,0.152,0.363,-0.135,-0.015
992,-0.138,-0.119,-0.133,0.319,-1.113,0.125,0.357,-0.141,-0.01
993,-0.188,-0.155,-0.131,0.343,-1.137,0.061,0.357,-0.141,-0.01
994,-0.228,-0.135,-0.13,0.35,-1.167,0.0,0.376,-0.141,-0.024
995,-0.286,-0.064,-0.136,0.35,-1.167,0.0,0.379,-0.141,-0.037
996,-0.364,0.049,-0.135,0.352,-1.204,-0.054,0.361,-0.159,-0.027
997,-0.457,0.202,-0.115,0.351,-1.236,-0.133,0.361,-0.159,-0.027
998,-0.532,0.362,-0.081,0.321,-1.258,-0.209,0.397,-0.147,-0.033
999,-0.532,0.362,-0.081,0.231,-1.257,-0.231,0.39,-0.151,-0.037
1000,-0.619,0.5,-0.051,0.106,-1.251,-0.169,0.367,-0.151,-0.042
1001,-0.703,0.623,-0.006,-0.004,-1.221,-0.106,0.369,-0.151,-0.039
1002,-0.776,0.728,0.014,-0.101,-1.143,-0.068,0.381,-0.154,-0.06
1003,-0.92,0.759,0.0,-0.133,-1.091,0.0,0.373,-0.151,-0.061
1004,-1.028,0.681,-0.007,-0.095,-1.047,0.029,0.373,-0.151,-0.061
1005,-1.096,0.621,-0.011,-0.045,-1.04,0.004,0.351,-0.156,-0.084
1006,-1.183,0.588,-0.004,0.008,-1.081,0.0,0.357,-0.174,-0.076
1007,-1.243,0.518,0.017,0.029,-1.117,0.033,0.357,-0.174,-0.076
1008,-1.259,0.361,0.044,0.015,-1.146,0.087,0.369,-0.177,-0.084
1009,-1.279,0.171,0.047,-0.008,-1.181,0.128,0.349,-0.186,-0.096
1010,-1.284,-0.078,0.053,-0.049,-1.178,0.142,0.361,-0.18,-0.109
1011,-1.248,-0.364,0.076,-0.089,-1.156,0.12,0.361,-0.18,-0.109
1012,-1.265,-0.557,0.102,-0.078,-1.2,0.078,0.366,-0.183,-0.112
1013,-1.289,-0.693,0.13,-0.036,-1.209,0.004,0.364,-0.171,-0.138
1014,-1.209,-0.64,0.121,-0.036,-1.209,0.004,0.366,-0.181,-0.133
1015,-1.179,-0.308,0.093,-0.024,-1.161,-0.161,0.369,-0.201,-0.142
1016,-1.145,0.263,-0.004,-0.025,-1.063,-0.344,0.358,-0.189,-0.144
1017,-1.094,0.709,-0.061,-0.002,-0.975,-0.384,0.358,-0.189,-0.144
1018,-1.07,0.924,-0.084,0.048,-0.93,-0.266,0.352,-0.196,-0.151
1019,-1.07,0.924,-0.084,0.082,-0.952,-0.048,0.369,-0.174,-0.157
1020,-1.08,1.002,-0.098,0.081,-1.022,0.119,0.346,-0.208,-0.171
1021,-1.095,1.053,-0.136,0.093,-1.046,0.141,0.363,-0.202,-0.171
1022,-1.111,1.05,-0.143,0.101,-1.057,0.153,0.36,-0.198,-0.186
1023,-1.092,0.996,-0.105,0.13,-1.049,0.208,0.336,-0.21,-0.225
1024,-0.991,0.879,-0.017,0.152,-1.007,0.23,0.336,-0.21,-0.225
1025,-0.849,0.735,0.076,0.106,-0.955,0.227,0.37,-0.18,-0.22
1026,-0.739,0.673,0.129,0.038,-0.923,0.223,0.361,-0.196,-0.24
1027,-0.662,0.644,0.131,-0.043,-0.877,0.204,0.336,-0.169,-0.231
1028,-0.592,0.673,0.102,-0.132,-0.838,0.171,0.336,-0.169,-0.231
1029,-0.536,0.688,0.091,-0.17,-0.836,0.162,0.367,-0.199,-0.241
1030,-0.485,0.729,0.063,-0.199,-0.823,0.177,0.366,-0.199,-0.238
1031,-0.424,0.78,0.028,-0.215,-0.792,0.192,0.366,-0.199,-0.238
1032,-0.343,0.763,-0.021,-0.2,-0.774,0.235,0.342,-0.219,-0.273
1033,-0.242,0.648,-0.044,-0.182,-0.749,0.279,0.337,-0.201,-0.259
1034,-0.135,0.532,-0.063,-0.182,-0.749,0.279,0.34,-0.187,-0.243
1035,-0.016,0.421,-0.06,-0.14,-0.724,0.302,0.352,-0.184,-0.262
1036,0.089,0.33,-0.039,-0.09,-0.724,0.322,0.357,-0.181,-0.27
1037,0.182,0.249,-0.003,-0.043,-0.73,0.353,0.34,-0.172,-0.273
1038,0.182,0.249,-0.003,0.0,-0.716,0.382,0.34,-0.172,-0.273
1039,0.263,0.173,0.033,0.025,-0.694,0.396,0.369,-0.195,-0.27
1040,0.366,0.123,0.067,0.031,-0.666,0.379,0.363,-0.186,-0.288
1041,0.498,0.124,0.104,0.028,-0.649,0.335,0.352,-0.189,-0.246
1042,0.614,0.144,0.142,0.021,-0.653,0.315,0.352,-0.189,-0.246
1043,0.717,0.174,0.171,0.029,-0.685,0.311,0.354,-0.205,-0.253
1044,0.772,0.187,0.191,0.047,-0.736,0.32,0.36,-0.19,-0.256
1045,0.798,0.184,0.207,0.046,-0.786,0.36,0.36,-0.19,-0.256
1046,0.798,0.159,0.215,0.021,-0.831,0.409,0.352,-0.18,-0.24
1047,0.779,0.124,0.214,-0.003,-0.869,0.441,0.351,-0.199,-0.253
1048,0.735,0.085,0.203,-0.025,-0.912,0.448,0.352,-0.187,-0.228
1049,0.667,0.051,0.179,-0.053,-0.948,0.448,0.346,-0.198,-0.232
1050,0.596,0.038,0.153,-0.066,-0.985,0.44,0.34,-0.199,-0.25
1051,0.517,0.025,0.13,-0.069,-1.015,0.439,0.34,-0.189,-0.225
1052,0.449,0.01,0.117,-0.06,-1.022,0.418,0.34,-0.189,-0.225
1053,0.375,0.037,0.114,-0.051,-1.007,0.383,0.339,-0.19,-0.234
1054,0.284,0.084,0.102,-0.051,-1.007,0.383,0.343,-0.181,-0.217
1055,0.206,0.119,0.083,-0.065,-0.981,0.379,0.346,-0.178,-0.208
1056,0.189,0.16,0.065,-0.073,-0.941,0.347,0.346,-0.178,-0.208
1057,0.219,0.208,0.066,-0.053,-0.884,0.268,0.333,-0.196,-0.247
1058,0.219,0.208,0.066,-0.037,-0.843,0.218,0.355,-0.189,-0.237
1059,0.249,0.234,0.097,-0.042,-0.822,0.215,0.355,-0.189,-0.237
1060,0.276,0.184,0.133,-0.053,-0.821,0.226,0.33,-0.193,-0.22
1061,0.315,0.029,0.145,-0.047,-0.849,0.228,0.331,-0.189,-0.214
1062,0.371,-0.149,0.141,-0.022,-0.886,0.184,0.339,-0.208,-0.208
1063,0.453,-0.301,0.144,0.01,-0.929,0.088,0.342,-0.186,-0.228
1064,0.574,-0.41,0.178,0.026,-0.992,0.012,0.352,-0.18,-0.208
1065,0.63,-0.471,0.219,0.042,-1.09,0.032,0.343,-0.192,-0.217
1066,0.582,-0.475,0.248,0.087,-1.213,0.119,0.343,-0.192,-0.217
1067,0.464,-0.432,0.264,0.123,-1.292,0.204,0.331,-0.175,-0.196
1068,0.324,-0.373,0.273,0.112,-1.249,0.249,0.321,-0.171,-0.198
1069,0.216,-0.328,0.26,0.06,-1.11,0.238,0.321,-0.166,-0.16
1070,0.2,-0.345,0.226,-0.011,-0.96,0.19,0.321,-0.166,-0.16
1071,0.245,-0.415,0.168,-0.031,-0.876,0.117,0.349,-0.157,-0.177
1072,0.299,-0.476,0.107,0.01,-0.876,0.043,0.33,-0.187,-0.187
1073,0.314,-0.464,0.051,0.053,-0.923,0.014,0.33,-0.187,-0.187
1074,0.257,-0.343,0.0,0.053,-0.923,0.014,0.33,-0.162,-0.177
1075,0.165,-0.182,-0.034,0.095,-0.976,0.034,0.327,-0.156,-0.186
1076,0.114,-0.128,-0.021,0.168,-0.994,0.121,0.324,-0.169,-0.168
1077,0.114,-0.128,-0.021,0.174,-0.952,0.09,0.328,-0.157,-0.183
1078,0.177,-0.21,0.023,0.184,-0.92,0.02,0.327,-0.157,-0.18
1079,0.261,-0.245,0.072,0.198,-0.917,-0.043,0.327,-0.157,-0.18
1080,0.324,-0.203,0.112,0.202,-0.928,-0.064,0.328,-0.171,-0.184
1081,0.354,-0.12,0.136,0.196,-0.944,-0.016,0.337,-0.178,-0.165
1082,0.366,-0.051,0.149,0.193,-0.954,0.054,0.313,-0.174,-0.16
1083,0.355,-0.037,0.151,0.204,-0.963,0.102,0.328,-0.153,-0.16
1084,0.375,-0.033,0.171,0.209,-0.982,0.116,0.327,-0.168,-0.163
1085,0.389,-0.064,0.188,0.192,-0.998,0.112,0.327,-0.168,-0.163
1086,0.346,-0.105,0.172,0.17,-1.008,0.109,0.318,-0.169,-0.157
1087,0.289,-0.098,0.14,0.153,-1.014,0.078,0.334,-0.156,-0.156
1088,0.237,-0.047,0.104,0.145,-1.017,0.05,0.336,-0.16,-0.147
1089,0.202,0.013,0.078,0.153,-1.015,0.067,0.327,-0.153,-0.132
1090,0.172,0.024,0.07,0.164,-1.018,0.114,0.327,-0.153,-0.132
1091,0.144,0.007,0.08,0.168,-1.014,0.126,0.327,-0.153,-0.132
1092,0.139,-0.007,0.088,0.168,-1.014,0.126,0.324,-0.153,-0.147
1093,0.135,-0.038,0.1,0.173,-1.004,0.115,0.327,-0.159,-0.162
1094,0.121,-0.086,0.096,0.166,-0.998,0.12,0.312,-0.147,-0.144
1095,0.112,-0.109,0.102,0.174,-0.99,0.094,0.319,-0.142,-0.139
1096,0.114,-0.098,0.091,0.197,-0.975,0.043,0.315,-0.151,-0.148
1097,0.114,-0.098,0.091,0.199,-0.968,0.014,0.315,-0.151,-0.148
1098,0.121,-0.09,0.086,0.199,-0.968,0.01,0.319,-0.151,-0.157
1099,0.133,-0.093,0.082,0.201,-0.96,0.007,0.336,-0.165,-0.168
1100,0.146,-0.089,0.072,0.202,-0.949,0.002,0.315,-0.145,-0.145
1101,0.149,-0.074,0.06,0.205,-0.941,-0.007,0.334,-0.163,-0.163
1102,0.144,-0.053,0.046,0.205,-0.931,-0.018,0.334,-0.138,-0.153
1103,0.142,-0.014,0.031,0.2,-0.927,-0.023,0.334,-0.138,-0.153
1104,0.142,0.009,0.019,0.198,-0.939,-0.017,0.319,-0.148,-0.124
1105,0.144,0.025,0.009,0.199,-0.958,-0.001,0.328,-0.154,-0.139
1106,0.152,0.028,0.004,0.198,-0.968,0.009,0.315,-0.156,-0.129
1107,0.163,0.03,0.002,0.192,-0.963,0.011,0.319,-0.156,-0.148
1108,0.168,0.037,0.0,0.181,-0.953,0.012,0.307,-0.157,-0.147
1109,0.164,0.041,-0.002,0.171,-0.953,0.017,0.307,-0.157,-0.147
1110,0.152,0.043,-0.007,0.165,-0.957,0.025,0.297,-0.142,-0.129
1111,0.135,0.034,-0.011,0.166,-0.953,0.032,0.328,-0.135,-0.121
1112,0.112,0.032,-0.017,0.166,-0.953,0.032,0.313,-0.145,-0.129
1113,0.088,0.031,-0.021,0.169,-0.951,0.04,0.315,-0.16,-0.144
1114,0.07,0.03,-0.023,0.171,-0.95,0.045,0.31,-0.141,-0.135
1115,0.07,0.03,-0.023,0.182,-0.954,0.047,0.31,-0.141,-0.135
1116,0.053,0.032,-0.024,0.194,-0.968,0.049,0.316,-0.16,-0.136
1117,0.053,0.032,-0.024,0.198,-0.99,0.059,0.328,-0.139,-0.13
1118,0.049,0.031,-0.023,0.204,-1.005,0.069,0.328,-0.139,-0.13
1119,0.054,0.034,-0.019,0.212,-1.008,0.072,0.321,-0.145,-0.139
1120,0.054,0.035,-0.017,0.221,-1.003,0.068,0.303,-0.141,-0.139
1121,0.035,0.032,-0.023,0.228,-0.987,0.057,0.322,-0.138,-0.133
1122,0.032,0.026,-0.024,0.221,-0.973,0.042,0.322,-0.138,-0.133
1123,0.021,0.025,-0.031,0.205,-0.969,0.026,0.328,-0.135,-0.124
1124,-0.001,0.036,-0.044,0.199,-0.962,0.0,0.306,-0.151,-0.133
1125,0.004,0.058,-0.046,0.195,-0.964,-0.009,0.313,-0.162,-0.145
1126,0.015,0.079,-0.046,0.185,-0.975,0.0,0.316,-0.165,-0.142
1127,0.015,0.095,-0.046,0.174,-0.979,0.002,0.306,-0.136,-0.139
1128,0.02,0.101,-0.044,0.165,-0.973,0.007,0.313,-0.142,-0.138
1129,0.033,0.092,-0.039,0.159,-0.969,0.016,0.313,-0.142,-0.138
1130,0.048,0.081,-0.034,0.149,-0.975,0.027,0.316,-0.159,-0.135
1131,0.061,0.064,-0.031,0.149,-0.975,0.027,0.322,-0.147,-0.123
1132,0.07,0.043,-0.027,0.145,-0.982,0.031,0.322,-0.147,-0.123
1133,0.079,0.021,-0.019,0.142,-0.99,0.027,0.321,-0.129,-0.15
1134,0.088,0.004,-0.014,0.142,-0.994,0.022,0.312,-0.148,-0.135
1135,0.088,0.004,-0.014,0.149,-0.988,0.025,0.322,-0.156,-0.144
1136,0.095,-0.011,-0.011,0.159,-0.982,0.026,0.322,-0.156,-0.144
1137,0.101,-0.025,-0.009,0.169,-0.98,0.016,0.309,-0.156,-0.132
1138,0.107,-0.027,-0.007,0.173,-0.972,0.003,0.316,-0.154,-0.138
1139,0.116,-0.02,-0.007,0.176,-0.965,-0.005,0.322,-0.145,-0.139
1140,0.128,-0.019,-0.008,0.173,-0.965,-0.006,0.309,-0.148,-0.132
1141,0.142,-0.027,-0.009,0.163,-0.963,-0.004,0.324,-0.141,-0.127
1142,0.154,-0.038,-0.013,0.152,-0.958,-0.005,0.312,-0.13,-0.127
1143,0.163,-0.049,-0.015,0.147,-0.95,-0.009,0.312,-0.13,-0.127
1144,0.163,-0.052,-0.02,0.141,-0.941,-0.019,0.319,-0.126,-0.129
1145,0.159,-0.049,-0.026,0.139,-0.94,-0.032,0.309,-0.126,-0.129
1146,0.153,-0.034,-0.031,0.139,-0.948,-0.038,0.309,-0.126,-0.129
1147,0.147,-0.021,-0.035,0.141,-0.959,-0.039,0.313,-0.139,-0.112
1148,0.142,-0.007,-0.039,0.145,-0.974,-0.036,0.337,-0.153,-0.126
1149,0.131,0.009,-0.037,0.137,-0.98,-0.032,0.319,-0.142,-0.145
1150,0.126,0.017,-0.042,0.134,-0.986,-0.022,0.319,-0.142,-0.145
1151,0.114,0.015,-0.044,0.134,-0.986,-0.022,0.327,-0.156,-0.136
1152,0.102,0.006,-0.041,0.14,-1.004,-0.007,0.328,-0.15,-0.138
1153,0.088,-0.003,-0.037,0.135,-1.015,0.002,0.315,-0.165,-0.121
1154,0.072,-0.003,-0.038,0.127,-1.014,0.007,0.318,-0.15,-0.144
1155,0.072,-0.003,-0.038,0.124,-1.009,0.005,0.312,-0.139,-0.129
1156,0.052,0.0,-0.043,0.123,-1.002,0.0,0.312,-0.139,-0.129
1157,0.032,0.003,-0.049,0.121,-0.996,-0.008,0.31,-0.144,-0.139
1158,0.018,0.007,-0.053,0.123,-0.99,-0.013,0.322,-0.144,-0.133
1159,0.007,0.006,-0.056,0.125,-0.984,-0.016,0.31,-0.138,-0.117
1160,0.0,0.007,-0.058,0.127,-0.98,-0.016,0.331,-0.144,-0.127
1161,-0.002,0.008,-0.058,0.131,-0.979,-0.013,0.33,-0.148,-0.114
1162,-0.001,0.004,-0.052,0.14,-0.977,-0.014,0.321,-0.147,-0.135
1163,0.0,0.003,-0.046,0.147,-0.974,-0.017,0.321,-0.147,-0.135
1164,0.005,0.003,-0.041,0.141,-0.97,-0.019,0.319,-0.154,-0.13
1165,0.009,0.004,-0.04,0.132,-0.965,-0.018,0.333,-0.135,-0.133
1166,0.014,0.007,-0.043,0.127,-0.96,-0.016,0.304,-0.141,-0.126
1167,0.014,0.007,-0.045,0.123,-0.961,-0.01,0.304,-0.141,-0.126
1168,0.016,0.001,-0.046,0.121,-0.967,-0.008,0.328,-0.154,-0.123
1169,0.017,-0.003,-0.046,0.118,-0.973,-0.008,0.322,-0.151,-0.13
1170,0.021,-0.007,-0.047,0.116,-0.98,-0.009,0.322,-0.151,-0.13
1171,0.026,-0.005,-0.048,0.116,-0.98,-0.009,0.321,-0.144,-0.135
1172,0.031,0.0,-0.049,0.118,-0.983,-0.013,0.313,-0.142,-0.115
1173,0.035,0.011,-0.051,0.114,-0.983,-0.012,0.312,-0.145,-0.115
1174,0.032,0.016,-0.053,0.111,-0.984,-0.008,0.312,-0.127,-0.136
1175,0.023,0.016,-0.058,0.114,-0.991,-0.002,0.325,-0.135,-0.151
1176,0.023,0.016,-0.058,0.114,-0.997,0.005,0.334,-0.145,-0.133
1177,0.014,0.009,-0.06,0.115,-0.999,0.009,0.334,-0.145,-0.133
1178,0.008,0.005,-0.063,0.118,-0.995,0.006,0.316,-0.169,-0.126
1179,0.004,0.0,-0.062,0.12,-0.987,0.005,0.315,-0.15,-0.121
1180,0.002,-0.003,-0.06,0.123,-0.988,0.005,0.319,-0.138,-0.114
1181,0.0,-0.009,-0.057,0.122,-0.988,0.002,0.319,-0.138,-0.114
1182,-0.001,-0.015,-0.056,0.12,-0.979,0.0,0.33,-0.163,-0.129
1183,-0.007,-0.016,-0.056,0.119,-0.97,0.002,0.336,-0.145,-0.102
1184,-0.013,-0.015,-0.056,0.119,-0.968,0.009,0.336,-0.145,-0.102
1185,-0.016,-0.021,-0.053,0.122,-0.97,0.011,0.339,-0.153,-0.139
1186,-0.02,-0.03,-0.047,0.123,-0.972,0.008,0.337,-0.148,-0.126
1187,-0.023,-0.049,-0.042,0.12,-0.974,0.005,0.325,-0.157,-0.136
1188,-0.025,-0.044,-0.04,0.117,-0.976,0.005,0.339,-0.157,-0.136
1189,-0.018,-0.039,-0.039,0.116,-0.974,0.004,0.34,-0.154,-0.127
1190,-0.012,-0.036,-0.039,0.116,-0.971,0.002,0.322,-0.13,-0.129
1191,-0.01,-0.03,-0.04,0.113,-0.971,0.002,0.322,-0.13,-0.129
1192,-0.013,-0.022,-0.044,0.112,-0.967,0.004,0.324,-0.142,-0.126
1193,-0.016,-0.017,-0.046,0.115,-0.969,0.011,0.318,-0.154,-0.132
1194,-0.022,-0.018,-0.046,0.12,-0.976,0.02,0.333,-0.141,-0.13
1195,-0.022,-0.018,-0.046,0.13,-0.981,0.023,0.333,-0.141,-0.13
1196,-0.025,-0.03,-0.044,0.131,-0.984,0.021,0.318,-0.133,-0.112
1197,-0.024,-0.036,-0.039,0.125,-0.984,0.016,0.331,-0.141,-0.129
1198,-0.021,-0.034,-0.038,0.118,-0.978,0.014,0.331,-0.141,-0.129
1199,-0.02,-0.034,-0.039,0.114,-0.976,0.015,0.348,-0.139,-0.129
1200,-0.022,-0.033,-0.039,0.112,-0.976,0.017,0.318,-0.151,-0.138
1201,-0.028,-0.023,-0.04,0.113,-0.978,0.02,0.318,-0.151,-0.138
1202,-0.029,-0.025,-0.039,0.114,-0.98,0.024,0.343,-0.151,-0.127
1203,-0.031,-0.027,-0.037,0.113,-0.979,0.023,0.334,-0.153,-0.136
1204,-0.029,-0.025,-0.037,0.113,-0.978,0.02,0.334,-0.153,-0.136
1205,-0.027,-0.025,-0.037,0.111,-0.978,0.02,0.345,-0.166,-0.141
1206,-0.028,-0.025,-0.036,0.11,-0.975,0.019,0.325,-0.153,-0.132
1207,-0.028,-0.024,-0.036,0.109,-0.976,0.017,0.318,-0.135,-0.13
1208,-0.027,-0.03,-0.035,0.106,-0.977,0.015,0.331,-0.142,-0.126
1209,-0.024,-0.026,-0.033,0.106,-0.977,0.015,0.333,-0.138,-0.132
1210,-0.021,-0.022,-0.032,0.104,-0.974,0.017,0.334,-0.142,-0.133
1211,-0.019,-0.022,-0.031,0.101,-0.973,0.02,0.334,-0.142,-0.133
1212,-0.016,-0.018,-0.03,0.1,-0.972,0.019,0.328,-0.141,-0.126
1213,-0.015,-0.024,-0.028,0.101,-0.975,0.015,0.337,-0.148,-0.142
1214,-0.014,-0.032,-0.025,0.103,-0.977,0.014,0.333,-0.144,-0.138
1215,-0.014,-0.032,-0.025,0.102,-0.979,0.017,0.336,-0.156,-0.12
1216,-0.011,-0.033,-0.025,0.097,-0.977,0.021,0.325,-0.151,-0.121
1217,-0.01,-0.035,-0.028,0.099,-0.975,0.022,0.331,-0.162,-0.118
1218,-0.009,-0.039,-0.03,0.101,-0.976,0.016,0.331,-0.162,-0.118
1219,-0.009,-0.042,-0.031,0.1,-0.976,0.013,0.345,-0.153,-0.13
1220,-0.009,-0.04,-0.032,0.103,-0.977,0.013,0.34,-0.156,-0.121
1221,-0.005,-0.039,-0.03,0.104,-0.979,0.017,0.325,-0.156,-0.129
1222,-0.001,-0.039,-0.028,0.103,-0.98,0.021,0.312,-0.162,-0.105
1223,0.003,-0.039,-0.026,0.103,-0.982,0.024,0.331,-0.133,-0.15
1224,0.005,-0.044,-0.022,0.103,-0.981,0.022,0.331,-0.133,-0.15
1225,0.007,-0.046,-0.021,0.104,-0.979,0.022,0.336,-0.154,-0.15
1226,0.008,-0.047,-0.018,0.103,-0.98,0.027,0.334,-0.156,-0.139
1227,0.007,-0.047,-0.019,0.102,-0.982,0.029,0.31,-0.16,-0.127
1228,0.004,-0.047,-0.019,0.102,-0.981,0.025,0.336,-0.153,-0.118
1229,0.004,-0.039,-0.022,0.103,-0.979,0.021,0.343,-0.145,-0.123
1230,0.0,-0.039,-0.021,0.103,-0.979,0.021,0.343,-0.145,-0.123
1231,0.0,-0.032,-0.018,0.105,-0.979,0.019,0.324,-0.165,-0.141
1232,-0.001,-0.03,-0.016,0.11,-0.978,0.019,0.343,-0.163,-0.109
1233,-0.002,-0.032,-0.014,0.111,-0.977,0.02,0.346,-0.156,-0.127
1234,-0.004,-0.03,-0.011,0.107,-0.977,0.019,0.336,-0.154,-0.121
1235,-0.004,-0.03,-0.011,0.104,-0.978,0.02,0.324,-0.142,-0.112
1236,-0.005,-0.029,-0.009,0.106,-0.982,0.021,0.324,-0.142,-0.112
1237,-0.007,-0.023,-0.008,0.105,-0.985,0.017,0.315,-0.135,-0.105
1238,-0.011,-0.018,-0.009,0.1,-0.982,0.014,0.334,-0.15,-0.121
1239,-0.014,-0.015,-0.009,0.095,-0.981,0.01,0.351,-0.138,-0.129
1240,-0.014,-0.014,-0.011,0.092,-0.98,0.007,0.343,-0.162,-0.141
1241,-0.015,-0.012,-0.011,0.09,-0.979,0.005,0.33,-0.157,-0.12
1242,-0.015,-0.011,-0.012,0.089,-0.978,0.005,0.33,-0.157,-0.12
1243,-0.016,-0.011,-0.014,0.09,-0.981,0.008,0.331,-0.148,-0.124
1244,-0.017,-0.012,-0.014,0.09,-0.982,0.012,0.322,-0.144,-0.117
1245,-0.018,-0.016,-0.013,0.088,-0.982,0.019,0.312,-0.147,-0.132
1246,-0.02,-0.021,-0.012,0.085,-0.984,0.021,0.339,-0.145,-0.123
1247,-0.021,-0.022,-0.011,0.084,-0.984,0.018,0.328,-0.136,-0.136
1248,-0.018,-0.025,-0.008,0.087,-0.985,0.015,0.328,-0.136,-0.136
1249,-0.018,-0.029,-0.004,0.09,-0.989,0.014,0.327,-0.16,-0.135
1250,-0.021,-0.041,0.0,0.093,-0.989,0.012,0.33,-0.157,-0.126
1251,-0.018,-0.039,0.003,0.093,-0.989,0.012,0.336,-0.138,-0.127
1252,-0.02,-0.032,0.002,0.092,-0.983,0.009,0.327,-0.159,-0.142
1253,-0.023,-0.031,0.0,0.088,-0.982,0.009,0.355,-0.157,-0.127
1254,-0.023,-0.031,0.0,0.089,-0.982,0.013,0.342,-0.141,-0.13
1255,-0.021,-0.03,0.0,0.09,-0.978,0.015,0.342,-0.141,-0.13
1256,-0.02,-0.029,-0.003,0.086,-0.976,0.012,0.345,-0.132,-0.138
1257,-0.019,-0.03,-0.005,0.084,-0.974,0.011,0.336,-0.166,-0.129
1258,-0.017,-0.032,-0.009,0.089,-0.971,0.011,0.336,-0.166,-0.129
1259,-0.015,-0.035,-0.012,0.09,-0.967,0.013,0.343,-0.157,-0.123
1260,-0.02,-0.027,-0.016,0.091,-0.961,0.009,0.34,-0.15,-0.133
1261,-0.013,-0.023,-0.017,0.096,-0.963,0.011,0.334,-0.165,-0.123
1262,-0.011,-0.02,-0.016,0.1,-0.973,0.014,0.334,-0.165,-0.123
1263,-0.011,-0.021,-0.013,0.103,-0.976,0.011,0.34,-0.148,-0.139
1264,-0.009,-0.018,-0.01,0.101,-0.979,0.011,0.325,-0.168,-0.133
1265,-0.004,-0.027,-0.006,0.094,-0.983,0.01,0.339,-0.159,-0.12
1266,-0.001,-0.028,-0.003,0.09,-0.982,0.012,0.328,-0.16,-0.123
1267,-0.001,-0.028,-0.004,0.089,-0.984,0.015,0.336,-0.166,-0.144
1268,-0.003,-0.03,-0.006,0.091,-0.984,0.018,0.337,-0.144,-0.121
1269,-0.006,-0.032,-0.008,0.091,-0.984,0.018,0.337,-0.144,-0.121
1270,-0.009,-0.03,-0.011,0.095,-0.982,0.021,0.343,-0.154,-0.13
1271,-0.012,-0.023,-0.016,0.096,-0.983,0.019,0.336,-0.151,-0.097
1272,-0.018,-0.02,-0.018,0.098,-0.983,0.02,0.343,-0.136,-0.121
1273,-0.018,-0.021,-0.018,0.099,-0.983,0.022,0.352,-0.16,-0.124
1274,-0.018,-0.021,-0.018,0.101,-0.98,0.023,0.355,-0.165,-0.132
1275,-0.016,-0.024,-0.015,0.103,-0.981,0.021,0.355,-0.165,-0.132
1276,-0.016,-0.021,-0.012,0.102,-0.981,0.019,0.327,-0.154,-0.12
1277,-0.017,-0.023,-0.01,0.102,-0.977,0.019,0.358,-0.16,-0.139
1278,-0.016,-0.018,-0.009,0.104,-0.973,0.019,0.333,-0.139,-0.118
1279,-0.018,-0.02,-0.007,0.106,-0.97,0.018,0.331,-0.141,-0.123
1280,-0.014,-0.016,-0.004,0.105,-0.971,0.018,0.343,-0.165,-0.13
1281,-0.011,-0.014,-0.001,0.105,-0.974,0.02,0.34,-0.16,-0.123
1282,-0.009,-0.011,0.0,0.104,-0.975,0.02,0.34,-0.16,-0.123
1283,-0.01,-0.01,0.002,0.104,-0.975,0.018,0.345,-0.162,-0.138
1284,-0.009,-0.012,0.004,0.107,-0.975,0.019,0.333,-0.15,-0.126
1285,-0.007,-0.004,0.002,0.107,-0.977,0.02,0.313,-0.154,-0.1
1286,-0.007,-0.008,0.003,0.105,-0.978,0.018,0.337,-0.145,-0.133
1287,-0.002,-0.005,0.005,0.106,-0.981,0.018,0.342,-0.138,-0.136
1288,0.0,0.0,0.004,0.106,-0.984,0.017,0.343,-0.148,-0.121
1289,0.0,0.004,0.003,0.106,-0.985,0.016,0.343,-0.148,-0.121
1290,-0.002,0.011,0.002,0.106,-0.985,0.016,0.331,-0.15,-0.13
1291,-0.004,0.018,-0.001,0.109,-0.986,0.018,0.34,-0.153,-0.141
1292,-0.004,0.023,-0.003,0.111,-0.983,0.019,0.343,-0.142,-0.127
1293,-0.003,0.022,-0.004,0.113,-0.978,0.02,0.328,-0.157,-0.135
1294,-0.003,0.022,-0.004,0.107,-0.978,0.024,0.322,-0.144,-0.135
1295,-0.002,0.021,-0.004,0.1,-0.978,0.028,0.34,-0.157,-0.138
1296,-0.002,0.021,-0.004,0.099,-0.976,0.029,0.34,-0.157,-0.138
1297,-0.004,0.018,-0.005,0.099,-0.976,0.029,0.333,-0.168,-0.124
1298,-0.004,0.016,-0.006,0.1,-0.977,0.03,0.318,-0.165,-0.138
1299,0.0,0.014,-0.003,0.105,-0.982,0.027,0.324,-0.15,-0.129
1300,0.002,0.011,0.0,0.107,-0.98,0.027,0.351,-0.163,-0.147
1301,0.005,0.013,0.0,0.109,-0.981,0.026,0.327,-0.141,-0.148
1302,0.008,0.015,0.001,0.111,-0.982,0.027,0.327,-0.141,-0.148
1303,0.007,0.016,0.002,0.11,-0.979,0.028,0.34,-0.147,-0.132
1304,0.008,0.015,0.002,0.108,-0.977,0.027,0.334,-0.154,-0.126
1305,0.007,0.013,0.001,0.108,-0.977,0.027,0.336,-0.168,-0.144
1306,0.006,0.021,-0.001,0.106,-0.976,0.025,0.331,-0.145,-0.132
1307,0.003,0.018,-0.003,0.106,-0.976,0.025,0.333,-0.145,-0.13
1308,0.0,0.021,-0.004,0.105,-0.974,0.023,0.336,-0.172,-0.129
1309,0.0,0.023,-0.006,0.105,-0.973,0.023,0.336,-0.172,-0.129
1310,-0.001,0.023,-0.005,0.107,-0.973,0.021,0.313,-0.177,-0.139
1311,0.0,0.019,-0.003,0.109,-0.972,0.022,0.319,-0.163,-0.12
1312,0.002,0.02,-0.002,0.107,-0.973,0.022,0.331,-0.154,-0.111
1313,0.002,0.02,-0.002,0.108,-0.974,0.023,0.331,-0.154,-0.111
1314,0.005,0.021,-0.001,0.11,-0.974,0.025,0.325,-0.151,-0.112
1315,0.009,0.015,0.0,0.107,-0.975,0.025,0.342,-0.163,-0.123
1316,0.011,0.011,0.002,0.104,-0.976,0.023,0.342,-0.163,-0.123
1317,0.012,0.013,0.002,0.105,-0.979,0.021,0.334,-0.142,-0.121
1318,0.011,0.013,0.001,0.107,-0.978,0.022,0.354,-0.156,-0.126
1319,0.011,0.016,0.0,0.107,-0.978,0.023,0.337,-0.162,-0.133
1320,0.011,0.012,-0.002,0.107,-0.982,0.025,0.325,-0.148,-0.118
1321,0.009,0.018,-0.004,0.109,-0.983,0.026,0.327,-0.147,-0.132
1322,0.006,0.018,-0.006,0.111,-0.98,0.03,0.327,-0.147,-0.132
1323,0.006,0.012,-0.006,0.112,-0.979,0.034,0.322,-0.141,-0.117
1324,0.004,0.01,-0.008,0.112,-0.978,0.035,0.318,-0.166,-0.13
1325,0.003,0.011,-0.011,0.112,-0.978,0.033,0.333,-0.175,-0.135
1326,0.002,0.01,-0.012,0.114,-0.979,0.034,0.343,-0.156,-0.121
1327,0.0,0.008,-0.011,0.114,-0.979,0.034,0.345,-0.147,-0.112
1328,0.0,0.007,-0.009,0.116,-0.978,0.036,0.345,-0.147,-0.112
1329,0.0,0.008,-0.006,0.122,-0.979,0.035,0.328,-0.15,-0.127
1330,0.002,0.006,-0.003,0.125,-0.984,0.035,0.339,-0.163,-0.118
1331,0.003,0.006,-0.001,0.121,-0.986,0.036,0.333,-0.156,-0.136
1332,0.001,0.004,-0.002,0.12,-0.983,0.035,0.328,-0.154,-0.139
1333,0.001,0.004,-0.002,0.118,-0.978,0.031,0.34,-0.153,-0.129
1334,0.0,0.003,-0.001,0.113,-0.975,0.03,0.34,-0.153,-0.129
1335,-0.002,0.0,-0.003,0.107,-0.975,0.032,0.333,-0.162,-0.123
1336,-0.002,0.002,-0.005,0.103,-0.975,0.032,0.33,-0.151,-0.127
1337,-0.002,0.001,-0.007,0.102,-0.974,0.033,0.328,-0.145,-0.142
1338,-0.003,-0.001,-0.009,0.104,-0.972,0.035,0.339,-0.166,-0.124
1339,-0.003,-0.005,-0.009,0.107,-0.973,0.036,0.339,-0.171,-0.117
1340,-0.002,-0.01,-0.006,0.111,-0.977,0.037,0.339,-0.171,-0.117
1341,0.002,-0.014,-0.003,0.115,-0.981,0.036,0.327,-0.168,-0.112
1342,0.004,-0.017,-0.002,0.117,-0.983,0.034,0.336,-0.148,-0.142
1343,0.004,-0.018,-0.001,0.116,-0.983,0.035,0.33,-0.151,-0.124
1344,0.004,-0.018,-0.002,0.113,-0.979,0.036,0.321,-0.142,-0.132
1345,0.0,-0.016,-0.004,0.111,-0.98,0.035,0.346,-0.154,-0.153
1346,0.0,-0.018,-0.006,0.111,-0.979,0.034,0.346,-0.154,-0.153
1347,0.0,-0.018,-0.007,0.114,-0.978,0.034,0.345,-0.145,-0.138
1348,-0.002,-0.019,-0.008,0.114,-0.978,0.034,0.325,-0.162,-0.126
1349,0.0,-0.016,-0.009,0.117,-0.978,0.033,0.325,-0.162,-0.126
1350,0.0,-0.014,-0.008,0.119,-0.974,0.032,0.33,-0.144,-0.124
1351,0.001,-0.016,-0.007,0.121,-0.972,0.032,0.318,-0.159,-0.138
1352,0.001,-0.016,-0.007,0.119,-0.974,0.033,0.342,-0.15,-0.136
1353,0.004,-0.018,-0.006,0.118,-0.977,0.033,0.342,-0.15,-0.136
1354,0.004,-0.021,-0.004,0.115,-0.977,0.032,0.339,-0.136,-0.12
1355,0.004,-0.018,-0.005,0.114,-0.975,0.03,0.336,-0.153,-0.121
1356,0.002,-0.015,-0.006,0.114,-0.974,0.029,0.33,-0.15,-0.13
1357,0.001,-0.015,-0.007,0.113,-0.976,0.029,0.354,-0.153,-0.136
1358,0.001,-0.015,-0.007,0.116,-0.978,0.029,0.343,-0.15,-0.139
1359,0.002,-0.012,-0.006,0.115,-0.978,0.032,0.346,-0.145,-0.13
1360,0.003,-0.009,-0.007,0.114,-0.974,0.03,0.346,-0.145,-0.13
1361,0.002,-0.007,-0.007,0.115,-0.974,0.029,0.349,-0.151,-0.135
1362,0.002,-0.004,-0.008,0.115,-0.978,0.031,0.333,-0.154,-0.115
1363,0.002,-0.013,-0.007,0.117,-0.98,0.03,0.333,-0.154,-0.115
1364,0.002,-0.015,-0.007,0.116,-0.981,0.029,0.331,-0.153,-0.12
1365,0.001,-0.013,-0.008,0.114,-0.98,0.03,0.337,-0.154,-0.121
1366,0.0,-0.011,-0.009,0.113,-0.977,0.029,0.328,-0.148,-0.121
1367,-0.001,-0.012,-0.009,0.113,-0.977,0.029,0.328,-0.148,-0.121
1368,-0.001,-0.011,-0.008,0.115,-0.976,0.027,0.348,-0.15,-0.124
1369,0.0,-0.003,-0.01,0.116,-0.974,0.025,0.339,-0.157,-0.142
1370,0.0,-0.007,-0.009,0.113,-0.973,0.025,0.328,-0.135,-0.124
1371,0.0,-0.009,-0.007,0.113,-0.975,0.027,0.333,-0.145,-0.142
1372,0.0,-0.009,-0.007,0.112,-0.975,0.03,0.339,-0.153,-0.136
1373,0.002,-0.011,-0.006,0.111,-0.976,0.03,0.336,-0.144,-0.126
1374,0.004,-0.014,-0.007,0.111,-0.98,0.028,0.336,-0.144,-0.126
1375,0.004,-0.009,-0.009,0.11,-0.979,0.027,0.328,-0.154,-0.132
1376,0.004,-0.004,-0.01,0.11,-0.976,0.028,0.345,-0.15,-0.126
1377,0.002,-0.007,-0.011,0.11,-0.977,0.03,0.345,-0.15,-0.126
1378,0.002,-0.009,-0.011,0.11,-0.979,0.028,0.343,-0.165,-0.135
1379,0.003,-0.009,-0.01,0.113,-0.978,0.026,0.361,-0.156,-0.12
1380,0.002,-0.007,-0.01,0.114,-0.975,0.028,0.334,-0.139,-0.129
1381,0.002,-0.007,-0.009,0.112,-0.975,0.028,0.334,-0.139,-0.129
1382,0.002,-0.007,-0.008,0.111,-0.975,0.026,0.337,-0.159,-0.132
1383,0.001,-0.009,-0.008,0.113,-0.977,0.029,0.316,-0.151,-0.117
1384,0.002,-0.009,-0.009,0.115,-0.979,0.029,0.316,-0.151,-0.117
1385,0.002,-0.007,-0.009,0.116,-0.977,0.027,0.339,-0.147,-0.117
1386,0.003,-0.005,-0.011,0.116,-0.977,0.027,0.333,-0.151,-0.129
1387,0.004,0.0,-0.013,0.115,-0.977,0.024,0.351,-0.147,-0.117
1388,0.007,0.005,-0.014,0.116,-0.979,0.024,0.351,-0.147,-0.117
1389,0.009,0.009,-0.016,0.116,-0.978,0.024,0.322,-0.15,-0.12
1390,0.011,0.011,-0.016,0.115,-0.978,0.023,0.312,-0.15,-0.109
1391,0.011,0.008,-0.015,0.116,-0.977,0.023,0.331,-0.148,-0.12
1392,0.011,0.008,-0.015,0.115,-0.975,0.025,0.331,-0.166,-0.129
1393,0.013,0.004,-0.014,0.113,-0.976,0.025,0.328,-0.169,-0.133
1394,0.013,0.002,-0.014,0.112,-0.978,0.022,0.345,-0.157,-0.126
1395,0.012,0.004,-0.014,0.112,-0.977,0.023,0.345,-0.157,-0.126
1396,0.011,0.006,-0.014,0.112,-0.977,0.025,0.349,-0.154,-0.139
1397,0.01,0.0,-0.014,0.112,-0.979,0.024,0.328,-0.156,-0.108
1398,0.009,0.002,-0.014,0.111,-0.981,0.024,0.328,-0.156,-0.108
1399,0.009,0.001,-0.014,0.108,-0.981,0.026,0.337,-0.154,-0.133
1400,0.009,0.001,-0.014,0.109,-0.98,0.026,0.321,-0.139,-0.129
1401,0.009,-0.002,-0.012,0.11,-0.981,0.024,0.342,-0.154,-0.117
1402,0.009,-0.005,-0.011,0.106,-0.981,0.025,0.342,-0.154,-0.117
1403,0.009,-0.007,-0.011,0.105,-0.981,0.024,0.342,-0.147,-0.13
1404,0.01,-0.006,-0.011,0.108,-0.981,0.021,0.328,-0.163,-0.115
1405,0.009,-0.003,-0.013,0.109,-0.977,0.021,0.331,-0.124,-0.138
1406,0.007,0.0,-0.014,0.107,-0.975,0.023,0.321,-0.151,-0.118
1407,0.007,-0.002,-0.014,0.107,-0.975,0.023,0.336,-0.156,-0.145
1408,0.007,-0.002,-0.014,0.109,-0.974,0.022,0.34,-0.156,-0.126
1409,0.008,-0.008,-0.012,0.11,-0.975,0.023,0.34,-0.156,-0.126
1410,0.009,-0.009,-0.011,0.111,-0.978,0.023,0.331,-0.141,-0.132
1411,0.009,-0.009,-0.011,0.112,-0.981,0.021,0.313,-0.157,-0.123
1412,0.009,-0.007,-0.011,0.112,-0.981,0.024,0.313,-0.157,-0.123
1413,0.006,-0.006,-0.011,0.107,-0.981,0.026,0.325,-0.151,-0.121
1414,0.003,-0.007,-0.014,0.105,-0.982,0.025,0.346,-0.153,-0.138
1415,0.002,-0.004,-0.016,0.106,-0.983,0.025,0.346,-0.153,-0.138
1416,0.001,-0.004,-0.018,0.106,-0.981,0.025,0.345,-0.153,-0.13
1417,0.0,-0.002,-0.019,0.106,-0.978,0.027,0.318,-0.145,-0.126
1418,0.0,-0.003,-0.018,0.107,-0.975,0.03,0.337,-0.148,-0.136
1419,-0.001,-0.002,-0.019,0.105,-0.974,0.03,0.325,-0.151,-0.114
1420,-0.002,-0.004,-0.018,0.105,-0.974,0.029,0.333,-0.159,-0.123
1421,-0.002,-0.005,-0.018,0.106,-0.976,0.028,0.324,-0.144,-0.117
1422,-0.001,-0.005,-0.016,0.106,-0.978,0.029,0.324,-0.144,-0.117
1423,0.002,-0.007,-0.014,0.105,-0.98,0.028,0.33,-0.153,-0.138
1424,0.004,-0.012,-0.011,0.105,-0.98,0.025,0.352,-0.168,-0.108
1425,0.007,-0.007,-0.011,0.104,-0.978,0.024,0.336,-0.156,-0.114
1426,0.008,-0.009,-0.014,0.104,-0.977,0.024,0.34,-0.159,-0.124
1427,0.007,-0.011,-0.013,0.104,-0.977,0.024,0.348,-0.132,-0.132
1428,0.007,-0.008,-0.014,0.107,-0.977,0.022,0.321,-0.154,-0.126
1429,0.008,-0.002,-0.016,0.108,-0.978,0.022,0.321,-0.154,-0.126
1430,0.009,-0.002,-0.015,0.109,-0.979,0.023,0.336,-0.172,-0.135
1431,0.009,-0.002,-0.015,0.111,-0.981,0.024,0.331,-0.151,-0.142
1432,0.01,-0.002,-0.015,0.111,-0.982,0.025,0.343,-0.139,-0.126
1433,0.011,-0.002,-0.014,0.105,-0.981,0.023,0.343,-0.159,-0.127
1434,0.011,-0.001,-0.015,0.1,-0.977,0.021,0.342,-0.144,-0.132
1435,0.008,0.0,-0.015,0.103,-0.975,0.024,0.327,-0.148,-0.112
1436,0.004,-0.005,-0.016,0.105,-0.977,0.024,0.327,-0.148,-0.112
1437,0.002,-0.009,-0.016,0.105,-0.979,0.024,0.36,-0.153,-0.118
1438,0.0,-0.009,-0.016,0.105,-0.981,0.027,0.328,-0.171,-0.135
1439,0.002,-0.01,-0.015,0.104,-0.982,0.026,0.321,-0.147,-0.102
1440,0.003,-0.005,-0.014,0.106,-0.982,0.024,0.34,-0.171,-0.129
1441,0.002,-0.005,-0.013,0.109,-0.98,0.025,0.348,-0.157,-0.135
1442,0.006,-0.007,-0.012,0.108,-0.977,0.023,0.322,-0.16,-0.123
1443,0.007,-0.009,-0.012,0.107,-0.976,0.022,0.322,-0.16,-0.123
1444,0.007,-0.008,-0.013,0.109,-0.976,0.022,0.328,-0.135,-0.123
1445,0.006,-0.007,-0.014,0.111,-0.973,0.023,0.346,-0.139,-0.13
1446,0.002,-0.017,-0.012,0.111,-0.972,0.023,0.34,-0.174,-0.12
1447,0.004,-0.011,-0.013,0.111,-0.972,0.023,0.34,-0.174,-0.12
1448,0.005,-0.006,-0.014,0.109,-0.978,0.022,0.328,-0.162,-0.126
1449,0.005,-0.003,-0.015,0.107,-0.981,0.022,0.333,-0.144,-0.121
1450,0.005,-0.003,-0.015,0.107,-0.981,0.022,0.333,-0.144,-0.121
1451,0.006,-0.002,-0.015,0.107,-0.978,0.024,0.34,-0.159,-0.115
1452,0.005,-0.007,-0.014,0.109,-0.978,0.024,0.322,-0.15,-0.138
1453,0.005,-0.009,-0.014,0.108,-0.981,0.022,0.343,-0.157,-0.094
1454,0.005,-0.004,-0.014,0.105,-0.982,0.024,0.325,-0.151,-0.12
1455,0.004,-0.001,-0.014,0.106,-0.979,0.026,0.324,-0.147,-0.133
1456,0.002,-0.002,-0.014,0.105,-0.977,0.027,0.34,-0.16,-0.139
1457,0.001,-0.002,-0.016,0.106,-0.978,0.023,0.34,-0.16,-0.139
1458,0.0,-0.002,-0.015,0.109,-0.977,0.023,0.334,-0.154,-0.117
1459,0.001,0.0,-0.015,0.11,-0.977,0.024,0.322,-0.145,-0.129
1460,0.003,-0.001,-0.014,0.11,-0.977,0.02,0.312,-0.157,-0.117
1461,0.002,0.0,-0.012,0.108,-0.973,0.021,0.312,-0.157,-0.117
1462,0.002,0.0,-0.011,0.106,-0.973,0.021,0.345,-0.145,-0.126
1463,0.004,-0.002,-0.011,0.106,-0.977,0.019,0.358,-0.16,-0.127
1464,0.007,0.0,-0.01,0.105,-0.98,0.019,0.358,-0.16,-0.127
1465,0.007,0.003,-0.011,0.105,-0.977,0.019,0.331,-0.153,-0.136
1466,0.007,0.002,-0.01,0.105,-0.977,0.019,0.345,-0.138,-0.15
1467,0.007,0.0,-0.011,0.105,-0.975,0.022,0.348,-0.136,-0.121
1468,0.007,0.0,-0.011,0.105,-0.975,0.024,0.343,-0.147,-0.124
1469,0.007,0.0,-0.01,0.105,-0.977,0.023,0.337,-0.153,-0.127
1470,0.007,0.0,-0.01,0.104,-0.979,0.023,0.325,-0.153,-0.111
1471,0.008,-0.001,-0.009,0.105,-0.982,0.024,0.325,-0.153,-0.111
1472,0.008,0.002,-0.01,0.104,-0.985,0.024,0.348,-0.151,-0.127
1473,0.008,-0.001,-0.007,0.104,-0.983,0.024,0.345,-0.16,-0.126
1474,0.007,0.0,-0.006,0.105,-0.982,0.025,0.346,-0.151,-0.127
1475,0.004,-0.001,-0.007,0.108,-0.982,0.023,0.346,-0.151,-0.127
1476,0.004,0.0,-0.006,0.108,-0.983,0.02,0.334,-0.156,-0.132
1477,0.003,0.002,-0.007,0.108,-0.983,0.021,0.352,-0.154,-0.118
1478,0.002,0.004,-0.008,0.107,-0.98,0.02,0.352,-0.154,-0.118
1479,0.003,0.008,-0.009,0.102,-0.978,0.021,0.346,-0.148,-0.097
1480,0.003,0.008,-0.009,0.102,-0.978,0.022,0.325,-0.148,-0.117
1481,0.002,-0.002,-0.009,0.101,-0.977,0.022,0.34,-0.15,-0.135
1482,0.002,0.003,-0.011,0.099,-0.977,0.022,0.336,-0.144,-0.114
1483,0.004,0.004,-0.011,0.101,-0.976,0.02,0.339,-0.159,-0.129
1484,0.004,0.002,-0.011,0.101,-0.978,0.018,0.339,-0.142,-0.132
1485,0.001,0.002,-0.013,0.1,-0.98,0.017,0.339,-0.142,-0.132
1486,0.0,0.007,-0.014,0.1,-0.98,0.017,0.336,-0.141,-0.141
1487,0.0,0.007,-0.013,0.101,-0.98,0.021,0.342,-0.16,-0.112
1488,0.0,0.009,-0.013,0.104,-0.98,0.024,0.337,-0.153,-0.106
1489,-0.002,0.01,-0.012,0.105,-0.98,0.024,0.343,-0.154,-0.133
1490,-0.002,0.01,-0.012,0.103,-0.98,0.023,0.336,-0.178,-0.142
1491,-0.001,0.01,-0.011,0.101,-0.982,0.02,0.33,-0.138,-0.123
1492,-0.001,0.011,-0.011,0.098,-0.981,0.019,0.33,-0.138,-0.123
1493,-0.002,0.014,-0.011,0.096,-0.98,0.021,0.349,-0.151,-0.114
1494,-0.002,0.014,-0.013,0.097,-0.982,0.022,0.339,-0.135,-0.115
1495,-0.005,0.007,-0.014,0.099,-0.983,0.021,0.351,-0.15,-0.13
1496,-0.004,0.008,-0.015,0.099,-0.979,0.019,0.345,-0.145,-0.129
1497,-0.005,0.009,-0.015,0.097,-0.978,0.019,0.346,-0.153,-0.126
1498,-0.004,0.005,-0.015,0.094,-0.979,0.022,0.328,-0.16,-0.123
1499,-0.002,0.002,-0.014,0.091,-0.979,0.022,0.328,-0.16,-0.123
1500,-0.001,-0.001,-0.013,0.091,-0.978,0.019,0.337,-0.163,-0.141
1501,0.0,-0.002,-0.012,0.09,-0.979,0.021,0.333,-0.144,-0.148
1502,0.0,-0.007,-0.011,0.091,-0.981,0.022,0.328,-0.157,-0.117
1503,0.0,-0.008,-0.011,0.094,-0.98,0.02,0.33,-0.144,-0.121
1504,0.001,-0.009,-0.009,0.096,-0.98,0.021,0.336,-0.148,-0.136
1505,0.002,-0.009,-0.009,0.096,-0.98,0.021,0.34,-0.156,-0.135
1506,0.003,-0.01,-0.009,0.099,-0.981,0.022,0.34,-0.156,-0.135
1507,0.004,-0.013,-0.009,0.101,-0.981,0.021,0.334,-0.157,-0.121
1508,0.004,-0.017,-0.007,0.103,-0.979,0.023,0.348,-0.16,-0.118
1509,0.004,-0.017,-0.007,0.102,-0.978,0.023,0.337,-0.163,-0.13
1510,0.006,-0.018,-0.008,0.098,-0.977,0.02,0.322,-0.159,-0.13
1511,0.004,-0.015,-0.011,0.096,-0.974,0.02,0.34,-0.154,-0.115
1512,0.0,-0.014,-0.013,0.1,-0.976,0.021,0.336,-0.168,-0.135
1513,0.0,-0.016,-0.013,0.104,-0.979,0.019,0.336,-0.168,-0.135
1514,0.0,-0.014,-0.013,0.105,-0.978,0.02,0.34,-0.16,-0.109
1515,0.002,-0.009,-0.013,0.103,-0.979,0.02,0.342,-0.166,-0.117
1516,0.003,-0.009,-0.011,0.104,-0.98,0.021,0.327,-0.153,-0.115
1517,0.004,-0.006,-0.01,0.104,-0.981,0.024,0.337,-0.139,-0.123
1518,0.002,-0.007,-0.009,0.103,-0.982,0.024,0.343,-0.157,-0.123
1519,0.003,-0.008,-0.008,0.102,-0.982,0.02,0.333,-0.15,-0.124
1520,0.002,-0.009,-0.008,0.1,-0.981,0.019,0.333,-0.15,-0.124
1521,0.002,-0.007,-0.009,0.1,-0.98,0.021,0.321,-0.138,-0.123
1522,0.0,-0.007,-0.009,0.099,-0.978,0.023,0.349,-0.16,-0.13
1523,0.0,-0.007,-0.01,0.099,-0.978,0.021,0.339,-0.15,-0.136
1524,0.0,-0.007,-0.01,0.102,-0.977,0.019,0.339,-0.15,-0.136
1525,-0.002,-0.005,-0.01,0.102,-0.977,0.019,0.339,-0.157,-0.124
1526,-0.004,-0.004,-0.01,0.103,-0.976,0.017,0.333,-0.148,-0.132
1527,-0.004,-0.004,-0.009,0.104,-0.976,0.018,0.333,-0.148,-0.132
1528,-0.003,-0.006,-0.009,0.105,-0.976,0.021,0.322,-0.153,-0.118
1529,-0.003,-0.006,-0.009,0.102,-0.978,0.021,0.349,-0.153,-0.117
1530,-0.003,-0.006,-0.009,0.1,-0.979,0.02,0.342,-0.156,-0.102
1531,-0.002,-0.006,-0.01,0.1,-0.98,0.021,0.346,-0.147,-0.112
1532,0.0,-0.003,-0.011,0.101,-0.98,0.022,0.34,-0.151,-0.127
1533,0.0,-0.004,-0.01,0.101,-0.979,0.023,0.337,-0.159,-0.117
1534,0.0,-0.006,-0.011,0.101,-0.978,0.021,0.337,-0.159,-0.117
1535,0.0,-0.005,-0.009,0.103,-0.977,0.021,0.34,-0.154,-0.115
1536,0.0,-0.007,-0.009,0.103,-0.978,0.023,0.331,-0.162,-0.133
1537,0.0,-0.008,-0.009,0.102,-0.98,0.024,0.349,-0.15,-0.109
1538,0.001,-0.007,-0.009,0.103,-0.98,0.024,0.349,-0.15,-0.109
1539,0.002,-0.007,-0.008,0.103,-0.979,0.024,0.337,-0.151,-0.126
1540,0.001,-0.005,-0.009,0.101,-0.981,0.023,0.352,-0.151,-0.117
1541,0.0,-0.004,-0.009,0.099,-0.982,0.023,0.352,-0.151,-0.117
1542,0.0,-0.006,-0.011,0.101,-0.981,0.025,0.348,-0.151,-0.126
1543,0.0,-0.007,-0.009,0.1,-0.98,0.025,0.343,-0.159,-0.133
1544,0.0,-0.004,-0.011,0.1,-0.979,0.024,0.345,-0.162,-0.136
1545,0.0,-0.004,-0.011,0.1,-0.979,0.024,0.348,-0.163,-0.117
1546,-0.001,-0.006,-0.01,0.102,-0.977,0.024,0.334,-0.154,-0.141
1547,-0.001,-0.009,-0.009,0.101,-0.979,0.025,0.322,-0.157,-0.136
1548,-0.001,-0.009,-0.009,0.101,-0.98,0.026,0.322,-0.157,-0.136
1549,-0.001,-0.009,-0.009,0.102,-0.979,0.025,0.348,-0.157,-0.126
1550,0.0,-0.011,-0.008,0.101,-0.981,0.023,0.337,-0.133,-0.127
1551,0.001,-0.011,-0.009,0.1,-0.981,0.022,0.322,-0.15,-0.108
1552,-0.001,-0.01,-0.009,0.102,-0.979,0.022,0.342,-0.145,-0.115
1553,-0.001,-0.012,-0.009,0.103,-0.979,0.024,0.322,-0.153,-0.126
1554,0.0,-0.014,-0.008,0.098,-0.978,0.025,0.322,-0.153,-0.126
1555,0.0,-0.016,-0.009,0.095,-0.979,0.023,0.327,-0.153,-0.118
1556,0.0,-0.015,-0.009,0.095,-0.982,0.025,0.327,-0.141,-0.124
1557,-0.002,-0.015,-0.007,0.096,-0.982,0.027,0.316,-0.153,-0.106
1558,-0.004,-0.016,-0.009,0.099,-0.982,0.027,0.339,-0.142,-0.13
1559,-0.006,-0.016,-0.009,0.101,-0.982,0.027,0.334,-0.159,-0.109
1560,-0.007,-0.015,-0.009,0.102,-0.98,0.027,0.334,-0.159,-0.109
1561,-0.008,-0.014,-0.01,0.104,-0.979,0.028,0.352,-0.151,-0.135
1562,-0.009,-0.013,-0.01,0.103,-0.978,0.029,0.324,-0.154,-0.115
1563,-0.009,-0.01,-0.009,0.104,-0.978,0.028,0.312,-0.141,-0.111
1564,-0.011,-0.008,-0.009,0.106,-0.978,0.028,0.34,-0.148,-0.133
1565,-0.009,-0.006,-0.009,0.105,-0.978,0.029,0.327,-0.157,-0.117
1566,-0.007,-0.006,-0.006,0.105,-0.979,0.029,0.333,-0.147,-0.123
1567,-0.004,-0.003,-0.007,0.104,-0.978,0.025,0.343,-0.166,-0.141
1568,-0.004,-0.003,-0.007,0.105,-0.977,0.026,0.334,-0.148,-0.126
1569,-0.003,-0.004,-0.007,0.106,-0.978,0.028,0.321,-0.138,-0.133
1570,-0.002,-0.003,-0.007,0.102,-0.976,0.027,0.333,-0.144,-0.138
1571,0.0,-0.004,-0.007,0.101,-0.974,0.026,0.333,-0.144,-0.138
1572,0.0,-0.002,-0.008,0.099,-0.975,0.024,0.352,-0.163,-0.124
1573,0.0,0.003,-0.008,0.098,-0.976,0.026,0.337,-0.165,-0.118
1574,0.0,0.007,-0.007,0.1,-0.977,0.029,0.334,-0.16,-0.136
1575,0.0,0.007,-0.007,0.101,-0.978,0.029,0.331,-0.154,-0.12
1576,0.0,0.005,-0.007,0.102,-0.981,0.029,0.333,-0.157,-0.127
1577,0.0,0.004,-0.007,0.1,-0.982,0.029,0.333,-0.157,-0.127
1578,-0.001,0.004,-0.006,0.098,-0.981,0.03,0.346,-0.157,-0.121
1579,0.002,0.004,-0.005,0.097,-0.982,0.031,0.325,-0.154,-0.112
1580,0.001,0.001,-0.004,0.1,-0.984,0.03,0.325,-0.154,-0.112
1581,0.002,0.001,-0.005,0.101,-0.981,0.028,0.325,-0.139,-0.115
1582,0.001,0.001,-0.005,0.101,-0.981,0.028,0.348,-0.156,-0.114
1583,0.0,0.002,-0.005,0.1,-0.978,0.027,0.336,-0.144,-0.12
1584,0.0,0.002,-0.006,0.101,-0.978,0.026,0.336,-0.144,-0.12
