,Gyroscope X (deg/s),Gyroscope Y (deg/s),Gyroscope Z (deg/s),Accelerometer X (g),Accelerometer Y (g),Accelerometer Z (g),Magnetometer X (G),Magnetometer Y (G),Magnetometer Z (G)
0,-0.011,-0.011,-0.007,0.143,-0.983,-0.001,0.595,-0.196,-0.447
1,-0.011,-0.011,-0.007,0.143,-0.983,-0.001,0.595,-0.196,-0.447
2,-0.011,-0.011,-0.007,0.143,-0.983,-0.001,0.595,-0.196,-0.447
3,-0.011,-0.011,-0.007,0.143,-0.983,-0.001,0.595,-0.196,-0.447
4,-0.006,-0.005,-0.009,0.142,-0.975,-0.01,0.595,-0.196,-0.447
5,-0.007,-0.002,-0.009,0.141,-0.975,-0.01,0.568,-0.195,-0.438
6,-0.006,-0.001,-0.009,0.136,-0.977,-0.009,0.58,-0.211,-0.439
7,-0.005,-0.004,-0.007,0.132,-0.972,-0.008,0.582,-0.201,-0.445
8,-0.006,-0.005,-0.007,0.134,-0.972,-0.007,0.574,-0.205,-0.451
9,-0.007,-0.007,-0.007,0.136,-0.974,-0.005,0.586,-0.202,-0.45
10,-0.008,-0.008,-0.005,0.135,-0.978,-0.005,0.597,-0.204,-0.453
11,-0.011,-0.01,-0.007,0.132,-0.98,-0.008,0.571,-0.186,-0.435
12,-0.012,-0.011,-0.009,0.132,-0.979,-0.007,0.576,-0.195,-0.454
13,-0.014,-0.018,-0.009,0.132,-0.974,-0.007,0.573,-0.216,-0.447
14,-0.014,-0.022,-0.009,0.131,-0.97,-0.011,0.573,-0.201,-0.438
15,-0.014,-0.022,-0.009,0.129,-0.972,-0.013,0.574,-0.19,-0.444
16,-0.01,-0.02,-0.007,0.133,-0.974,-0.011,0.582,-0.193,-0.456
17,-0.006,-0.013,-0.007,0.138,-0.975,-0.006,0.58,-0.199,-0.427
18,-0.005,-0.011,-0.005,0.141,-0.974,-0.004,0.58,-0.199,-0.427
19,-0.006,-0.015,-0.004,0.144,-0.972,-0.004,0.556,-0.21,-0.436
20,-0.008,-0.016,-0.004,0.145,-0.972,-0.006,0.589,-0.183,-0.435
21,-0.008,-0.014,-0.004,0.141,-0.974,-0.008,0.57,-0.21,-0.442
22,-0.008,-0.01,-0.004,0.138,-0.976,-0.005,0.58,-0.193,-0.459
23,-0.011,-0.011,-0.004,0.135,-0.976,-0.004,0.573,-0.198,-0.439
24,-0.014,-0.015,-0.007,0.132,-0.975,-0.005,0.601,-0.204,-0.456
25,-0.018,-0.02,-0.008,0.134,-0.976,-0.004,0.601,-0.204,-0.456
26,-0.019,-0.019,-0.009,0.135,-0.982,-0.002,0.58,-0.204,-0.424
27,-0.018,-0.019,-0.009,0.135,-0.986,0.0,0.577,-0.204,-0.441
28,-0.016,-0.021,-0.007,0.135,-0.985,0.0,0.57,-0.219,-0.459
29,-0.014,-0.023,-0.007,0.136,-0.982,-0.001,0.586,-0.211,-0.466
30,-0.011,-0.024,-0.006,0.136,-0.982,-0.001,0.582,-0.187,-0.436
31,-0.011,-0.025,-0.005,0.141,-0.978,-0.001,0.562,-0.189,-0.444
32,-0.013,-0.023,-0.004,0.145,-0.976,-0.002,0.562,-0.189,-0.444
33,-0.016,-0.024,-0.003,0.147,-0.974,-0.002,0.577,-0.207,-0.435
34,-0.016,-0.024,-0.002,0.149,-0.971,-0.002,0.58,-0.199,-0.433
35,-0.016,-0.024,-0.002,0.148,-0.969,-0.001,0.583,-0.192,-0.436
36,-0.015,-0.019,-0.002,0.147,-0.974,0.002,0.589,-0.19,-0.451
37,-0.012,-0.014,-0.004,0.143,-0.976,0.004,0.589,-0.199,-0.45
38,-0.014,-0.018,-0.004,0.141,-0.975,0.003,0.597,-0.196,-0.447
39,-0.018,-0.007,-0.007,0.143,-0.973,0.0,0.597,-0.196,-0.447
40,-0.018,-0.015,-0.007,0.143,-0.973,-0.002,0.583,-0.202,-0.457
41,-0.018,-0.013,-0.009,0.144,-0.973,0.0,0.579,-0.202,-0.447
42,-0.017,-0.003,-0.009,0.145,-0.971,0.002,0.588,-0.205,-0.444
43,-0.015,0.0,-0.009,0.147,-0.97,0.004,0.565,-0.201,-0.459
44,-0.014,-0.002,-0.008,0.149,-0.97,0.003,0.579,-0.208,-0.465
45,-0.014,-0.003,-0.007,0.149,-0.971,-0.001,0.576,-0.211,-0.436
46,-0.011,0.0,-0.007,0.149,-0.972,-0.004,0.576,-0.211,-0.436
47,-0.007,0.008,-0.007,0.144,-0.977,0.0,0.57,-0.195,-0.43
48,-0.004,0.012,-0.007,0.143,-0.975,0.007,0.586,-0.202,-0.445
49,-0.004,0.008,-0.007,0.145,-0.974,0.011,0.583,-0.193,-0.456
50,-0.007,0.004,-0.007,0.145,-0.974,0.011,0.574,-0.195,-0.456
51,-0.007,0.003,-0.009,0.142,-0.974,0.008,0.58,-0.198,-0.456
52,-0.009,0.005,-0.011,0.139,-0.974,0.004,0.579,-0.205,-0.457
53,-0.007,0.01,-0.01,0.141,-0.975,0.001,0.579,-0.205,-0.457
54,-0.007,0.01,-0.01,0.143,-0.977,0.0,0.579,-0.214,-0.421
55,-0.004,0.01,-0.009,0.143,-0.978,0.005,0.58,-0.202,-0.456
56,-0.005,0.012,-0.008,0.144,-0.976,0.008,0.577,-0.21,-0.439
57,-0.007,0.007,-0.007,0.142,-0.973,0.007,0.591,-0.214,-0.448
58,-0.009,0.003,-0.007,0.139,-0.973,0.008,0.564,-0.193,-0.474
59,-0.011,-0.001,-0.007,0.138,-0.975,0.008,0.594,-0.198,-0.454
60,-0.011,0.007,-0.007,0.136,-0.979,0.008,0.594,-0.198,-0.454
61,-0.011,0.004,-0.007,0.136,-0.981,0.01,0.574,-0.207,-0.435
62,-0.009,0.0,-0.007,0.138,-0.981,0.01,0.567,-0.204,-0.45
63,-0.011,-0.004,-0.007,0.14,-0.977,0.007,0.585,-0.19,-0.453
64,-0.012,-0.005,-0.008,0.137,-0.973,0.004,0.604,-0.199,-0.463
65,-0.013,-0.002,-0.009,0.137,-0.975,0.006,0.582,-0.192,-0.454
66,-0.01,-0.001,-0.01,0.138,-0.978,0.011,0.58,-0.214,-0.453
67,-0.009,-0.005,-0.011,0.141,-0.977,0.012,0.58,-0.214,-0.453
68,-0.011,-0.011,-0.009,0.142,-0.976,0.011,0.567,-0.198,-0.444
69,-0.012,-0.015,-0.009,0.142,-0.976,0.011,0.585,-0.21,-0.447
70,-0.012,-0.018,-0.008,0.141,-0.976,0.01,0.583,-0.198,-0.433
71,-0.011,-0.017,-0.008,0.145,-0.976,0.011,0.583,-0.196,-0.444
72,-0.008,-0.012,-0.009,0.145,-0.977,0.01,0.583,-0.19,-0.45
73,-0.008,-0.012,-0.009,0.142,-0.98,0.009,0.598,-0.19,-0.436
74,-0.006,-0.005,-0.009,0.142,-0.979,0.01,0.598,-0.19,-0.436
75,-0.005,-0.004,-0.008,0.142,-0.977,0.013,0.592,-0.198,-0.45
76,-0.004,-0.007,-0.008,0.142,-0.977,0.014,0.58,-0.19,-0.447
77,-0.005,-0.015,-0.007,0.142,-0.974,0.017,0.562,-0.208,-0.456
78,-0.006,-0.016,-0.007,0.138,-0.974,0.018,0.579,-0.205,-0.448
79,-0.008,-0.016,-0.008,0.139,-0.975,0.019,0.579,-0.204,-0.451
80,-0.009,-0.016,-0.009,0.142,-0.976,0.021,0.594,-0.207,-0.441
81,-0.014,-0.027,-0.007,0.143,-0.974,0.018,0.594,-0.207,-0.441
82,-0.012,-0.023,-0.007,0.144,-0.97,0.012,0.57,-0.201,-0.417
83,-0.011,-0.014,-0.007,0.144,-0.968,0.009,0.585,-0.201,-0.46
84,-0.008,-0.003,-0.009,0.149,-0.975,0.014,0.589,-0.192,-0.447
85,-0.002,0.003,-0.007,0.154,-0.981,0.02,0.576,-0.18,-0.453
86,0.0,0.0,-0.005,0.154,-0.978,0.019,0.58,-0.187,-0.468
87,0.0,-0.007,-0.004,0.152,-0.971,0.014,0.58,-0.187,-0.468
88,-0.003,-0.013,-0.004,0.148,-0.965,0.009,0.582,-0.18,-0.454
89,-0.003,-0.009,-0.006,0.148,-0.965,0.009,0.58,-0.19,-0.46
90,-0.001,-0.005,-0.007,0.141,-0.968,0.009,0.595,-0.196,-0.456
91,0.0,-0.003,-0.007,0.137,-0.971,0.012,0.576,-0.186,-0.442
92,-0.001,-0.004,-0.008,0.137,-0.972,0.013,0.586,-0.193,-0.447
93,-0.001,-0.004,-0.008,0.139,-0.973,0.015,0.574,-0.192,-0.445
94,-0.002,-0.007,-0.006,0.142,-0.974,0.017,0.574,-0.192,-0.445
95,-0.006,-0.007,-0.006,0.143,-0.975,0.017,0.568,-0.201,-0.433
96,-0.008,-0.009,-0.006,0.142,-0.976,0.013,0.568,-0.201,-0.433
97,-0.007,-0.004,-0.006,0.137,-0.978,0.01,0.571,-0.193,-0.445
98,-0.009,-0.001,-0.007,0.135,-0.976,0.013,0.589,-0.198,-0.436
99,-0.01,0.0,-0.007,0.135,-0.975,0.016,0.573,-0.193,-0.445
100,-0.01,-0.002,-0.006,0.139,-0.974,0.017,0.574,-0.207,-0.45
101,-0.011,-0.006,-0.005,0.142,-0.973,0.016,0.574,-0.207,-0.45
102,-0.012,-0.008,-0.004,0.139,-0.974,0.014,0.591,-0.192,-0.46
103,-0.011,-0.005,-0.003,0.141,-0.975,0.012,0.588,-0.198,-0.447
104,-0.009,-0.002,-0.003,0.142,-0.975,0.012,0.589,-0.192,-0.442
105,-0.006,-0.002,-0.004,0.14,-0.976,0.012,0.573,-0.189,-0.463
106,-0.004,-0.002,-0.006,0.14,-0.977,0.01,0.579,-0.201,-0.429
107,-0.004,-0.002,-0.007,0.14,-0.974,0.009,0.579,-0.193,-0.447
108,-0.003,-0.001,-0.007,0.137,-0.97,0.01,0.579,-0.193,-0.447
109,-0.002,0.0,-0.009,0.137,-0.97,0.01,0.573,-0.193,-0.454
110,-0.002,-0.001,-0.009,0.137,-0.968,0.011,0.573,-0.193,-0.454
111,0.0,-0.004,-0.009,0.138,-0.972,0.012,0.585,-0.177,-0.441
112,0.001,-0.005,-0.008,0.139,-0.975,0.013,0.592,-0.198,-0.439
113,0.001,-0.005,-0.008,0.139,-0.975,0.014,0.591,-0.195,-0.445
114,0.002,-0.007,-0.007,0.139,-0.973,0.017,0.601,-0.196,-0.444
115,0.003,-0.011,-0.006,0.139,-0.974,0.018,0.601,-0.196,-0.444
116,0.002,-0.013,-0.004,0.139,-0.978,0.02,0.576,-0.183,-0.45
117,0.001,-0.016,-0.006,0.138,-0.976,0.021,0.576,-0.183,-0.45
118,0.0,-0.016,-0.006,0.135,-0.975,0.017,0.579,-0.196,-0.445
119,0.001,-0.011,-0.006,0.135,-0.974,0.016,0.576,-0.199,-0.456
120,-0.001,-0.011,-0.007,0.139,-0.975,0.017,0.573,-0.19,-0.447
121,-0.002,-0.011,-0.006,0.141,-0.979,0.016,0.571,-0.184,-0.448
122,-0.003,-0.012,-0.006,0.139,-0.981,0.015,0.571,-0.184,-0.448
123,-0.005,-0.017,-0.004,0.138,-0.979,0.016,0.564,-0.201,-0.436
124,-0.005,-0.018,-0.006,0.139,-0.976,0.016,0.57,-0.207,-0.439
125,-0.004,-0.02,-0.006,0.14,-0.974,0.01,0.574,-0.207,-0.45
126,-0.002,-0.019,-0.006,0.138,-0.972,0.01,0.571,-0.193,-0.456
127,-0.004,-0.018,-0.007,0.138,-0.972,0.01,0.579,-0.187,-0.444
128,-0.003,-0.018,-0.009,0.135,-0.972,0.013,0.55,-0.205,-0.46
129,-0.002,-0.018,-0.009,0.135,-0.974,0.014,0.55,-0.205,-0.46
130,-0.004,-0.028,-0.005,0.137,-0.975,0.016,0.579,-0.189,-0.447
131,-0.004,-0.026,-0.004,0.141,-0.973,0.014,0.579,-0.189,-0.447
132,-0.002,-0.022,-0.006,0.139,-0.971,0.012,0.556,-0.192,-0.454
133,-0.002,-0.022,-0.006,0.135,-0.971,0.014,0.582,-0.199,-0.468
134,-0.002,-0.02,-0.007,0.138,-0.973,0.017,0.582,-0.201,-0.454
135,-0.002,-0.02,-0.008,0.141,-0.975,0.018,0.579,-0.201,-0.459
136,-0.001,-0.023,-0.008,0.142,-0.977,0.016,0.579,-0.201,-0.459
137,0.002,-0.021,-0.007,0.142,-0.977,0.015,0.579,-0.201,-0.459
138,0.0,-0.022,-0.007,0.141,-0.976,0.016,0.574,-0.213,-0.477
139,-0.002,-0.027,-0.007,0.142,-0.974,0.016,0.573,-0.193,-0.468
140,-0.002,-0.029,-0.007,0.143,-0.975,0.014,0.582,-0.195,-0.454
141,-0.002,-0.03,-0.006,0.143,-0.977,0.012,0.564,-0.189,-0.444
142,-0.006,-0.029,-0.006,0.14,-0.975,0.013,0.565,-0.195,-0.459
143,-0.009,-0.023,-0.007,0.141,-0.972,0.013,0.565,-0.195,-0.459
144,-0.006,-0.018,-0.007,0.145,-0.97,0.012,0.579,-0.175,-0.45
145,-0.001,-0.016,-0.005,0.149,-0.97,0.014,0.579,-0.175,-0.45
146,0.0,-0.014,-0.004,0.149,-0.974,0.017,0.573,-0.195,-0.462
147,0.0,-0.011,-0.004,0.148,-0.975,0.02,0.556,-0.223,-0.46
148,0.0,-0.011,-0.004,0.148,-0.975,0.02,0.577,-0.187,-0.451
149,0.0,-0.008,-0.004,0.146,-0.976,0.021,0.577,-0.192,-0.447
150,0.0,-0.01,-0.005,0.143,-0.975,0.022,0.577,-0.192,-0.447
151,-0.003,-0.011,-0.007,0.144,-0.974,0.021,0.582,-0.207,-0.454
152,-0.004,-0.011,-0.009,0.146,-0.971,0.017,0.576,-0.186,-0.459
153,-0.004,-0.011,-0.009,0.144,-0.971,0.014,0.57,-0.186,-0.441
154,-0.006,-0.009,-0.009,0.143,-0.974,0.012,0.591,-0.184,-0.46
155,-0.003,-0.004,-0.009,0.144,-0.975,0.013,0.579,-0.192,-0.471
156,-0.002,-0.002,-0.007,0.144,-0.973,0.016,0.595,-0.19,-0.457
157,0.0,-0.001,-0.007,0.144,-0.972,0.017,0.595,-0.19,-0.457
158,0.0,-0.004,-0.006,0.145,-0.974,0.019,0.558,-0.196,-0.444
159,0.0,-0.003,-0.004,0.143,-0.976,0.018,0.558,-0.196,-0.444
160,0.003,-0.004,-0.004,0.139,-0.979,0.016,0.573,-0.181,-0.456
161,0.002,-0.004,-0.005,0.141,-0.978,0.015,0.568,-0.186,-0.453
162,0.004,-0.004,-0.006,0.143,-0.975,0.017,0.568,-0.19,-0.444
163,0.004,-0.007,-0.004,0.143,-0.974,0.017,0.576,-0.202,-0.444
164,0.003,-0.007,-0.003,0.141,-0.974,0.017,0.576,-0.202,-0.444
165,0.001,-0.009,-0.002,0.14,-0.973,0.015,0.568,-0.204,-0.442
166,-0.004,-0.007,-0.001,0.142,-0.971,0.013,0.58,-0.204,-0.471
167,-0.009,-0.004,-0.002,0.147,-0.972,0.016,0.559,-0.192,-0.456
168,-0.014,-0.005,0.0,0.147,-0.972,0.016,0.582,-0.204,-0.445
169,-0.018,-0.01,0.002,0.151,-0.975,0.019,0.571,-0.205,-0.46
170,-0.025,-0.01,0.004,0.149,-0.976,0.021,0.574,-0.198,-0.454
171,-0.025,-0.01,0.004,0.147,-0.979,0.021,0.574,-0.198,-0.454
172,-0.028,-0.011,0.006,0.145,-0.981,0.02,0.579,-0.207,-0.442
173,-0.028,-0.011,0.006,0.139,-0.979,0.021,0.579,-0.207,-0.442
174,-0.03,-0.011,0.004,0.137,-0.976,0.018,0.577,-0.181,-0.439
175,-0.028,-0.006,0.002,0.136,-0.982,0.023,0.57,-0.201,-0.466
176,-0.025,-0.008,0.004,0.13,-0.984,0.027,0.573,-0.21,-0.456
177,-0.023,-0.007,0.004,0.125,-0.98,0.022,0.577,-0.192,-0.448
178,-0.019,-0.004,0.003,0.127,-0.979,0.024,0.577,-0.192,-0.448
179,-0.018,-0.007,0.003,0.128,-0.978,0.029,0.57,-0.189,-0.457
180,-0.016,-0.009,0.0,0.129,-0.976,0.028,0.562,-0.19,-0.469
181,-0.014,-0.013,0.0,0.131,-0.973,0.023,0.573,-0.189,-0.456
182,-0.013,-0.015,-0.001,0.131,-0.971,0.02,0.594,-0.195,-0.454
183,-0.012,-0.02,-0.003,0.131,-0.971,0.018,0.567,-0.19,-0.468
184,-0.011,-0.024,-0.004,0.129,-0.973,0.018,0.576,-0.207,-0.448
185,-0.01,-0.025,-0.005,0.132,-0.972,0.017,0.576,-0.207,-0.448
186,-0.008,-0.028,-0.005,0.135,-0.973,0.019,0.58,-0.184,-0.441
187,-0.007,-0.03,-0.005,0.141,-0.974,0.02,0.58,-0.184,-0.441
188,-0.007,-0.029,-0.004,0.141,-0.974,0.02,0.559,-0.193,-0.453
189,-0.005,-0.03,-0.004,0.146,-0.975,0.019,0.565,-0.184,-0.46
190,-0.003,-0.03,-0.002,0.145,-0.976,0.021,0.592,-0.192,-0.469
191,-0.003,-0.03,-0.002,0.148,-0.976,0.022,0.586,-0.201,-0.444
192,-0.002,-0.025,-0.002,0.149,-0.975,0.02,0.586,-0.201,-0.444
193,0.0,-0.023,-0.002,0.149,-0.973,0.021,0.579,-0.177,-0.459
194,-0.001,-0.021,-0.003,0.151,-0.971,0.021,0.591,-0.199,-0.447
195,0.0,-0.021,-0.004,0.151,-0.973,0.021,0.588,-0.181,-0.462
196,0.0,-0.021,-0.005,0.152,-0.975,0.021,0.561,-0.193,-0.463
197,0.001,-0.019,-0.004,0.154,-0.975,0.02,0.568,-0.19,-0.444
198,0.002,-0.014,-0.005,0.155,-0.973,0.019,0.573,-0.199,-0.456
199,0.004,-0.011,-0.005,0.151,-0.972,0.021,0.573,-0.199,-0.456
200,0.005,-0.006,-0.004,0.148,-0.975,0.023,0.552,-0.193,-0.453
201,0.005,-0.005,-0.005,0.148,-0.974,0.022,0.552,-0.208,-0.438
202,0.004,-0.002,-0.006,0.146,-0.973,0.021,0.567,-0.196,-0.46
203,0.002,-0.002,-0.007,0.145,-0.972,0.024,0.582,-0.196,-0.436
204,0.002,-0.004,-0.009,0.146,-0.972,0.024,0.583,-0.178,-0.46
205,0.001,-0.005,-0.009,0.147,-0.974,0.021,0.576,-0.202,-0.459
206,0.001,-0.007,-0.009,0.148,-0.975,0.019,0.576,-0.202,-0.459
207,0.0,-0.016,-0.009,0.148,-0.975,0.019,0.582,-0.181,-0.421
208,0.001,-0.012,-0.008,0.146,-0.973,0.018,0.582,-0.181,-0.421
209,0.004,-0.009,-0.009,0.144,-0.971,0.02,0.58,-0.195,-0.46
210,0.004,-0.005,-0.008,0.145,-0.97,0.023,0.571,-0.208,-0.451
211,0.004,-0.005,-0.007,0.145,-0.969,0.026,0.579,-0.183,-0.471
212,0.004,-0.005,-0.007,0.148,-0.971,0.028,0.568,-0.193,-0.465
213,0.003,-0.009,-0.007,0.146,-0.972,0.027,0.568,-0.193,-0.465
214,0.002,-0.009,-0.007,0.145,-0.974,0.025,0.561,-0.19,-0.444
215,0.002,-0.009,-0.005,0.149,-0.973,0.027,0.577,-0.195,-0.448
216,0.003,-0.008,-0.005,0.152,-0.97,0.027,0.574,-0.19,-0.463
217,0.004,-0.007,-0.005,0.152,-0.972,0.025,0.546,-0.193,-0.457
218,0.004,-0.007,-0.006,0.15,-0.973,0.023,0.55,-0.19,-0.454
219,0.004,-0.004,-0.005,0.149,-0.972,0.022,0.576,-0.192,-0.46
220,0.004,-0.005,-0.005,0.148,-0.97,0.023,0.576,-0.192,-0.46
221,0.002,-0.005,-0.007,0.151,-0.969,0.022,0.556,-0.19,-0.448
222,0.001,-0.001,-0.007,0.152,-0.971,0.022,0.556,-0.19,-0.448
223,0.002,0.001,-0.007,0.148,-0.973,0.023,0.582,-0.192,-0.448
224,0.002,0.001,-0.007,0.145,-0.973,0.021,0.565,-0.193,-0.463
225,0.002,0.002,-0.006,0.146,-0.971,0.021,0.57,-0.195,-0.454
226,0.002,0.003,-0.005,0.144,-0.971,0.021,0.564,-0.184,-0.45
227,0.0,0.002,-0.005,0.144,-0.971,0.021,0.564,-0.184,-0.45
228,0.002,0.002,-0.005,0.143,-0.974,0.021,0.567,-0.202,-0.46
229,0.002,0.004,-0.005,0.143,-0.973,0.02,0.589,-0.195,-0.451
230,0.002,0.004,-0.005,0.143,-0.97,0.02,0.576,-0.204,-0.457
231,0.001,0.002,-0.005,0.143,-0.973,0.02,0.564,-0.196,-0.465
232,0.001,0.002,-0.005,0.142,-0.975,0.021,0.577,-0.195,-0.444
233,0.0,0.001,-0.006,0.143,-0.975,0.022,0.571,-0.183,-0.456
234,0.0,0.001,-0.006,0.144,-0.976,0.021,0.571,-0.183,-0.456
235,0.0,0.001,-0.006,0.142,-0.973,0.02,0.555,-0.19,-0.441
236,0.0,0.002,-0.007,0.142,-0.973,0.02,0.555,-0.19,-0.441
237,0.001,0.002,-0.007,0.14,-0.975,0.021,0.568,-0.189,-0.46
238,0.002,0.004,-0.007,0.138,-0.977,0.02,0.588,-0.199,-0.45
239,0.002,0.001,-0.006,0.137,-0.976,0.017,0.559,-0.169,-0.444
240,0.003,0.001,-0.007,0.137,-0.976,0.018,0.58,-0.195,-0.454
241,0.004,0.004,-0.007,0.14,-0.978,0.019,0.58,-0.195,-0.454
242,0.004,0.01,-0.007,0.141,-0.977,0.018,0.574,-0.202,-0.46
243,0.004,0.006,-0.007,0.14,-0.976,0.018,0.571,-0.189,-0.46
244,0.002,0.002,-0.007,0.14,-0.977,0.018,0.582,-0.183,-0.466
245,0.004,0.002,-0.008,0.14,-0.975,0.017,0.568,-0.193,-0.469
246,0.003,0.001,-0.009,0.14,-0.975,0.017,0.571,-0.213,-0.462
247,0.004,0.003,-0.011,0.141,-0.971,0.017,0.556,-0.186,-0.456
248,0.006,0.005,-0.011,0.143,-0.972,0.02,0.556,-0.186,-0.456
249,0.007,-0.002,-0.012,0.142,-0.972,0.024,0.556,-0.186,-0.456
250,0.009,0.001,-0.013,0.142,-0.972,0.024,0.559,-0.184,-0.471
251,0.009,0.001,-0.013,0.145,-0.97,0.025,0.571,-0.213,-0.445
252,0.009,0.0,-0.014,0.146,-0.973,0.025,0.576,-0.204,-0.459
253,0.011,0.001,-0.014,0.145,-0.974,0.024,0.546,-0.193,-0.459
254,0.013,0.0,-0.013,0.146,-0.972,0.026,0.576,-0.217,-0.465
255,0.014,0.002,-0.012,0.144,-0.972,0.027,0.583,-0.187,-0.462
256,0.014,-0.005,-0.009,0.143,-0.97,0.027,0.583,-0.187,-0.462
257,0.012,-0.003,-0.009,0.144,-0.97,0.026,0.573,-0.189,-0.453
258,0.011,-0.002,-0.009,0.146,-0.974,0.026,0.583,-0.196,-0.462
259,0.009,-0.004,-0.009,0.149,-0.976,0.026,0.573,-0.195,-0.462
260,0.009,-0.004,-0.009,0.15,-0.976,0.025,0.567,-0.187,-0.447
261,0.008,-0.002,-0.009,0.15,-0.977,0.025,0.57,-0.201,-0.445
262,0.006,-0.002,-0.008,0.15,-0.976,0.023,0.58,-0.184,-0.459
263,0.007,0.009,-0.009,0.151,-0.973,0.02,0.58,-0.184,-0.459
264,0.003,0.001,-0.007,0.15,-0.971,0.019,0.567,-0.195,-0.438
265,0.002,0.0,-0.007,0.149,-0.972,0.021,0.567,-0.189,-0.445
266,0.002,0.002,-0.007,0.148,-0.974,0.022,0.585,-0.204,-0.438
267,0.002,0.004,-0.007,0.148,-0.974,0.022,0.574,-0.195,-0.469
268,0.001,0.004,-0.005,0.148,-0.973,0.023,0.592,-0.186,-0.462
269,0.002,0.003,-0.005,0.148,-0.974,0.023,0.591,-0.193,-0.459
270,0.002,0.003,-0.005,0.146,-0.975,0.023,0.591,-0.193,-0.459
271,0.003,0.002,-0.006,0.145,-0.975,0.022,0.582,-0.195,-0.447
272,0.004,0.002,-0.006,0.145,-0.973,0.022,0.561,-0.195,-0.444
273,0.002,0.002,-0.005,0.144,-0.973,0.019,0.577,-0.202,-0.471
274,0.001,0.0,-0.006,0.144,-0.973,0.017,0.583,-0.208,-0.459
275,0.0,-0.002,-0.006,0.143,-0.973,0.018,0.571,-0.198,-0.444
276,-0.001,-0.003,-0.005,0.142,-0.975,0.019,0.561,-0.19,-0.474
277,0.0,0.015,-0.007,0.141,-0.975,0.021,0.561,-0.19,-0.474
278,-0.001,0.004,-0.006,0.141,-0.976,0.024,0.564,-0.19,-0.435
279,-0.002,-0.002,-0.005,0.14,-0.977,0.025,0.568,-0.195,-0.469
280,-0.002,-0.002,-0.005,0.143,-0.977,0.023,0.576,-0.177,-0.453
281,-0.002,-0.002,-0.006,0.144,-0.977,0.02,0.565,-0.186,-0.448
282,-0.001,-0.002,-0.007,0.14,-0.975,0.018,0.582,-0.192,-0.471
283,-0.001,0.0,-0.008,0.141,-0.973,0.019,0.585,-0.211,-0.448
284,0.0,0.004,-0.009,0.142,-0.974,0.019,0.585,-0.211,-0.448
285,0.0,0.003,-0.008,0.14,-0.973,0.017,0.558,-0.198,-0.45
286,0.0,0.0,-0.007,0.14,-0.973,0.017,0.571,-0.195,-0.46
287,-0.002,0.0,-0.006,0.141,-0.974,0.019,0.592,-0.198,-0.454
288,-0.002,0.001,-0.005,0.142,-0.975,0.02,0.577,-0.193,-0.448
289,0.0,0.001,-0.005,0.144,-0.976,0.02,0.573,-0.202,-0.451
290,0.0,0.001,-0.005,0.145,-0.978,0.02,0.57,-0.196,-0.462
291,0.0,0.004,-0.004,0.144,-0.977,0.021,0.57,-0.196,-0.462
292,-0.002,0.003,-0.004,0.143,-0.978,0.023,0.574,-0.186,-0.445
293,-0.002,0.002,-0.005,0.142,-0.978,0.021,0.564,-0.187,-0.469
294,-0.002,0.002,-0.006,0.138,-0.977,0.021,0.576,-0.187,-0.469
295,-0.003,-0.001,-0.007,0.135,-0.976,0.02,0.579,-0.201,-0.463
296,-0.004,-0.002,-0.008,0.137,-0.976,0.019,0.57,-0.18,-0.46
297,-0.004,-0.004,-0.009,0.139,-0.974,0.02,0.577,-0.193,-0.453
298,-0.002,-0.003,-0.01,0.137,-0.972,0.022,0.577,-0.193,-0.453
299,-0.002,-0.005,-0.011,0.137,-0.973,0.025,0.579,-0.184,-0.439
300,-0.001,-0.007,-0.009,0.14,-0.973,0.027,0.576,-0.201,-0.472
301,0.001,-0.009,-0.008,0.141,-0.975,0.026,0.573,-0.205,-0.472
302,0.004,-0.009,-0.009,0.145,-0.978,0.024,0.585,-0.192,-0.457
303,0.007,-0.008,-0.008,0.15,-0.978,0.023,0.579,-0.204,-0.454
304,0.008,-0.009,-0.007,0.152,-0.975,0.021,0.558,-0.196,-0.457
305,0.007,-0.007,-0.006,0.152,-0.975,0.021,0.558,-0.196,-0.457
306,0.007,-0.005,-0.005,0.152,-0.972,0.02,0.574,-0.202,-0.457
307,0.007,-0.002,-0.004,0.15,-0.971,0.02,0.588,-0.196,-0.477
308,0.006,0.0,-0.006,0.148,-0.97,0.022,0.559,-0.184,-0.462
309,0.005,0.002,-0.007,0.148,-0.97,0.026,0.573,-0.198,-0.453
310,0.005,0.002,-0.007,0.147,-0.973,0.028,0.559,-0.19,-0.457
311,0.004,0.001,-0.008,0.146,-0.973,0.03,0.576,-0.198,-0.466
312,0.004,0.004,-0.009,0.146,-0.974,0.031,0.576,-0.198,-0.466
313,0.002,0.002,-0.009,0.147,-0.975,0.028,0.565,-0.198,-0.444
314,0.004,0.0,-0.011,0.145,-0.973,0.025,0.564,-0.208,-0.463
315,0.005,0.0,-0.01,0.146,-0.974,0.025,0.588,-0.196,-0.471
316,0.006,-0.001,-0.009,0.146,-0.975,0.024,0.57,-0.189,-0.466
317,0.007,0.001,-0.009,0.144,-0.976,0.024,0.571,-0.207,-0.445
318,0.007,0.002,-0.008,0.145,-0.976,0.024,0.577,-0.192,-0.45
319,0.007,-0.008,-0.007,0.15,-0.971,0.023,0.577,-0.192,-0.45
320,0.006,-0.001,-0.007,0.151,-0.969,0.022,0.559,-0.195,-0.48
321,0.007,0.002,-0.006,0.148,-0.968,0.023,0.576,-0.201,-0.471
322,0.006,0.002,-0.006,0.147,-0.97,0.024,0.573,-0.178,-0.468
323,0.006,0.002,-0.006,0.147,-0.973,0.024,0.567,-0.207,-0.466
324,0.006,0.002,-0.007,0.147,-0.973,0.026,0.565,-0.187,-0.456
325,0.007,0.002,-0.007,0.147,-0.973,0.026,0.579,-0.187,-0.459
326,0.007,0.011,-0.008,0.147,-0.973,0.023,0.579,-0.187,-0.459
327,0.005,0.006,-0.007,0.146,-0.974,0.022,0.571,-0.207,-0.433
328,0.003,0.004,-0.007,0.147,-0.975,0.026,0.573,-0.178,-0.465
329,0.002,0.002,-0.008,0.147,-0.976,0.027,0.573,-0.202,-0.459
330,0.002,0.002,-0.008,0.145,-0.974,0.026,0.58,-0.186,-0.477
331,0.002,0.004,-0.009,0.145,-0.972,0.024,0.573,-0.181,-0.463
332,0.002,0.006,-0.008,0.145,-0.973,0.025,0.589,-0.192,-0.45
333,0.002,0.008,-0.007,0.143,-0.974,0.027,0.589,-0.192,-0.45
334,0.005,0.007,-0.006,0.144,-0.975,0.027,0.57,-0.205,-0.477
335,0.007,0.005,-0.006,0.147,-0.977,0.025,0.574,-0.196,-0.468
336,0.008,0.006,-0.007,0.146,-0.976,0.022,0.579,-0.202,-0.463
337,0.01,0.006,-0.006,0.144,-0.976,0.02,0.564,-0.202,-0.448
338,0.01,0.007,-0.005,0.142,-0.977,0.018,0.577,-0.19,-0.456
339,0.009,0.008,-0.006,0.141,-0.976,0.018,0.564,-0.19,-0.459
340,0.006,0.005,-0.007,0.14,-0.974,0.024,0.564,-0.19,-0.459
341,0.004,0.005,-0.008,0.14,-0.974,0.026,0.541,-0.186,-0.445
342,0.002,0.005,-0.008,0.14,-0.973,0.024,0.568,-0.172,-0.448
343,0.001,0.005,-0.009,0.141,-0.972,0.025,0.576,-0.181,-0.451
344,0.002,0.007,-0.008,0.143,-0.973,0.026,0.571,-0.189,-0.466
345,0.004,0.007,-0.007,0.143,-0.973,0.026,0.585,-0.187,-0.472
346,0.004,0.007,-0.005,0.145,-0.972,0.027,0.582,-0.175,-0.474
347,0.007,0.007,-0.005,0.146,-0.973,0.024,0.582,-0.175,-0.474
348,0.007,0.007,-0.004,0.145,-0.973,0.023,0.552,-0.202,-0.456
349,0.007,0.005,-0.006,0.143,-0.972,0.023,0.58,-0.196,-0.456
350,0.007,0.005,-0.006,0.141,-0.973,0.022,0.577,-0.199,-0.442
351,0.008,0.004,-0.006,0.142,-0.976,0.022,0.564,-0.213,-0.46
352,0.009,0.002,-0.005,0.141,-0.976,0.021,0.565,-0.181,-0.454
353,0.011,0.002,-0.004,0.141,-0.976,0.02,0.58,-0.204,-0.468
354,0.011,0.008,-0.006,0.143,-0.979,0.02,0.58,-0.204,-0.468
355,0.011,0.007,-0.005,0.146,-0.979,0.021,0.574,-0.196,-0.439
356,0.01,0.009,-0.004,0.147,-0.978,0.023,0.57,-0.199,-0.447
357,0.008,0.007,-0.004,0.149,-0.978,0.026,0.573,-0.193,-0.472
358,0.006,0.007,-0.005,0.147,-0.977,0.025,0.567,-0.204,-0.466
359,0.002,0.007,-0.004,0.145,-0.975,0.023,0.58,-0.186,-0.462
360,0.001,0.009,-0.004,0.144,-0.972,0.023,0.564,-0.186,-0.445
361,0.0,0.006,-0.003,0.142,-0.974,0.022,0.564,-0.186,-0.445
362,-0.002,0.005,-0.004,0.142,-0.975,0.021,0.565,-0.19,-0.456
363,-0.003,0.004,-0.004,0.139,-0.974,0.021,0.57,-0.192,-0.472
364,-0.003,0.004,-0.004,0.14,-0.975,0.019,0.562,-0.195,-0.453
365,-0.002,0.002,-0.004,0.14,-0.975,0.019,0.564,-0.178,-0.445
366,-0.001,0.004,-0.004,0.142,-0.975,0.021,0.586,-0.204,-0.457
367,0.0,0.006,-0.004,0.142,-0.973,0.02,0.558,-0.19,-0.456
368,0.0,0.007,-0.004,0.143,-0.975,0.016,0.558,-0.19,-0.456
369,0.002,0.005,-0.003,0.144,-0.975,0.015,0.58,-0.201,-0.447
370,0.002,0.005,-0.003,0.143,-0.975,0.016,0.565,-0.193,-0.448
371,0.002,0.003,-0.002,0.143,-0.973,0.017,0.585,-0.19,-0.466
372,0.002,0.002,-0.002,0.143,-0.97,0.018,0.561,-0.18,-0.454
373,0.002,0.002,-0.003,0.143,-0.972,0.019,0.589,-0.204,-0.453
374,0.003,0.004,-0.004,0.146,-0.975,0.019,0.574,-0.202,-0.46
375,0.0,-0.01,0.0,0.145,-0.974,0.019,0.574,-0.202,-0.46
376,0.002,0.006,-0.002,0.146,-0.976,0.018,0.565,-0.198,-0.457
377,0.004,0.011,-0.003,0.146,-0.974,0.018,0.576,-0.198,-0.442
378,0.004,0.011,-0.004,0.143,-0.973,0.019,0.574,-0.18,-0.462
379,0.003,0.011,-0.004,0.144,-0.976,0.021,0.582,-0.199,-0.456
380,0.002,0.01,-0.004,0.143,-0.975,0.023,0.567,-0.204,-0.445
381,0.002,0.011,-0.006,0.142,-0.974,0.024,0.564,-0.187,-0.463
382,0.003,0.016,-0.007,0.146,-0.977,0.019,0.561,-0.189,-0.433
383,0.003,0.016,-0.006,0.147,-0.976,0.019,0.568,-0.189,-0.447
384,0.005,0.018,-0.006,0.147,-0.976,0.019,0.559,-0.184,-0.46
385,0.006,0.017,-0.004,0.148,-0.973,0.02,0.586,-0.186,-0.457
386,0.005,0.015,-0.002,0.148,-0.973,0.019,0.571,-0.192,-0.462
387,0.005,0.015,-0.002,0.148,-0.975,0.019,0.598,-0.186,-0.463
388,0.006,0.015,-0.002,0.143,-0.977,0.018,0.598,-0.186,-0.463
389,0.004,0.011,-0.002,0.138,-0.978,0.017,0.591,-0.19,-0.442
390,0.004,0.009,-0.003,0.139,-0.978,0.019,0.58,-0.189,-0.45
391,0.002,0.009,-0.004,0.138,-0.977,0.021,0.583,-0.193,-0.462
392,0.002,0.009,-0.003,0.139,-0.976,0.02,0.586,-0.19,-0.45
393,0.001,0.014,-0.003,0.144,-0.974,0.019,0.577,-0.184,-0.459
394,0.001,0.016,-0.002,0.148,-0.973,0.021,0.555,-0.21,-0.46
395,0.002,0.014,-0.002,0.148,-0.976,0.02,0.555,-0.21,-0.46
396,0.003,0.016,-0.002,0.147,-0.977,0.019,0.579,-0.196,-0.445
397,0.001,0.014,-0.001,0.148,-0.976,0.021,0.586,-0.204,-0.465
398,0.0,0.014,-0.001,0.146,-0.973,0.021,0.579,-0.198,-0.466
399,0.0,0.011,0.0,0.143,-0.972,0.022,0.58,-0.195,-0.447
400,-0.002,0.009,-0.001,0.141,-0.974,0.024,0.579,-0.192,-0.453
401,-0.004,0.01,-0.001,0.139,-0.974,0.025,0.555,-0.207,-0.465
402,-0.003,0.016,-0.002,0.142,-0.976,0.025,0.555,-0.207,-0.465
403,-0.003,0.014,-0.003,0.146,-0.975,0.026,0.567,-0.183,-0.43
404,-0.002,0.014,-0.003,0.146,-0.975,0.026,0.568,-0.193,-0.466
405,-0.002,0.016,-0.004,0.147,-0.973,0.026,0.585,-0.174,-0.466
406,0.0,0.018,-0.003,0.147,-0.973,0.025,0.588,-0.178,-0.466
407,0.0,0.018,-0.002,0.151,-0.974,0.024,0.579,-0.187,-0.484
408,0.0,0.018,-0.002,0.154,-0.974,0.023,0.603,-0.193,-0.46
409,0.001,0.016,-0.001,0.15,-0.973,0.022,0.603,-0.193,-0.46
410,0.0,0.018,-0.001,0.147,-0.972,0.022,0.574,-0.196,-0.454
411,0.0,0.018,0.0,0.147,-0.973,0.022,0.57,-0.211,-0.459
412,-0.001,0.017,0.0,0.146,-0.973,0.022,0.571,-0.183,-0.46
413,0.0,0.014,0.0,0.145,-0.971,0.023,0.577,-0.216,-0.465
414,-0.001,0.015,0.0,0.144,-0.972,0.026,0.573,-0.193,-0.472
415,-0.002,0.017,-0.001,0.144,-0.976,0.025,0.576,-0.189,-0.459
416,-0.001,0.028,-0.003,0.144,-0.977,0.025,0.576,-0.189,-0.459
417,-0.001,0.024,-0.004,0.145,-0.975,0.025,0.579,-0.183,-0.45
418,0.0,0.023,-0.003,0.148,-0.977,0.023,0.553,-0.196,-0.465
419,0.0,0.021,-0.003,0.148,-0.98,0.022,0.577,-0.181,-0.453
420,0.002,0.016,-0.004,0.147,-0.977,0.023,0.573,-0.205,-0.472
421,0.002,0.014,-0.004,0.146,-0.973,0.023,0.568,-0.175,-0.454
422,0.003,0.015,-0.005,0.146,-0.973,0.021,0.589,-0.186,-0.466
423,0.005,0.012,-0.005,0.146,-0.973,0.021,0.589,-0.186,-0.466
424,0.004,0.016,-0.004,0.147,-0.971,0.021,0.577,-0.187,-0.435
425,0.004,0.02,-0.005,0.147,-0.969,0.023,0.586,-0.184,-0.439
426,0.005,0.021,-0.006,0.149,-0.969,0.024,0.579,-0.172,-0.456
427,0.007,0.023,-0.004,0.153,-0.97,0.023,0.558,-0.202,-0.462
428,0.007,0.023,-0.004,0.153,-0.972,0.021,0.582,-0.19,-0.46
429,0.007,0.025,-0.004,0.154,-0.971,0.022,0.586,-0.198,-0.466
430,0.008,0.024,-0.003,0.155,-0.97,0.023,0.586,-0.198,-0.466
431,0.008,0.023,-0.002,0.152,-0.972,0.024,0.568,-0.184,-0.436
432,0.007,0.021,0.0,0.151,-0.974,0.021,0.579,-0.198,-0.462
433,0.004,0.021,0.001,0.153,-0.973,0.019,0.583,-0.186,-0.46
434,0.001,0.022,0.002,0.15,-0.976,0.023,0.574,-0.196,-0.468
435,-0.001,0.023,0.002,0.147,-0.975,0.024,0.57,-0.183,-0.451
436,-0.001,0.024,0.002,0.145,-0.975,0.022,0.568,-0.198,-0.439
437,-0.001,0.018,0.002,0.143,-0.976,0.022,0.568,-0.198,-0.439
438,-0.001,0.024,0.0,0.144,-0.977,0.024,0.576,-0.181,-0.444
439,-0.002,0.025,0.0,0.143,-0.977,0.025,0.576,-0.169,-0.46
440,-0.001,0.022,-0.002,0.144,-0.975,0.026,0.586,-0.175,-0.453
441,-0.001,0.021,-0.002,0.142,-0.975,0.024,0.582,-0.187,-0.453
442,-0.001,0.018,-0.004,0.142,-0.975,0.024,0.577,-0.192,-0.46
443,-0.001,0.016,-0.004,0.14,-0.977,0.025,0.57,-0.186,-0.454
444,0.001,0.014,-0.004,0.139,-0.977,0.029,0.57,-0.186,-0.454
445,0.0,0.012,-0.003,0.136,-0.97,0.022,0.579,-0.177,-0.462
446,0.0,0.011,-0.002,0.14,-0.969,0.021,0.577,-0.192,-0.453
447,0.0,0.011,-0.002,0.144,-0.973,0.028,0.58,-0.19,-0.456
448,0.0,0.011,-0.001,0.145,-0.97,0.026,0.586,-0.207,-0.466
449,0.0,0.013,0.0,0.145,-0.97,0.027,0.594,-0.189,-0.468
450,0.0,0.016,0.0,0.145,-0.971,0.03,0.574,-0.181,-0.456
451,0.0,0.012,0.0,0.146,-0.97,0.032,0.574,-0.181,-0.456
452,0.0,0.011,-0.002,0.147,-0.971,0.032,0.574,-0.193,-0.424
453,0.0,0.012,-0.003,0.15,-0.972,0.029,0.577,-0.195,-0.465
454,0.0,0.015,-0.004,0.149,-0.971,0.028,0.582,-0.196,-0.445
455,0.0,0.019,-0.007,0.148,-0.971,0.031,0.573,-0.19,-0.465
456,0.0,0.019,-0.007,0.148,-0.973,0.032,0.576,-0.184,-0.456
457,0.001,0.021,-0.008,0.152,-0.974,0.032,0.582,-0.174,-0.486
458,0.003,0.028,-0.01,0.154,-0.975,0.032,0.582,-0.174,-0.486
459,0.002,0.021,-0.009,0.152,-0.976,0.031,0.588,-0.196,-0.462
460,0.002,0.015,-0.009,0.153,-0.976,0.029,0.589,-0.198,-0.466
461,0.002,0.011,-0.007,0.153,-0.974,0.03,0.591,-0.216,-0.445
462,0.001,0.011,-0.008,0.15,-0.971,0.026,0.582,-0.196,-0.456
463,0.0,0.01,-0.008,0.15,-0.971,0.026,0.582,-0.199,-0.469
464,0.0,0.013,-0.01,0.151,-0.97,0.023,0.579,-0.208,-0.447
465,0.0,0.021,-0.01,0.15,-0.97,0.023,0.579,-0.208,-0.447
466,0.0,0.023,-0.012,0.15,-0.969,0.025,0.579,-0.193,-0.448
467,0.0,0.023,-0.012,0.152,-0.967,0.027,0.583,-0.195,-0.459
468,-0.002,0.023,-0.012,0.157,-0.967,0.029,0.586,-0.196,-0.465
469,-0.002,0.023,-0.012,0.159,-0.968,0.029,0.58,-0.187,-0.474
470,-0.004,0.023,-0.013,0.157,-0.969,0.027,0.585,-0.202,-0.463
471,-0.005,0.028,-0.014,0.156,-0.97,0.027,0.582,-0.195,-0.466
472,-0.007,0.039,-0.013,0.156,-0.972,0.026,0.582,-0.195,-0.466
473,-0.01,0.051,-0.012,0.156,-0.975,0.028,0.58,-0.201,-0.451
474,-0.012,0.056,-0.012,0.157,-0.977,0.031,0.589,-0.196,-0.45
475,-0.011,0.057,-0.012,0.162,-0.974,0.03,0.579,-0.213,-0.456
476,-0.007,0.053,-0.011,0.168,-0.974,0.028,0.592,-0.202,-0.444
477,-0.005,0.046,-0.009,0.172,-0.973,0.03,0.571,-0.195,-0.456
478,-0.007,0.038,-0.007,0.173,-0.971,0.031,0.594,-0.195,-0.45
479,-0.007,0.031,-0.007,0.168,-0.971,0.029,0.594,-0.195,-0.45
480,-0.006,0.036,-0.006,0.162,-0.97,0.029,0.562,-0.184,-0.447
481,-0.002,0.044,-0.005,0.159,-0.97,0.032,0.583,-0.196,-0.451
482,0.003,0.051,-0.005,0.159,-0.97,0.032,0.589,-0.193,-0.466
483,0.007,0.05,-0.006,0.157,-0.969,0.033,0.582,-0.195,-0.457
484,0.007,0.044,-0.007,0.154,-0.973,0.035,0.588,-0.186,-0.456
485,0.005,0.042,-0.009,0.15,-0.974,0.036,0.598,-0.184,-0.457
486,0.005,0.042,-0.009,0.146,-0.975,0.035,0.598,-0.184,-0.457
487,0.002,0.038,-0.011,0.147,-0.977,0.033,0.585,-0.199,-0.451
488,0.002,0.042,-0.016,0.149,-0.982,0.036,0.585,-0.192,-0.444
489,-0.001,0.042,-0.016,0.148,-0.983,0.036,0.582,-0.193,-0.447
490,-0.003,0.046,-0.016,0.147,-0.974,0.03,0.565,-0.202,-0.462
491,-0.001,0.057,-0.016,0.151,-0.973,0.027,0.576,-0.195,-0.436
492,0.0,0.06,-0.014,0.15,-0.975,0.025,0.57,-0.19,-0.445
493,0.003,0.06,-0.011,0.153,-0.975,0.032,0.564,-0.178,-0.442
494,0.005,0.056,-0.008,0.153,-0.976,0.033,0.613,-0.198,-0.444
495,0.007,0.049,-0.007,0.153,-0.974,0.032,0.574,-0.195,-0.441
496,0.009,0.045,-0.007,0.154,-0.973,0.033,0.583,-0.199,-0.454
497,0.009,0.043,-0.006,0.153,-0.971,0.034,0.588,-0.186,-0.454
498,0.005,0.042,-0.006,0.154,-0.968,0.033,0.579,-0.189,-0.448
499,0.003,0.043,-0.007,0.155,-0.968,0.031,0.579,-0.189,-0.448
500,0.0,0.035,-0.007,0.152,-0.969,0.028,0.585,-0.193,-0.432
501,0.0,0.041,-0.009,0.152,-0.969,0.028,0.585,-0.193,-0.432
502,0.0,0.048,-0.009,0.15,-0.971,0.027,0.591,-0.19,-0.442
503,0.001,0.051,-0.01,0.151,-0.973,0.027,0.574,-0.201,-0.468
504,0.003,0.056,-0.01,0.15,-0.976,0.024,0.597,-0.204,-0.451
505,0.003,0.056,-0.01,0.148,-0.979,0.021,0.598,-0.177,-0.45
506,0.014,0.071,-0.011,0.148,-0.99,0.035,0.598,-0.177,-0.45
507,0.012,0.074,-0.011,0.147,-0.994,0.046,0.597,-0.18,-0.423
508,0.01,0.066,-0.01,0.144,-0.984,0.039,0.597,-0.18,-0.423
509,0.009,0.053,-0.01,0.144,-0.981,0.034,0.601,-0.19,-0.447
510,0.006,0.038,-0.011,0.143,-0.977,0.034,0.589,-0.207,-0.472
511,0.001,0.024,-0.011,0.141,-0.975,0.035,0.58,-0.201,-0.456
512,-0.004,0.014,-0.013,0.14,-0.973,0.034,0.58,-0.201,-0.456
513,-0.007,0.012,-0.014,0.138,-0.974,0.03,0.589,-0.202,-0.448
514,-0.009,0.013,-0.014,0.138,-0.977,0.029,0.57,-0.177,-0.442
515,-0.008,0.02,-0.016,0.137,-0.97,0.025,0.57,-0.177,-0.442
516,-0.01,0.026,-0.015,0.142,-0.971,0.027,0.592,-0.189,-0.442
517,-0.01,0.018,-0.013,0.149,-0.974,0.033,0.598,-0.199,-0.459
518,-0.01,0.01,-0.012,0.149,-0.972,0.031,0.607,-0.177,-0.444
519,-0.013,0.002,-0.011,0.15,-0.976,0.027,0.607,-0.177,-0.444
520,-0.016,0.0,-0.011,0.151,-0.98,0.023,0.592,-0.187,-0.441
521,-0.02,0.004,-0.011,0.151,-0.98,0.023,0.589,-0.19,-0.448
522,-0.026,0.017,-0.013,0.149,-0.981,0.023,0.591,-0.192,-0.451
523,-0.032,0.03,-0.015,0.149,-0.981,0.025,0.577,-0.169,-0.471
524,-0.031,0.046,-0.021,0.152,-0.984,0.025,0.591,-0.201,-0.454
525,-0.031,0.046,-0.021,0.153,-0.998,0.037,0.594,-0.202,-0.46
526,-0.037,0.046,-0.02,0.151,-1.002,0.042,0.594,-0.202,-0.46
527,-0.044,0.047,-0.017,0.146,-0.993,0.032,0.595,-0.183,-0.439
528,-0.053,0.049,-0.016,0.147,-0.99,0.037,0.598,-0.187,-0.456
529,-0.062,0.046,-0.017,0.15,-0.993,0.039,0.598,-0.187,-0.456
530,-0.074,0.049,-0.017,0.148,-0.999,0.029,0.589,-0.202,-0.451
531,-0.078,0.056,-0.018,0.146,-1.007,0.016,0.591,-0.183,-0.457
532,-0.086,0.066,-0.018,0.147,-1.01,0.015,0.577,-0.187,-0.448
533,-0.091,0.075,-0.018,0.149,-1.008,0.015,0.603,-0.199,-0.454
534,-0.086,0.084,-0.017,0.153,-1.003,0.009,0.603,-0.199,-0.454
535,-0.075,0.091,-0.015,0.16,-0.994,0.01,0.597,-0.189,-0.453
536,-0.069,0.082,-0.012,0.167,-0.986,0.018,0.586,-0.18,-0.441
537,-0.067,0.066,-0.009,0.172,-0.974,0.023,0.595,-0.184,-0.45
538,-0.071,0.051,-0.007,0.174,-0.959,0.02,0.594,-0.174,-0.46
539,-0.08,0.046,-0.007,0.174,-0.959,0.02,0.597,-0.183,-0.459
540,-0.082,0.043,-0.009,0.173,-0.954,0.011,0.58,-0.172,-0.465
541,-0.086,0.006,-0.011,0.168,-0.954,0.013,0.58,-0.172,-0.465
542,-0.096,-0.037,-0.011,0.164,-0.958,0.031,0.589,-0.18,-0.435
543,-0.109,-0.067,-0.007,0.164,-0.964,0.032,0.589,-0.18,-0.435
544,-0.119,-0.086,0.002,0.167,-0.979,0.021,0.597,-0.18,-0.432
545,-0.119,-0.086,0.002,0.174,-0.998,0.015,0.58,-0.175,-0.454
546,-0.128,-0.094,0.011,0.174,-1.009,0.005,0.6,-0.19,-0.465
547,-0.133,-0.088,0.017,0.167,-1.01,0.004,0.612,-0.18,-0.468
548,-0.144,-0.07,0.011,0.165,-0.999,0.005,0.612,-0.18,-0.468
549,-0.155,-0.044,0.0,0.171,-0.991,0.004,0.583,-0.189,-0.474
550,-0.165,-0.044,-0.011,0.183,-0.991,0.009,0.583,-0.168,-0.463
551,-0.179,-0.053,-0.018,0.191,-0.992,0.009,0.582,-0.195,-0.477
552,-0.194,-0.044,-0.024,0.188,-0.993,0.0,0.595,-0.18,-0.451
553,-0.209,-0.028,-0.03,0.177,-0.996,0.0,0.585,-0.174,-0.463
554,-0.226,-0.03,-0.035,0.166,-0.994,0.008,0.61,-0.183,-0.447
555,-0.242,-0.037,-0.037,0.158,-0.997,0.01,0.61,-0.183,-0.447
556,-0.254,-0.025,-0.038,0.154,-1.0,0.006,0.571,-0.168,-0.468
557,-0.264,-0.031,-0.035,0.151,-1.0,0.009,0.571,-0.168,-0.468
558,-0.277,-0.039,-0.034,0.152,-1.0,0.015,0.576,-0.178,-0.472
559,-0.289,-0.053,-0.03,0.149,-1.003,0.026,0.592,-0.183,-0.486
560,-0.301,-0.079,-0.03,0.149,-1.003,0.026,0.586,-0.172,-0.474
561,-0.317,-0.107,-0.028,0.135,-1.008,0.03,0.577,-0.175,-0.492
562,-0.336,-0.134,-0.028,0.116,-1.01,0.025,0.577,-0.175,-0.492
563,-0.357,-0.154,-0.03,0.094,-1.014,0.018,0.606,-0.181,-0.481
564,-0.379,-0.163,-0.035,0.071,-1.018,0.005,0.583,-0.175,-0.468
565,-0.379,-0.163,-0.035,0.053,-1.02,-0.008,0.591,-0.156,-0.477
566,-0.4,-0.179,-0.038,0.035,-1.021,-0.01,0.6,-0.16,-0.493
567,-0.41,-0.207,-0.042,0.013,-1.024,-0.016,0.597,-0.181,-0.484
568,-0.398,-0.21,-0.05,-0.019,-1.045,-0.003,0.597,-0.181,-0.484
569,-0.428,-0.255,-0.07,-0.041,-1.047,-0.006,0.591,-0.163,-0.486
570,-0.47,-0.283,-0.121,-0.054,-1.032,-0.032,0.585,-0.162,-0.49
571,-0.482,-0.329,-0.157,-0.083,-1.047,0.019,0.582,-0.157,-0.514
572,-0.464,-0.364,-0.179,-0.045,-1.013,0.008,0.607,-0.165,-0.502
573,-0.45,-0.471,-0.212,-0.045,-0.996,0.033,0.601,-0.141,-0.51
574,-0.41,-0.612,-0.241,-0.07,-0.977,0.068,0.582,-0.16,-0.516
575,-0.343,-0.758,-0.266,-0.051,-0.94,0.043,0.582,-0.16,-0.516
576,-0.281,-0.863,-0.28,-0.013,-0.927,0.03,0.574,-0.138,-0.505
577,-0.214,-0.94,-0.282,0.015,-0.906,0.041,0.577,-0.148,-0.511
578,-0.129,-1.009,-0.294,0.028,-0.855,0.037,0.564,-0.141,-0.505
579,-0.025,-1.043,-0.298,0.028,-0.855,0.037,0.57,-0.126,-0.519
580,0.058,-1.024,-0.275,0.071,-0.831,0.042,0.556,-0.133,-0.516
581,0.112,-1.027,-0.266,0.14,-0.832,0.089,0.553,-0.129,-0.513
582,0.112,-1.027,-0.266,0.197,-0.831,0.139,0.553,-0.129,-0.513
583,0.164,-0.986,-0.235,0.232,-0.843,0.2,0.567,-0.12,-0.505
584,0.146,-0.935,-0.229,0.262,-0.884,0.27,0.562,-0.148,-0.489
585,0.07,-0.914,-0.242,0.262,-0.919,0.318,0.55,-0.139,-0.501
586,-0.018,-0.921,-0.252,0.233,-0.934,0.354,0.568,-0.147,-0.525
587,-0.097,-0.954,-0.267,0.217,-0.94,0.366,0.544,-0.132,-0.517
588,-0.177,-0.982,-0.288,0.204,-0.962,0.363,0.546,-0.135,-0.523
589,-0.263,-0.982,-0.309,0.196,-0.981,0.346,0.546,-0.135,-0.523
590,-0.326,-0.935,-0.322,0.182,-0.979,0.326,0.529,-0.153,-0.537
591,-0.367,-0.875,-0.334,0.172,-0.943,0.304,0.538,-0.135,-0.513
592,-0.379,-0.806,-0.349,0.179,-0.887,0.27,0.51,-0.135,-0.514
593,-0.374,-0.744,-0.364,0.176,-0.837,0.241,0.525,-0.126,-0.517
594,-0.333,-0.712,-0.372,0.174,-0.8,0.21,0.543,-0.127,-0.528
595,-0.282,-0.68,-0.364,0.183,-0.731,0.156,0.526,-0.151,-0.525
596,-0.198,-0.697,-0.36,0.173,-0.673,0.088,0.526,-0.151,-0.525
597,-0.1,-0.674,-0.375,0.163,-0.69,0.045,0.513,-0.135,-0.526
598,-0.021,-0.602,-0.384,0.179,-0.74,0.048,0.516,-0.132,-0.523
599,0.014,-0.526,-0.382,0.179,-0.74,0.048,0.519,-0.117,-0.525
600,0.018,-0.463,-0.373,0.194,-0.802,0.097,0.513,-0.124,-0.532
601,0.062,-0.426,-0.355,0.174,-0.833,0.143,0.51,-0.129,-0.511
602,0.062,-0.426,-0.355,0.131,-0.837,0.147,0.525,-0.135,-0.528
603,0.14,-0.389,-0.331,0.06,-0.851,0.14,0.525,-0.135,-0.528
604,0.219,-0.312,-0.294,0.046,-0.9,0.134,0.498,-0.115,-0.523
605,0.293,-0.243,-0.269,-0.064,-0.908,0.213,0.507,-0.13,-0.517
606,0.31,-0.212,-0.275,-0.033,-0.978,0.188,0.52,-0.117,-0.519
607,0.347,-0.214,-0.27,-0.026,-1.05,0.206,0.517,-0.139,-0.51
608,0.401,-0.296,-0.248,-0.029,-1.084,0.219,0.511,-0.123,-0.52
609,0.441,-0.377,-0.244,-0.032,-1.123,0.204,0.508,-0.133,-0.517
610,0.433,-0.399,-0.236,-0.044,-1.15,0.133,0.508,-0.133,-0.517
611,0.428,-0.324,-0.231,-0.068,-1.151,0.005,0.519,-0.138,-0.499
612,0.446,-0.217,-0.205,-0.097,-1.147,-0.057,0.495,-0.163,-0.507
613,0.407,-0.136,-0.184,-0.106,-1.142,-0.039,0.508,-0.16,-0.48
614,0.389,-0.102,-0.164,-0.102,-1.134,-0.03,0.514,-0.147,-0.504
615,0.364,-0.196,-0.133,-0.074,-1.113,0.037,0.511,-0.163,-0.498
616,0.322,-0.438,-0.099,-0.074,-1.113,0.037,0.511,-0.163,-0.498
617,0.247,-0.711,-0.068,-0.048,-1.108,0.132,0.517,-0.162,-0.495
618,0.181,-0.908,-0.026,-0.028,-1.105,0.12,0.487,-0.162,-0.49
619,0.142,-1.044,0.024,-0.003,-1.091,0.068,0.487,-0.162,-0.49
620,0.111,-1.137,0.086,-0.008,-1.076,0.055,0.505,-0.162,-0.496
621,0.111,-1.137,0.086,-0.002,-1.057,0.052,0.508,-0.132,-0.492
622,0.088,-1.216,0.15,0.025,-1.033,0.051,0.486,-0.166,-0.49
623,0.052,-1.311,0.21,0.034,-1.002,0.077,0.471,-0.171,-0.48
624,0.005,-1.409,0.257,0.038,-0.968,0.076,0.471,-0.171,-0.48
625,-0.028,-1.477,0.3,0.05,-0.939,0.049,0.48,-0.156,-0.487
626,-0.042,-1.546,0.337,0.058,-0.909,0.018,0.468,-0.151,-0.483
627,-0.033,-1.589,0.352,0.064,-0.881,-0.035,0.45,-0.154,-0.49
628,0.008,-1.552,0.348,0.05,-0.86,-0.064,0.447,-0.168,-0.468
629,0.047,-1.414,0.344,0.03,-0.854,-0.05,0.444,-0.153,-0.486
630,0.064,-1.225,0.326,0.033,-0.86,-0.026,0.444,-0.153,-0.486
631,0.057,-1.066,0.292,0.08,-0.895,0.05,0.435,-0.15,-0.468
632,0.023,-1.011,0.271,0.159,-0.937,0.117,0.411,-0.172,-0.46
633,0.037,-1.025,0.284,0.233,-0.934,0.052,0.411,-0.172,-0.46
634,0.088,-1.035,0.311,0.265,-0.903,-0.074,0.397,-0.147,-0.456
635,0.133,-0.981,0.316,0.265,-0.903,-0.074,0.405,-0.159,-0.448
636,0.184,-0.87,0.299,0.229,-0.88,-0.132,0.391,-0.157,-0.459
637,0.251,-0.766,0.255,0.166,-0.88,-0.057,0.391,-0.157,-0.459
638,0.282,-0.735,0.192,0.116,-0.913,0.062,0.399,-0.168,-0.439
639,0.282,-0.735,0.192,0.131,-0.992,0.094,0.405,-0.151,-0.442
640,0.389,-0.63,0.086,0.155,-1.137,0.125,0.381,-0.147,-0.451
641,0.389,-0.63,0.086,0.166,-1.37,0.189,0.39,-0.141,-0.456
642,0.355,-0.475,0.072,0.211,-1.61,0.271,0.378,-0.15,-0.444
643,0.18,-0.387,0.089,0.267,-1.709,0.397,0.387,-0.16,-0.45
644,-0.057,-0.362,0.128,0.331,-1.498,0.368,0.387,-0.16,-0.45
645,-0.192,-0.406,0.143,0.369,-1.161,0.215,0.382,-0.165,-0.421
646,-0.213,-0.431,0.211,0.35,-0.932,0.147,0.358,-0.156,-0.417
647,-0.208,-0.505,0.289,0.245,-0.77,0.145,0.358,-0.156,-0.417
648,-0.178,-0.565,0.317,0.134,-0.688,0.106,0.375,-0.159,-0.45
649,-0.112,-0.599,0.301,0.101,-0.698,0.078,0.37,-0.148,-0.447
650,-0.106,-0.636,0.266,0.132,-0.78,0.101,0.351,-0.147,-0.447
651,-0.097,-0.704,0.267,0.202,-0.863,0.051,0.351,-0.147,-0.447
652,-0.049,-0.713,0.254,0.209,-0.899,-0.036,0.36,-0.145,-0.442
653,-0.01,-0.686,0.211,0.147,-0.916,-0.042,0.355,-0.156,-0.442
654,-0.007,-0.672,0.154,0.13,-0.93,0.0,0.358,-0.142,-0.433
655,-0.039,-0.708,0.1,0.177,-0.931,0.039,0.348,-0.151,-0.427
656,-0.086,-0.787,0.065,0.177,-0.931,0.039,0.349,-0.148,-0.423
657,-0.133,-0.877,0.042,0.239,-0.946,0.067,0.348,-0.15,-0.42
658,-0.179,-0.953,0.029,0.272,-0.977,0.073,0.348,-0.15,-0.42
659,-0.222,-1.065,0.018,0.262,-1.012,0.076,0.352,-0.159,-0.412
660,-0.222,-1.065,0.018,0.234,-1.034,0.067,0.334,-0.147,-0.403
661,-0.261,-1.19,0.014,0.214,-1.048,0.037,0.334,-0.147,-0.403
662,-0.297,-1.32,0.011,0.196,-1.044,0.009,0.313,-0.156,-0.388
663,-0.301,-1.467,0.016,0.18,-1.017,-0.005,0.34,-0.159,-0.418
664,-0.296,-1.582,0.025,0.174,-0.984,-0.017,0.309,-0.138,-0.402
665,-0.285,-1.656,0.032,0.165,-0.955,-0.016,0.309,-0.138,-0.402
666,-0.294,-1.724,0.027,0.16,-0.934,-0.004,0.318,-0.153,-0.4
667,-0.308,-1.761,0.03,0.19,-0.909,-0.019,0.312,-0.144,-0.399
668,-0.312,-1.767,0.03,0.23,-0.886,-0.062,0.291,-0.159,-0.369
669,-0.331,-1.774,0.025,0.252,-0.887,-0.078,0.294,-0.13,-0.366
670,-0.34,-1.753,0.021,0.265,-0.914,-0.059,0.283,-0.145,-0.363
671,-0.349,-1.742,0.021,0.265,-0.932,-0.04,0.297,-0.144,-0.363
672,-0.361,-1.731,0.022,0.28,-0.934,-0.033,0.297,-0.144,-0.363
673,-0.364,-1.736,0.023,0.293,-0.92,-0.059,0.282,-0.147,-0.357
674,-0.381,-1.78,0.016,0.267,-0.922,-0.066,0.274,-0.126,-0.334
675,-0.375,-1.801,0.014,0.267,-0.955,-0.06,0.286,-0.148,-0.333
676,-0.383,-1.82,-0.001,0.232,-0.955,-0.06,0.277,-0.126,-0.333
677,-0.377,-1.857,-0.026,0.246,-0.951,-0.049,0.276,-0.13,-0.33
678,-0.38,-1.857,-0.032,0.283,-0.945,-0.022,0.282,-0.135,-0.309
679,-0.38,-1.857,-0.032,0.283,-0.935,-0.055,0.282,-0.135,-0.309
680,-0.388,-1.89,-0.038,0.298,-0.924,-0.107,0.262,-0.123,-0.319
681,-0.366,-1.859,-0.044,0.322,-0.948,-0.098,0.226,-0.132,-0.288
682,-0.324,-1.852,-0.03,0.332,-0.966,-0.066,0.226,-0.132,-0.288
683,-0.284,-1.764,-0.002,0.322,-0.947,-0.03,0.261,-0.124,-0.289
684,-0.279,-1.736,0.0,0.312,-0.919,0.022,0.255,-0.126,-0.288
685,-0.264,-1.705,-0.017,0.318,-0.951,0.008,0.238,-0.129,-0.274
686,-0.267,-1.645,0.014,0.28,-0.975,-0.005,0.238,-0.129,-0.274
687,-0.291,-1.618,0.015,0.269,-0.976,-0.01,0.247,-0.147,-0.252
688,-0.309,-1.601,0.021,0.276,-0.962,-0.034,0.268,-0.114,-0.237
689,-0.33,-1.579,0.01,0.298,-0.933,-0.054,0.243,-0.141,-0.25
690,-0.345,-1.539,-0.004,0.341,-0.939,-0.066,0.268,-0.135,-0.247
691,-0.359,-1.475,-0.007,0.348,-0.93,-0.051,0.265,-0.141,-0.255
692,-0.379,-1.42,-0.018,0.356,-0.908,-0.029,0.256,-0.133,-0.225
693,-0.39,-1.383,-0.03,0.38,-0.902,-0.008,0.258,-0.144,-0.237
694,-0.388,-1.376,-0.033,0.401,-0.897,-0.024,0.258,-0.144,-0.237
695,-0.38,-1.369,-0.037,0.401,-0.897,-0.024,0.232,-0.132,-0.201
696,-0.373,-1.338,-0.039,0.413,-0.895,-0.037,0.232,-0.132,-0.201
697,-0.367,-1.311,-0.044,0.409,-0.899,-0.038,0.252,-0.141,-0.201
698,-0.357,-1.294,-0.053,0.398,-0.901,-0.036,0.27,-0.147,-0.225
699,-0.357,-1.294,-0.053,0.397,-0.906,-0.03,0.267,-0.141,-0.204
700,-0.34,-1.286,-0.06,0.395,-0.908,-0.029,0.267,-0.141,-0.204
701,-0.326,-1.274,-0.07,0.379,-0.904,-0.046,0.261,-0.124,-0.198
702,-0.294,-1.245,-0.077,0.346,-0.908,-0.065,0.28,-0.142,-0.192
703,-0.272,-1.227,-0.081,0.337,-0.911,-0.039,0.265,-0.126,-0.174
704,-0.254,-1.179,-0.103,0.357,-0.899,-0.009,0.246,-0.136,-0.174
705,-0.236,-1.166,-0.1,0.365,-0.908,-0.002,0.28,-0.139,-0.187
706,-0.234,-1.148,-0.099,0.355,-0.919,-0.03,0.273,-0.154,-0.168
707,-0.239,-1.134,-0.099,0.354,-0.905,-0.047,0.273,-0.154,-0.168
708,-0.238,-1.103,-0.093,0.374,-0.91,-0.02,0.261,-0.144,-0.177
709,-0.249,-1.073,-0.098,0.388,-0.929,-0.001,0.255,-0.15,-0.127
710,-0.27,-1.039,-0.109,0.395,-0.939,-0.006,0.255,-0.15,-0.127
711,-0.289,-0.982,-0.108,0.392,-0.947,-0.029,0.262,-0.135,-0.162
712,-0.282,-0.941,-0.102,0.385,-0.952,-0.035,0.282,-0.141,-0.154
713,-0.291,-0.933,-0.102,0.386,-0.964,-0.018,0.283,-0.147,-0.159
714,-0.303,-0.919,-0.098,0.386,-0.981,-0.007,0.283,-0.147,-0.159
715,-0.305,-0.879,-0.091,0.386,-0.981,-0.007,0.291,-0.151,-0.153
716,-0.296,-0.814,-0.094,0.373,-0.986,0.0,0.285,-0.147,-0.144
717,-0.298,-0.788,-0.1,0.345,-0.973,0.017,0.264,-0.138,-0.147
718,-0.297,-0.78,-0.102,0.33,-0.96,0.015,0.297,-0.136,-0.145
719,-0.297,-0.78,-0.102,0.31,-0.947,0.016,0.298,-0.153,-0.13
720,-0.301,-0.759,-0.112,0.276,-0.929,0.039,0.301,-0.157,-0.132
721,-0.298,-0.74,-0.129,0.26,-0.922,0.055,0.301,-0.157,-0.132
722,-0.284,-0.735,-0.144,0.256,-0.923,0.054,0.297,-0.145,-0.129
723,-0.262,-0.717,-0.172,0.284,-0.92,0.029,0.301,-0.153,-0.118
724,-0.252,-0.707,-0.182,0.321,-0.91,0.008,0.313,-0.141,-0.121
725,-0.249,-0.683,-0.188,0.359,-0.908,-0.012,0.31,-0.157,-0.124
726,-0.24,-0.66,-0.185,0.386,-0.913,-0.03,0.324,-0.151,-0.133
727,-0.222,-0.634,-0.172,0.398,-0.916,-0.052,0.297,-0.153,-0.141
728,-0.21,-0.603,-0.154,0.387,-0.926,-0.07,0.297,-0.153,-0.141
729,-0.196,-0.558,-0.126,0.37,-0.95,-0.082,0.298,-0.16,-0.12
730,-0.194,-0.536,-0.092,0.33,-0.986,-0.067,0.312,-0.16,-0.12
731,-0.197,-0.476,-0.06,0.297,-1.024,-0.064,0.328,-0.166,-0.112
732,-0.21,-0.413,-0.035,0.266,-1.052,-0.06,0.324,-0.148,-0.132
733,-0.222,-0.385,-0.015,0.266,-1.052,-0.06,0.327,-0.148,-0.132
734,-0.235,-0.375,-0.008,0.184,-1.057,-0.009,0.321,-0.163,-0.105
735,-0.247,-0.338,-0.014,0.086,-1.051,0.051,0.321,-0.163,-0.105
736,-0.256,-0.308,-0.025,0.027,-1.047,0.101,0.319,-0.145,-0.091
737,-0.264,-0.289,-0.042,0.015,-1.042,0.13,0.319,-0.145,-0.091
738,-0.264,-0.289,-0.042,0.037,-1.038,0.133,0.319,-0.175,-0.115
739,-0.268,-0.283,-0.053,0.085,-1.029,0.111,0.321,-0.177,-0.121
740,-0.273,-0.297,-0.061,0.109,-1.018,0.101,0.339,-0.171,-0.121
741,-0.3,-0.31,-0.063,0.129,-1.014,0.083,0.334,-0.168,-0.115
742,-0.345,-0.323,-0.065,0.131,-1.001,0.076,0.334,-0.168,-0.115
743,-0.365,-0.296,-0.057,0.094,-0.988,0.121,0.322,-0.177,-0.127
744,-0.385,-0.333,-0.059,0.08,-0.981,0.144,0.312,-0.16,-0.117
745,-0.39,-0.358,-0.054,0.089,-0.976,0.139,0.325,-0.165,-0.114
746,-0.38,-0.41,-0.046,0.079,-0.973,0.142,0.328,-0.163,-0.129
747,-0.366,-0.474,-0.024,0.051,-0.974,0.151,0.33,-0.174,-0.138
748,-0.358,-0.532,0.006,0.04,-0.979,0.154,0.319,-0.172,-0.112
749,-0.352,-0.569,0.038,0.031,-0.98,0.152,0.319,-0.172,-0.112
750,-0.344,-0.6,0.06,0.023,-0.986,0.148,0.337,-0.174,-0.094
751,-0.352,-0.602,0.066,0.024,-0.987,0.146,0.337,-0.174,-0.094
752,-0.368,-0.573,0.049,0.034,-0.991,0.144,0.33,-0.171,-0.124
753,-0.394,-0.527,0.018,0.034,-0.991,0.144,0.348,-0.172,-0.127
754,-0.412,-0.479,-0.009,0.056,-0.994,0.15,0.343,-0.174,-0.115
755,-0.424,-0.429,-0.031,0.09,-0.995,0.172,0.333,-0.183,-0.129
756,-0.419,-0.4,-0.051,0.12,-0.988,0.186,0.333,-0.183,-0.129
757,-0.413,-0.373,-0.07,0.133,-0.962,0.191,0.337,-0.184,-0.111
758,-0.413,-0.373,-0.07,0.136,-0.938,0.197,0.337,-0.184,-0.111
759,-0.391,-0.359,-0.088,0.135,-0.911,0.195,0.327,-0.178,-0.126
760,-0.364,-0.36,-0.112,0.117,-0.883,0.206,0.345,-0.184,-0.117
761,-0.333,-0.373,-0.136,0.105,-0.865,0.213,0.354,-0.177,-0.124
762,-0.291,-0.396,-0.162,0.088,-0.849,0.211,0.345,-0.19,-0.13
763,-0.258,-0.427,-0.186,0.064,-0.842,0.21,0.345,-0.19,-0.13
764,-0.24,-0.455,-0.214,0.055,-0.839,0.197,0.357,-0.192,-0.117
765,-0.215,-0.476,-0.241,0.061,-0.847,0.182,0.339,-0.198,-0.111
766,-0.189,-0.469,-0.259,0.068,-0.867,0.178,0.354,-0.168,-0.127
767,-0.163,-0.446,-0.275,0.073,-0.882,0.176,0.349,-0.19,-0.115
768,-0.136,-0.399,-0.28,0.079,-0.892,0.169,0.357,-0.18,-0.123
769,-0.103,-0.353,-0.284,0.073,-0.89,0.174,0.375,-0.186,-0.135
770,-0.063,-0.322,-0.294,0.075,-0.89,0.184,0.375,-0.186,-0.135
771,-0.015,-0.319,-0.298,0.082,-0.902,0.204,0.355,-0.19,-0.096
772,0.014,-0.322,-0.309,0.105,-0.909,0.218,0.355,-0.19,-0.096
773,0.041,-0.325,-0.303,0.105,-0.909,0.218,0.367,-0.207,-0.124
774,0.078,-0.34,-0.287,0.132,-0.926,0.226,0.381,-0.208,-0.123
775,0.111,-0.331,-0.284,0.12,-0.933,0.22,0.364,-0.202,-0.123
776,0.147,-0.308,-0.278,0.111,-0.931,0.194,0.382,-0.195,-0.123
777,0.147,-0.308,-0.278,0.119,-0.935,0.19,0.382,-0.195,-0.123
778,0.172,-0.312,-0.269,0.122,-0.945,0.196,0.378,-0.196,-0.114
779,0.187,-0.327,-0.247,0.111,-0.955,0.205,0.381,-0.205,-0.118
780,0.191,-0.356,-0.218,0.087,-0.97,0.215,0.393,-0.192,-0.1
781,0.193,-0.378,-0.198,0.062,-0.987,0.214,0.39,-0.196,-0.097
782,0.216,-0.404,-0.176,0.051,-0.987,0.21,0.385,-0.18,-0.114
783,0.248,-0.428,-0.148,0.053,-0.986,0.222,0.397,-0.193,-0.103
784,0.279,-0.452,-0.121,0.078,-0.987,0.238,0.397,-0.193,-0.103
785,0.297,-0.455,-0.106,0.155,-0.995,0.229,0.393,-0.184,-0.087
786,0.34,-0.501,-0.047,0.212,-1.009,0.21,0.393,-0.184,-0.087
787,0.381,-0.569,0.004,0.225,-1.003,0.191,0.396,-0.21,-0.09
788,0.407,-0.595,0.033,0.236,-0.992,0.169,0.402,-0.186,-0.087
789,0.425,-0.588,0.055,0.243,-0.985,0.15,0.411,-0.187,-0.085
790,0.44,-0.569,0.056,0.229,-0.977,0.126,0.409,-0.178,-0.072
791,0.417,-0.534,0.041,0.205,-0.968,0.116,0.409,-0.178,-0.072
792,0.375,-0.52,0.023,0.205,-0.968,0.116,0.393,-0.196,-0.07
793,0.342,-0.504,-0.01,0.177,-0.943,0.119,0.406,-0.168,-0.063
794,0.294,-0.448,-0.063,0.129,-0.916,0.114,0.396,-0.192,-0.076
795,0.23,-0.361,-0.102,0.088,-0.922,0.107,0.421,-0.199,-0.066
796,0.211,-0.262,-0.135,0.047,-0.925,0.094,0.393,-0.186,-0.052
797,0.211,-0.262,-0.135,0.021,-0.926,0.071,0.399,-0.195,-0.084
798,0.188,-0.17,-0.171,0.022,-0.944,0.079,0.399,-0.195,-0.084
799,0.171,-0.105,-0.195,0.03,-0.956,0.109,0.411,-0.19,-0.048
800,0.177,-0.051,-0.203,0.048,-0.964,0.12,0.411,-0.19,-0.048
801,0.203,-0.009,-0.198,0.081,-0.972,0.128,0.409,-0.199,-0.064
802,0.249,-0.025,-0.179,0.11,-0.968,0.116,0.402,-0.183,-0.057
803,0.303,-0.049,-0.144,0.14,-0.967,0.087,0.42,-0.163,-0.072
804,0.333,-0.109,-0.114,0.173,-0.982,0.067,0.409,-0.172,-0.051
805,0.35,-0.174,-0.093,0.185,-0.994,0.035,0.409,-0.172,-0.051
806,0.357,-0.212,-0.077,0.203,-1.015,0.021,0.418,-0.174,-0.064
807,0.342,-0.216,-0.051,0.224,-1.042,0.03,0.42,-0.177,-0.058
808,0.318,-0.183,-0.018,0.236,-1.069,0.041,0.423,-0.192,-0.052
809,0.286,-0.109,0.016,0.223,-1.088,0.084,0.406,-0.181,-0.03
810,0.239,-0.045,0.042,0.186,-1.09,0.121,0.412,-0.18,-0.036
811,0.179,-0.003,0.052,0.155,-1.08,0.125,0.415,-0.19,-0.027
812,0.151,0.042,0.06,0.141,-1.062,0.117,0.415,-0.19,-0.027
813,0.137,0.059,0.062,0.141,-1.062,0.117,0.405,-0.177,-0.034
814,0.119,0.07,0.045,0.128,-1.034,0.094,0.405,-0.177,-0.034
815,0.086,0.068,0.019,0.103,-0.994,0.069,0.429,-0.178,-0.04
816,0.053,0.056,-0.002,0.091,-0.953,0.063,0.43,-0.189,-0.043
817,0.053,0.056,-0.002,0.103,-0.927,0.057,0.408,-0.184,-0.043
818,0.029,0.045,-0.017,0.114,-0.911,0.037,0.426,-0.16,-0.033
819,0.026,0.049,-0.026,0.113,-0.903,0.008,0.426,-0.16,-0.033
820,0.044,0.06,-0.027,0.113,-0.896,-0.023,0.412,-0.19,-0.033
821,0.072,0.101,-0.028,0.119,-0.892,-0.049,0.42,-0.183,-0.048
822,0.099,0.133,-0.017,0.136,-0.894,-0.06,0.432,-0.187,-0.04
823,0.108,0.171,-0.007,0.153,-0.897,-0.049,0.405,-0.177,-0.031
824,0.101,0.193,0.004,0.149,-0.919,-0.025,0.402,-0.177,-0.028
825,0.091,0.208,0.017,0.122,-0.949,-0.005,0.412,-0.189,-0.042
826,0.087,0.227,0.02,0.082,-0.967,0.011,0.412,-0.189,-0.042
827,0.087,0.228,0.016,0.055,-0.981,0.031,0.411,-0.16,-0.016
828,0.087,0.2,0.011,0.053,-0.993,0.044,0.406,-0.166,-0.025
829,0.077,0.15,0.011,0.06,-1.004,0.041,0.412,-0.169,-0.043
830,0.063,0.1,0.02,0.062,-1.014,0.034,0.411,-0.16,-0.034
831,0.051,0.056,0.03,0.062,-1.014,0.034,0.409,-0.187,-0.031
832,0.037,0.032,0.032,0.069,-1.022,0.025,0.403,-0.171,-0.033
833,0.023,0.025,0.034,0.078,-1.036,0.016,0.403,-0.171,-0.033
834,0.023,0.03,0.037,0.085,-1.048,0.015,0.4,-0.162,-0.037
835,0.027,0.016,0.048,0.096,-1.042,0.024,0.4,-0.162,-0.037
836,0.026,0.007,0.06,0.111,-1.032,0.023,0.405,-0.168,-0.046
837,0.026,0.007,0.06,0.123,-1.018,0.011,0.417,-0.165,-0.034
838,0.023,0.011,0.074,0.126,-1.002,-0.002,0.409,-0.19,-0.033
839,0.024,0.025,0.081,0.125,-0.989,-0.014,0.402,-0.195,-0.051
840,0.021,0.039,0.083,0.127,-0.964,-0.02,0.402,-0.195,-0.051
841,0.025,0.06,0.074,0.128,-0.942,-0.022,0.387,-0.18,-0.025
842,0.031,0.077,0.06,0.13,-0.936,-0.024,0.421,-0.165,-0.022
843,0.043,0.104,0.048,0.133,-0.942,-0.028,0.417,-0.169,-0.039
844,0.054,0.129,0.039,0.133,-0.956,-0.028,0.411,-0.178,-0.033
845,0.071,0.151,0.035,0.132,-0.961,-0.033,0.4,-0.172,-0.042
846,0.09,0.155,0.032,0.132,-0.958,-0.03,0.399,-0.189,-0.042
847,0.097,0.133,0.034,0.128,-0.96,-0.021,0.399,-0.189,-0.042
848,0.098,0.113,0.036,0.122,-0.961,-0.017,0.406,-0.153,-0.028
849,0.095,0.098,0.035,0.115,-0.961,-0.014,0.384,-0.181,-0.039
850,0.094,0.081,0.032,0.113,-0.963,-0.012,0.384,-0.181,-0.039
851,0.085,0.06,0.028,0.115,-0.968,-0.011,0.397,-0.166,-0.037
852,0.071,0.049,0.025,0.115,-0.968,-0.011,0.394,-0.175,-0.04
853,0.06,0.051,0.025,0.119,-0.976,-0.012,0.399,-0.169,-0.028
854,0.056,0.056,0.023,0.121,-0.983,-0.011,0.399,-0.169,-0.028
855,0.056,0.042,0.024,0.122,-0.987,-0.003,0.388,-0.169,-0.018
856,0.056,0.042,0.024,0.13,-0.991,0.005,0.388,-0.177,-0.03
857,0.056,0.007,0.028,0.136,-0.993,0.0,0.397,-0.184,-0.03
858,0.054,-0.025,0.035,0.134,-0.997,-0.008,0.402,-0.171,-0.052
859,0.051,-0.046,0.039,0.135,-1.003,-0.008,0.408,-0.166,-0.04
860,0.051,-0.058,0.038,0.146,-1.005,-0.013,0.394,-0.174,-0.049
861,0.043,-0.072,0.034,0.159,-0.997,-0.03,0.409,-0.157,-0.051
862,0.033,-0.075,0.03,0.162,-0.99,-0.042,0.409,-0.157,-0.051
863,0.024,-0.054,0.023,0.161,-0.988,-0.046,0.402,-0.175,-0.034
864,0.018,-0.048,0.019,0.162,-0.983,-0.044,0.402,-0.175,-0.034
865,0.011,-0.039,0.016,0.166,-0.981,-0.036,0.384,-0.156,-0.027
866,0.009,-0.034,0.016,0.174,-0.983,-0.031,0.403,-0.165,-0.031
867,0.011,-0.037,0.018,0.181,-0.981,-0.029,0.394,-0.154,-0.034
868,0.014,-0.048,0.021,0.188,-0.978,-0.035,0.394,-0.154,-0.034
869,0.021,-0.057,0.025,0.187,-0.974,-0.045,0.391,-0.172,-0.027
870,0.028,-0.058,0.026,0.178,-0.971,-0.05,0.406,-0.154,-0.034
871,0.028,-0.056,0.022,0.175,-0.968,-0.046,0.406,-0.174,-0.027
872,0.025,-0.055,0.015,0.175,-0.968,-0.046,0.394,-0.156,-0.025
873,0.018,-0.054,0.011,0.174,-0.966,-0.041,0.402,-0.16,-0.037
874,0.014,-0.044,0.005,0.173,-0.966,-0.037,0.391,-0.156,-0.01
875,0.014,-0.044,0.005,0.175,-0.968,-0.041,0.402,-0.154,-0.028
876,0.013,-0.032,0.003,0.179,-0.972,-0.042,0.402,-0.154,-0.028
877,0.011,-0.028,0.004,0.181,-0.97,-0.04,0.397,-0.145,-0.03
878,0.009,-0.026,0.007,0.178,-0.971,-0.04,0.397,-0.145,-0.03
879,0.009,-0.023,0.009,0.176,-0.977,-0.039,0.397,-0.172,-0.037
880,0.007,-0.019,0.009,0.174,-0.978,-0.043,0.399,-0.165,-0.024
881,0.009,-0.013,0.007,0.166,-0.975,-0.046,0.411,-0.165,-0.045
882,0.007,-0.01,0.002,0.154,-0.967,-0.04,0.411,-0.165,-0.045
883,0.003,-0.014,-0.003,0.151,-0.965,-0.035,0.391,-0.162,-0.036
884,0.0,-0.016,-0.009,0.152,-0.972,-0.036,0.399,-0.165,-0.021
885,-0.002,-0.021,-0.011,0.158,-0.978,-0.037,0.384,-0.153,-0.039
886,-0.002,-0.027,-0.01,0.172,-0.979,-0.041,0.381,-0.159,-0.03
887,-0.001,-0.028,-0.004,0.176,-0.978,-0.049,0.418,-0.175,-0.051
888,0.0,-0.018,-0.002,0.163,-0.975,-0.048,0.394,-0.172,-0.031
889,0.0,-0.007,-0.004,0.153,-0.975,-0.034,0.409,-0.169,-0.046
890,-0.002,-0.005,-0.004,0.153,-0.98,-0.022,0.409,-0.169,-0.046
891,-0.009,-0.011,-0.004,0.153,-0.98,-0.022,0.381,-0.172,-0.012
892,-0.012,-0.021,-0.003,0.154,-0.985,-0.02,0.381,-0.172,-0.012
893,-0.014,-0.03,-0.002,0.157,-0.988,-0.022,0.406,-0.165,-0.022
894,-0.013,-0.034,-0.002,0.157,-0.982,-0.027,0.379,-0.163,-0.045
895,-0.013,-0.034,-0.002,0.151,-0.973,-0.028,0.414,-0.168,-0.037
896,-0.013,-0.03,-0.004,0.146,-0.971,-0.026,0.414,-0.168,-0.037
897,-0.012,-0.027,-0.005,0.148,-0.975,-0.032,0.39,-0.145,-0.024
898,-0.012,-0.025,-0.006,0.151,-0.975,-0.034,0.391,-0.153,-0.03
899,-0.01,-0.026,-0.005,0.157,-0.968,-0.031,0.381,-0.144,-0.025
900,-0.007,-0.025,-0.004,0.161,-0.961,-0.031,0.396,-0.169,-0.025
901,-0.008,-0.029,-0.004,0.158,-0.963,-0.035,0.4,-0.165,-0.046
902,-0.007,-0.025,-0.004,0.155,-0.972,-0.036,0.403,-0.162,-0.021
903,-0.005,-0.019,-0.005,0.154,-0.975,-0.033,0.391,-0.168,-0.021
904,-0.004,-0.021,-0.007,0.155,-0.973,-0.025,0.391,-0.168,-0.021
905,-0.004,-0.026,-0.009,0.152,-0.971,-0.025,0.396,-0.168,-0.013
906,-0.005,-0.032,-0.011,0.148,-0.972,-0.028,0.396,-0.168,-0.013
907,-0.006,-0.028,-0.013,0.144,-0.975,-0.032,0.39,-0.16,-0.045
908,-0.008,-0.015,-0.016,0.144,-0.979,-0.035,0.397,-0.159,-0.019
909,-0.008,-0.009,-0.018,0.149,-0.981,-0.031,0.4,-0.145,-0.028
910,-0.011,-0.014,-0.018,0.15,-0.979,-0.028,0.396,-0.163,-0.034
911,-0.013,-0.021,-0.016,0.15,-0.979,-0.028,0.396,-0.163,-0.034
912,-0.012,-0.018,-0.015,0.148,-0.974,-0.029,0.379,-0.174,0.0
913,-0.013,-0.021,-0.015,0.145,-0.975,-0.032,0.379,-0.174,0.0
914,-0.014,-0.023,-0.016,0.142,-0.979,-0.034,0.405,-0.175,-0.034
915,-0.016,-0.023,-0.016,0.143,-0.977,-0.037,0.397,-0.171,-0.043
916,-0.016,-0.023,-0.016,0.14,-0.975,-0.037,0.414,-0.163,-0.04
917,-0.016,-0.019,-0.017,0.144,-0.968,-0.032,0.414,-0.163,-0.04
918,-0.017,-0.018,-0.017,0.148,-0.966,-0.031,0.399,-0.163,-0.028
919,-0.019,-0.016,-0.016,0.146,-0.975,-0.032,0.4,-0.156,-0.024
920,-0.022,-0.017,-0.014,0.147,-0.973,-0.033,0.396,-0.174,-0.036
921,-0.025,-0.021,-0.011,0.147,-0.969,-0.035,0.393,-0.16,-0.049
922,-0.026,-0.02,-0.01,0.143,-0.971,-0.036,0.39,-0.159,-0.021
923,-0.024,-0.014,-0.009,0.14,-0.974,-0.033,0.394,-0.177,-0.055
924,-0.023,-0.01,-0.01,0.143,-0.972,-0.031,0.394,-0.177,-0.055
925,-0.024,-0.011,-0.01,0.145,-0.971,-0.031,0.399,-0.168,-0.039
926,-0.025,-0.013,-0.009,0.145,-0.971,-0.033,0.4,-0.163,-0.009
927,-0.025,-0.008,-0.011,0.145,-0.971,-0.035,0.4,-0.163,-0.009
928,-0.023,-0.007,-0.011,0.146,-0.971,-0.033,0.405,-0.169,-0.024
929,-0.021,-0.004,-0.014,0.146,-0.97,-0.031,0.411,-0.171,-0.025
930,-0.02,0.0,-0.014,0.146,-0.97,-0.031,0.411,-0.177,-0.045
931,-0.019,0.004,-0.015,0.146,-0.97,-0.032,0.394,-0.19,-0.037
932,-0.018,0.005,-0.014,0.146,-0.973,-0.031,0.394,-0.19,-0.037
933,-0.02,0.003,-0.014,0.143,-0.975,-0.029,0.403,-0.171,-0.022
934,-0.021,0.004,-0.014,0.141,-0.976,-0.027,0.405,-0.16,-0.031
935,-0.021,0.004,-0.014,0.141,-0.977,-0.025,0.391,-0.165,-0.024
936,-0.021,0.006,-0.014,0.139,-0.978,-0.026,0.406,-0.169,-0.027
937,-0.022,0.004,-0.015,0.137,-0.976,-0.025,0.405,-0.163,-0.034
938,-0.024,0.008,-0.016,0.136,-0.973,-0.023,0.405,-0.163,-0.034
939,-0.028,0.011,-0.019,0.137,-0.973,-0.022,0.409,-0.172,-0.034
940,-0.03,0.014,-0.02,0.138,-0.975,-0.02,0.375,-0.166,-0.024
941,-0.029,0.014,-0.02,0.139,-0.978,-0.016,0.375,-0.166,-0.024
942,-0.028,0.012,-0.018,0.138,-0.978,-0.016,0.421,-0.162,-0.027
943,-0.028,0.011,-0.018,0.141,-0.976,-0.018,0.396,-0.178,-0.021
944,-0.03,0.012,-0.018,0.144,-0.974,-0.02,0.402,-0.172,-0.028
945,-0.03,0.016,-0.017,0.14,-0.975,-0.021,0.402,-0.172,-0.028
946,-0.03,0.022,-0.017,0.137,-0.973,-0.018,0.42,-0.174,-0.039
947,-0.026,0.033,-0.018,0.136,-0.974,-0.012,0.388,-0.171,-0.042
948,-0.027,0.027,-0.015,0.137,-0.977,-0.01,0.391,-0.156,-0.039
949,-0.028,0.023,-0.014,0.135,-0.975,-0.011,0.397,-0.169,-0.039
950,-0.026,0.022,-0.013,0.135,-0.973,-0.011,0.403,-0.171,-0.033
951,-0.027,0.025,-0.014,0.13,-0.973,-0.011,0.399,-0.168,-0.039
952,-0.028,0.028,-0.016,0.132,-0.972,-0.012,0.393,-0.175,-0.048
953,-0.028,0.028,-0.016,0.138,-0.972,-0.011,0.393,-0.175,-0.048
954,-0.028,0.026,-0.016,0.136,-0.971,-0.009,0.394,-0.172,-0.034
955,-0.028,0.026,-0.016,0.132,-0.972,-0.008,0.394,-0.172,-0.034
956,-0.025,0.025,-0.018,0.134,-0.975,-0.008,0.399,-0.183,-0.034
957,-0.023,0.025,-0.018,0.133,-0.978,-0.005,0.412,-0.174,-0.034
958,-0.023,0.028,-0.018,0.133,-0.978,-0.004,0.412,-0.178,-0.046
959,-0.021,0.025,-0.018,0.135,-0.979,-0.006,0.412,-0.178,-0.046
960,-0.018,0.025,-0.016,0.137,-0.983,-0.007,0.396,-0.175,-0.043
961,-0.016,0.036,-0.017,0.135,-0.982,-0.003,0.402,-0.171,-0.04
962,-0.014,0.03,-0.016,0.131,-0.979,-0.001,0.388,-0.175,-0.022
963,-0.014,0.027,-0.016,0.131,-0.978,-0.003,0.399,-0.169,-0.06
964,-0.014,0.028,-0.016,0.13,-0.98,-0.001,0.396,-0.166,-0.03
965,-0.014,0.029,-0.017,0.126,-0.98,0.0,0.402,-0.157,-0.037
966,-0.015,0.028,-0.018,0.125,-0.976,0.0,0.402,-0.157,-0.037
967,-0.018,0.027,-0.018,0.127,-0.973,0.0,0.393,-0.157,-0.04
968,-0.021,0.021,-0.014,0.131,-0.975,-0.001,0.4,-0.166,-0.03
969,-0.02,0.021,-0.013,0.131,-0.975,-0.001,0.402,-0.174,-0.039
970,-0.018,0.017,-0.011,0.129,-0.978,0.0,0.403,-0.18,-0.054
971,-0.021,0.013,-0.011,0.126,-0.976,0.0,0.408,-0.162,-0.042
972,-0.023,0.011,-0.011,0.126,-0.975,0.0,0.384,-0.174,-0.034
973,-0.023,0.011,-0.011,0.13,-0.975,0.001,0.384,-0.174,-0.034
974,-0.021,0.013,-0.013,0.13,-0.975,0.001,0.384,-0.174,-0.034
975,-0.02,0.011,-0.014,0.129,-0.978,0.002,0.39,-0.171,-0.031
976,-0.02,0.01,-0.013,0.131,-0.981,0.003,0.385,-0.174,-0.028
977,-0.022,0.007,-0.014,0.133,-0.978,0.001,0.4,-0.172,-0.037
978,-0.021,0.003,-0.014,0.133,-0.974,-0.001,0.376,-0.166,-0.039
979,-0.021,0.006,-0.014,0.132,-0.975,0.0,0.402,-0.174,-0.054
980,-0.021,0.008,-0.014,0.133,-0.978,0.0,0.402,-0.174,-0.054
981,-0.02,0.009,-0.014,0.132,-0.977,0.003,0.387,-0.169,-0.051
982,-0.019,0.011,-0.014,0.128,-0.976,0.014,0.387,-0.166,-0.033
983,-0.021,0.006,-0.014,0.129,-0.976,0.017,0.402,-0.163,-0.042
984,-0.023,0.0,-0.013,0.131,-0.974,0.015,0.391,-0.169,-0.052
985,-0.025,-0.004,-0.012,0.132,-0.974,0.016,0.399,-0.166,-0.045
986,-0.021,-0.004,-0.013,0.134,-0.974,0.014,0.406,-0.165,-0.036
987,-0.016,-0.007,-0.013,0.133,-0.971,0.015,0.406,-0.165,-0.036
988,-0.014,-0.009,-0.013,0.132,-0.973,0.017,0.406,-0.171,-0.046
989,-0.014,-0.005,-0.013,0.133,-0.977,0.015,0.382,-0.184,-0.025
990,-0.012,-0.004,-0.012,0.133,-0.977,0.015,0.382,-0.184,-0.025
991,-0.011,-0.007,-0.011,0.132,-0.975,0.018,0.393,-0.174,-0.034
992,-0.011,-0.006,-0.009,0.137,-0.973,0.016,0.409,-0.159,-0.055
993,-0.011,-0.006,-0.009,0.14,-0.974,0.013,0.391,-0.18,-0.052
994,-0.011,-0.005,-0.009,0.14,-0.973,0.01,0.403,-0.175,-0.054
995,-0.011,-0.006,-0.009,0.14,-0.971,0.006,0.403,-0.175,-0.054
996,-0.012,0.006,-0.011,0.138,-0.97,0.008,0.376,-0.165,-0.018
997,-0.011,0.01,-0.011,0.139,-0.97,0.013,0.402,-0.186,-0.049
998,-0.011,0.009,-0.014,0.143,-0.971,0.021,0.412,-0.174,-0.055
999,-0.015,0.004,-0.013,0.144,-0.971,0.023,0.393,-0.154,-0.024
1000,-0.016,0.0,-0.012,0.141,-0.975,0.021,0.408,-0.169,-0.06
1001,-0.016,-0.002,-0.012,0.14,-0.982,0.02,0.408,-0.169,-0.06
1002,-0.014,-0.001,-0.011,0.139,-0.985,0.02,0.376,-0.168,-0.043
1003,-0.013,0.001,-0.011,0.136,-0.982,0.019,0.378,-0.159,-0.028
1004,-0.012,0.004,-0.011,0.132,-0.98,0.019,0.378,-0.159,-0.028
1005,-0.016,0.004,-0.011,0.128,-0.979,0.022,0.405,-0.183,-0.033
1006,-0.018,0.001,-0.011,0.126,-0.979,0.025,0.391,-0.148,-0.046
1007,-0.021,-0.006,-0.012,0.126,-0.977,0.025,0.403,-0.147,-0.028
1008,-0.023,-0.004,-0.011,0.127,-0.977,0.023,0.399,-0.162,-0.045
1009,-0.023,0.0,-0.011,0.125,-0.975,0.016,0.399,-0.162,-0.045
1010,-0.021,0.007,-0.012,0.126,-0.973,0.017,0.393,-0.181,-0.03
1011,-0.02,0.004,-0.011,0.128,-0.97,0.021,0.397,-0.156,-0.054
1012,-0.021,0.0,-0.01,0.133,-0.97,0.023,0.405,-0.165,-0.057
1013,-0.021,0.0,-0.01,0.136,-0.972,0.021,0.409,-0.178,-0.049
1014,-0.021,0.0,-0.009,0.135,-0.974,0.016,0.432,-0.171,-0.058
1015,-0.019,0.004,-0.009,0.133,-0.974,0.015,0.432,-0.171,-0.058
1016,-0.017,0.003,-0.009,0.136,-0.976,0.018,0.403,-0.174,-0.043
1017,-0.015,0.003,-0.01,0.137,-0.974,0.021,0.394,-0.174,-0.042
1018,-0.016,0.001,-0.011,0.134,-0.971,0.019,0.394,-0.174,-0.042
1019,-0.016,-0.001,-0.011,0.13,-0.973,0.016,0.411,-0.163,-0.043
1020,-0.014,0.0,-0.012,0.13,-0.976,0.019,0.409,-0.169,-0.051
1021,-0.012,0.003,-0.014,0.133,-0.977,0.023,0.391,-0.18,-0.037
1022,-0.011,0.0,-0.013,0.134,-0.975,0.022,0.406,-0.175,-0.061
1023,-0.012,-0.001,-0.012,0.134,-0.973,0.02,0.406,-0.175,-0.061
1024,-0.009,-0.006,-0.011,0.131,-0.973,0.022,0.396,-0.18,-0.048
1025,-0.007,0.0,-0.012,0.13,-0.976,0.026,0.405,-0.172,-0.048
1026,-0.004,0.0,-0.012,0.134,-0.978,0.028,0.411,-0.181,-0.051
1027,-0.004,-0.002,-0.011,0.134,-0.978,0.028,0.408,-0.171,-0.057
1028,-0.004,0.0,-0.009,0.135,-0.978,0.025,0.4,-0.174,-0.039
1029,-0.003,0.007,-0.01,0.132,-0.973,0.024,0.4,-0.174,-0.039
1030,-0.002,0.011,-0.01,0.13,-0.972,0.026,0.387,-0.174,-0.043
1031,0.0,0.014,-0.01,0.132,-0.976,0.028,0.394,-0.178,-0.034
1032,0.0,0.009,-0.008,0.133,-0.979,0.026,0.394,-0.178,-0.034
1033,0.0,0.009,-0.008,0.135,-0.979,0.024,0.411,-0.18,-0.049
1034,0.0,0.011,-0.008,0.134,-0.977,0.026,0.415,-0.19,-0.036
1035,0.003,0.011,-0.007,0.132,-0.978,0.029,0.397,-0.151,-0.045
1036,0.002,0.007,-0.005,0.131,-0.979,0.029,0.397,-0.151,-0.045
1037,-0.001,0.005,-0.005,0.128,-0.977,0.029,0.409,-0.177,-0.049
1038,-0.002,0.002,-0.003,0.129,-0.975,0.028,0.394,-0.16,-0.033
1039,-0.009,0.006,-0.004,0.129,-0.974,0.023,0.394,-0.172,-0.042
1040,-0.01,0.008,-0.003,0.128,-0.974,0.022,0.397,-0.175,-0.049
1041,-0.01,0.011,-0.002,0.131,-0.978,0.028,0.409,-0.181,-0.046
1042,-0.01,0.017,-0.002,0.134,-0.981,0.031,0.406,-0.157,-0.054
1043,-0.009,0.022,0.0,0.134,-0.981,0.032,0.405,-0.166,-0.058
1044,-0.005,0.024,-0.002,0.133,-0.976,0.028,0.405,-0.166,-0.058
1045,-0.004,0.018,-0.004,0.134,-0.973,0.021,0.408,-0.168,-0.036
1046,-0.004,0.021,-0.008,0.137,-0.971,0.015,0.408,-0.168,-0.036
1047,-0.002,0.023,-0.011,0.137,-0.967,0.012,0.403,-0.178,-0.036
1048,0.0,0.024,-0.012,0.137,-0.967,0.012,0.391,-0.166,-0.061
1049,0.002,0.028,-0.014,0.137,-0.967,0.011,0.403,-0.198,-0.06
1050,0.004,0.03,-0.014,0.141,-0.965,0.009,0.403,-0.198,-0.06
1051,0.005,0.033,-0.013,0.141,-0.965,0.011,0.379,-0.171,-0.046
1052,0.005,0.033,-0.013,0.137,-0.968,0.013,0.399,-0.171,-0.045
1053,0.007,0.035,-0.012,0.135,-0.971,0.017,0.399,-0.171,-0.045
1054,0.007,0.034,-0.009,0.133,-0.975,0.02,0.393,-0.181,-0.042
1055,0.008,0.032,-0.009,0.128,-0.977,0.02,0.393,-0.15,-0.036
1056,0.009,0.032,-0.009,0.122,-0.979,0.023,0.393,-0.174,-0.042
1057,0.009,0.03,-0.011,0.119,-0.981,0.027,0.406,-0.168,-0.037
1058,0.009,0.03,-0.012,0.119,-0.981,0.025,0.406,-0.168,-0.037
1059,0.009,0.03,-0.012,0.122,-0.976,0.024,0.399,-0.181,-0.034
1060,0.004,0.026,-0.012,0.127,-0.976,0.023,0.391,-0.171,-0.04
1061,0.002,0.025,-0.011,0.13,-0.977,0.021,0.396,-0.168,-0.048
1062,0.002,0.028,-0.01,0.133,-0.977,0.023,0.408,-0.153,-0.046
1063,0.002,0.029,-0.009,0.136,-0.979,0.024,0.415,-0.162,-0.058
1064,0.004,0.031,-0.008,0.135,-0.977,0.019,0.391,-0.18,-0.04
1065,0.007,0.032,-0.007,0.129,-0.976,0.019,0.391,-0.18,-0.04
1066,0.007,0.039,-0.009,0.124,-0.976,0.02,0.391,-0.181,-0.064
1067,0.008,0.043,-0.011,0.123,-0.977,0.018,0.397,-0.168,-0.061
1068,0.008,0.039,-0.011,0.123,-0.977,0.018,0.387,-0.168,-0.042
1069,0.008,0.034,-0.01,0.121,-0.976,0.023,0.411,-0.154,-0.03
1070,0.007,0.03,-0.009,0.12,-0.974,0.025,0.402,-0.184,-0.045
1071,0.007,0.03,-0.009,0.12,-0.973,0.023,0.402,-0.184,-0.045
1072,0.006,0.027,-0.011,0.118,-0.971,0.021,0.406,-0.189,-0.054
1073,0.006,0.025,-0.011,0.118,-0.973,0.018,0.409,-0.166,-0.042
1074,0.006,0.021,-0.011,0.119,-0.975,0.015,0.393,-0.174,-0.042
1075,0.005,0.023,-0.01,0.118,-0.976,0.016,0.388,-0.18,-0.06
1076,0.004,0.028,-0.01,0.114,-0.978,0.02,0.408,-0.19,-0.048
1077,0.003,0.03,-0.01,0.114,-0.976,0.024,0.405,-0.171,-0.052
1078,0.001,0.025,-0.011,0.116,-0.978,0.025,0.381,-0.159,-0.063
1079,0.0,0.016,-0.008,0.117,-0.981,0.022,0.381,-0.159,-0.063
1080,0.0,0.012,-0.007,0.117,-0.981,0.022,0.402,-0.168,-0.034
1081,0.001,0.011,-0.007,0.115,-0.984,0.023,0.402,-0.168,-0.034
1082,0.0,0.007,-0.009,0.116,-0.983,0.022,0.414,-0.162,-0.069
1083,0.0,0.004,-0.009,0.118,-0.979,0.02,0.406,-0.154,-0.048
1084,-0.002,0.004,-0.009,0.119,-0.978,0.017,0.409,-0.171,-0.049
1085,-0.002,0.007,-0.011,0.119,-0.978,0.018,0.409,-0.171,-0.049
1086,-0.002,0.011,-0.011,0.121,-0.977,0.019,0.4,-0.18,-0.07
1087,0.0,0.0,-0.011,0.121,-0.973,0.021,0.382,-0.172,-0.042
1088,-0.002,-0.003,-0.01,0.122,-0.973,0.023,0.376,-0.162,-0.058
1089,-0.002,-0.01,-0.008,0.122,-0.976,0.022,0.402,-0.181,-0.058
1090,-0.002,-0.01,-0.008,0.124,-0.978,0.02,0.379,-0.186,-0.064
1091,-0.002,-0.013,-0.008,0.123,-0.978,0.02,0.379,-0.186,-0.064
1092,-0.001,-0.009,-0.01,0.123,-0.979,0.019,0.382,-0.166,-0.039
1093,-0.003,-0.011,-0.011,0.124,-0.98,0.019,0.406,-0.153,-0.052
1094,-0.002,-0.013,-0.011,0.126,-0.981,0.019,0.4,-0.177,-0.043
1095,-0.005,-0.01,-0.012,0.126,-0.98,0.022,0.4,-0.177,-0.043
1096,-0.005,-0.01,-0.011,0.125,-0.977,0.025,0.414,-0.178,-0.06
1097,-0.007,-0.011,-0.011,0.127,-0.975,0.025,0.381,-0.175,-0.049
1098,-0.006,-0.011,-0.009,0.13,-0.973,0.026,0.381,-0.175,-0.049
1099,-0.006,-0.014,-0.009,0.132,-0.975,0.028,0.402,-0.163,-0.036
1100,-0.003,-0.013,-0.009,0.133,-0.975,0.028,0.39,-0.178,-0.049
1101,-0.002,-0.018,-0.009,0.133,-0.975,0.028,0.382,-0.181,-0.048
1102,-0.002,-0.013,-0.009,0.134,-0.975,0.026,0.397,-0.163,-0.052
1103,-0.002,-0.009,-0.01,0.135,-0.972,0.023,0.39,-0.174,-0.051
1104,0.0,-0.005,-0.01,0.134,-0.974,0.022,0.405,-0.172,-0.052
1105,0.002,0.0,-0.011,0.134,-0.974,0.022,0.405,-0.172,-0.052
1106,0.004,0.003,-0.014,0.131,-0.977,0.023,0.39,-0.171,-0.057
1107,0.002,0.002,-0.014,0.129,-0.978,0.027,0.408,-0.178,-0.063
1108,0.002,-0.003,-0.013,0.13,-0.975,0.028,0.403,-0.168,-0.036
1109,0.0,-0.005,-0.013,0.129,-0.972,0.024,0.403,-0.168,-0.036
1110,0.0,-0.005,-0.013,0.129,-0.971,0.025,0.39,-0.169,-0.04
1111,0.0,-0.004,-0.012,0.13,-0.974,0.024,0.397,-0.175,-0.046
1112,0.0,-0.002,-0.013,0.128,-0.977,0.023,0.397,-0.175,-0.046
1113,-0.001,-0.004,-0.011,0.128,-0.976,0.027,0.405,-0.183,-0.037
1114,-0.002,-0.008,-0.011,0.126,-0.978,0.028,0.39,-0.177,-0.051
1115,-0.002,-0.011,-0.011,0.124,-0.98,0.027,0.391,-0.169,-0.057
1116,-0.003,-0.008,-0.011,0.121,-0.98,0.03,0.387,-0.174,-0.039
1117,-0.002,-0.004,-0.011,0.12,-0.982,0.029,0.399,-0.189,-0.049
1118,-0.002,-0.005,-0.011,0.123,-0.983,0.028,0.409,-0.184,-0.042
1119,-0.002,-0.011,-0.01,0.127,-0.979,0.029,0.409,-0.184,-0.042
1120,-0.003,-0.014,-0.011,0.129,-0.975,0.026,0.388,-0.18,-0.048
1121,-0.004,-0.014,-0.01,0.131,-0.974,0.022,0.396,-0.177,-0.064
1122,-0.003,-0.007,-0.011,0.132,-0.974,0.023,0.394,-0.174,-0.046
1123,-0.003,-0.007,-0.01,0.132,-0.974,0.023,0.39,-0.166,-0.061
1124,-0.004,-0.009,-0.009,0.132,-0.974,0.023,0.406,-0.177,-0.057
1125,-0.005,-0.004,-0.011,0.132,-0.974,0.02,0.403,-0.18,-0.043
1126,-0.004,-0.002,-0.011,0.131,-0.974,0.021,0.403,-0.18,-0.043
1127,-0.004,-0.001,-0.012,0.13,-0.976,0.025,0.417,-0.183,-0.057
1128,-0.004,0.0,-0.012,0.129,-0.978,0.028,0.393,-0.187,-0.049
1129,-0.004,0.0,-0.012,0.128,-0.98,0.03,0.396,-0.174,-0.067
1130,-0.003,-0.001,-0.012,0.128,-0.98,0.031,0.4,-0.168,-0.057
1131,-0.003,-0.003,-0.012,0.127,-0.977,0.029,0.397,-0.18,-0.048
1132,-0.001,-0.002,-0.012,0.125,-0.975,0.028,0.405,-0.195,-0.046
1133,-0.002,-0.003,-0.011,0.124,-0.976,0.026,0.405,-0.195,-0.046
1134,-0.003,-0.004,-0.01,0.126,-0.976,0.024,0.406,-0.186,-0.058
1135,-0.003,-0.002,-0.009,0.125,-0.977,0.025,0.399,-0.177,-0.06
1136,0.0,0.011,-0.009,0.123,-0.977,0.026,0.396,-0.166,-0.025
1137,-0.002,0.006,-0.008,0.125,-0.974,0.025,0.39,-0.169,-0.042
1138,-0.003,0.003,-0.005,0.126,-0.977,0.025,0.391,-0.178,-0.058
1139,-0.004,0.005,-0.004,0.126,-0.979,0.028,0.402,-0.184,-0.061
1140,-0.004,0.004,-0.003,0.127,-0.979,0.028,0.402,-0.184,-0.061
1141,-0.004,0.007,-0.004,0.126,-0.98,0.025,0.406,-0.175,-0.037
1142,-0.005,0.006,-0.004,0.122,-0.978,0.022,0.381,-0.175,-0.067
1143,-0.005,0.011,-0.006,0.118,-0.978,0.023,0.379,-0.177,-0.03
1144,-0.005,0.009,-0.007,0.118,-0.98,0.026,0.379,-0.177,-0.03
1145,-0.002,0.009,-0.009,0.118,-0.98,0.026,0.411,-0.174,-0.037
1146,0.0,0.005,-0.011,0.118,-0.981,0.027,0.394,-0.195,-0.064
1147,-0.002,0.007,-0.01,0.117,-0.978,0.028,0.394,-0.195,-0.064
1148,-0.002,0.006,-0.011,0.117,-0.974,0.026,0.391,-0.186,-0.039
1149,-0.002,0.006,-0.011,0.117,-0.975,0.025,0.385,-0.183,-0.058
1150,0.0,0.009,-0.011,0.119,-0.974,0.026,0.388,-0.177,-0.04
1151,0.002,0.009,-0.011,0.121,-0.975,0.025,0.393,-0.171,-0.064
1152,0.003,0.009,-0.012,0.122,-0.976,0.025,0.408,-0.154,-0.06
1153,0.004,0.007,-0.012,0.121,-0.973,0.024,0.378,-0.18,-0.042
1154,0.005,0.002,-0.013,0.118,-0.974,0.022,0.378,-0.18,-0.042
1155,0.006,0.003,-0.013,0.115,-0.975,0.023,0.387,-0.159,-0.058
1156,0.004,0.002,-0.011,0.116,-0.972,0.026,0.405,-0.174,-0.046
1157,0.003,-0.002,-0.01,0.116,-0.974,0.031,0.379,-0.18,-0.046
1158,0.005,0.001,-0.011,0.117,-0.979,0.031,0.379,-0.18,-0.046
1159,0.005,0.002,-0.011,0.118,-0.98,0.029,0.4,-0.162,-0.04
1160,0.005,0.002,-0.01,0.117,-0.981,0.03,0.39,-0.169,-0.039
1161,0.002,0.004,-0.011,0.117,-0.979,0.03,0.39,-0.169,-0.039
1162,0.0,0.004,-0.011,0.118,-0.979,0.027,0.373,-0.189,-0.04
1163,-0.002,0.003,-0.01,0.12,-0.982,0.027,0.394,-0.172,-0.031
1164,-0.004,-0.002,-0.008,0.119,-0.983,0.03,0.39,-0.178,-0.06
1165,-0.004,-0.002,-0.007,0.119,-0.983,0.03,0.387,-0.156,-0.046
1166,-0.004,-0.003,-0.007,0.119,-0.978,0.03,0.399,-0.183,-0.066
1167,-0.003,-0.004,-0.006,0.121,-0.977,0.031,0.403,-0.178,-0.051
1168,-0.003,-0.004,-0.006,0.12,-0.98,0.032,0.403,-0.178,-0.051
1169,-0.003,-0.004,-0.007,0.122,-0.979,0.03,0.412,-0.184,-0.057
1170,-0.004,-0.002,-0.007,0.122,-0.978,0.03,0.406,-0.178,-0.043
1171,-0.004,-0.002,-0.009,0.12,-0.98,0.03,0.387,-0.171,-0.04
1172,-0.004,-0.004,-0.008,0.117,-0.979,0.029,0.387,-0.171,-0.04
1173,-0.004,-0.005,-0.009,0.113,-0.978,0.026,0.4,-0.172,-0.054
1174,-0.001,-0.005,-0.009,0.115,-0.979,0.025,0.399,-0.195,-0.048
1175,0.0,-0.006,-0.008,0.117,-0.978,0.027,0.399,-0.195,-0.048
1176,0.001,-0.007,-0.007,0.118,-0.975,0.029,0.406,-0.178,-0.045
1177,0.0,-0.011,-0.007,0.12,-0.972,0.03,0.396,-0.168,-0.052
1178,0.004,-0.004,-0.008,0.124,-0.973,0.027,0.414,-0.175,-0.06
1179,0.002,-0.007,-0.007,0.127,-0.977,0.024,0.385,-0.183,-0.049
1180,0.0,-0.01,-0.006,0.128,-0.978,0.024,0.384,-0.181,-0.054
1181,0.0,-0.009,-0.004,0.126,-0.977,0.025,0.39,-0.181,-0.054
1182,-0.001,-0.007,-0.007,0.122,-0.981,0.027,0.39,-0.181,-0.054
1183,-0.002,-0.004,-0.008,0.119,-0.982,0.031,0.391,-0.189,-0.043
1184,-0.002,-0.004,-0.009,0.119,-0.982,0.031,0.421,-0.165,-0.063
1185,-0.004,-0.016,-0.01,0.119,-0.982,0.033,0.393,-0.175,-0.06
1186,-0.004,-0.016,-0.011,0.119,-0.981,0.034,0.4,-0.181,-0.049
1187,-0.004,-0.013,-0.011,0.121,-0.976,0.032,0.391,-0.16,-0.06
1188,-0.004,-0.013,-0.011,0.123,-0.973,0.027,0.388,-0.166,-0.058
1189,-0.004,-0.008,-0.011,0.126,-0.973,0.024,0.388,-0.166,-0.058
1190,0.0,-0.002,-0.009,0.129,-0.976,0.027,0.405,-0.178,-0.042
1191,0.0,0.001,-0.007,0.127,-0.977,0.031,0.409,-0.189,-0.045
1192,0.001,0.0,-0.007,0.128,-0.977,0.034,0.388,-0.175,-0.06
1193,0.0,-0.002,-0.006,0.13,-0.977,0.032,0.399,-0.177,-0.054
1194,-0.002,-0.002,-0.007,0.125,-0.976,0.03,0.388,-0.174,-0.06
1195,-0.003,-0.005,-0.006,0.121,-0.976,0.031,0.394,-0.169,-0.057
1196,-0.002,-0.005,-0.007,0.122,-0.978,0.032,0.394,-0.169,-0.057
1197,-0.002,-0.004,-0.007,0.124,-0.978,0.03,0.393,-0.184,-0.039
1198,-0.001,-0.003,-0.008,0.125,-0.975,0.03,0.396,-0.187,-0.045
1199,0.0,-0.003,-0.008,0.128,-0.973,0.029,0.382,-0.181,-0.03
1200,-0.001,-0.001,-0.008,0.129,-0.974,0.027,0.402,-0.18,-0.049
1201,-0.002,0.002,-0.009,0.128,-0.975,0.026,0.396,-0.165,-0.037
1202,-0.003,0.002,-0.009,0.128,-0.975,0.029,0.405,-0.186,-0.058
1203,-0.005,0.0,-0.007,0.128,-0.977,0.03,0.405,-0.186,-0.058
1204,-0.008,-0.001,-0.008,0.128,-0.977,0.03,0.411,-0.184,-0.052
1205,-0.008,-0.002,-0.007,0.125,-0.978,0.031,0.406,-0.16,-0.048
1206,-0.004,-0.006,-0.009,0.121,-0.979,0.034,0.379,-0.172,-0.034
1207,-0.004,-0.006,-0.009,0.121,-0.981,0.034,0.399,-0.183,-0.06
1208,-0.006,-0.007,-0.007,0.125,-0.981,0.03,0.412,-0.174,-0.066
1209,-0.006,-0.008,-0.007,0.125,-0.98,0.029,0.399,-0.186,-0.04
1210,-0.006,-0.008,-0.006,0.123,-0.978,0.033,0.399,-0.186,-0.04
1211,-0.007,-0.009,-0.006,0.122,-0.976,0.036,0.4,-0.171,-0.051
1212,-0.009,-0.009,-0.007,0.121,-0.976,0.039,0.394,-0.172,-0.037
1213,-0.009,-0.01,-0.007,0.121,-0.976,0.038,0.391,-0.168,-0.046
1214,-0.007,-0.007,-0.008,0.12,-0.978,0.036,0.397,-0.181,-0.066
1215,-0.006,-0.007,-0.008,0.121,-0.98,0.035,0.393,-0.168,-0.054
1216,-0.006,-0.007,-0.009,0.121,-0.976,0.036,0.403,-0.169,-0.063
1217,-0.004,-0.007,-0.009,0.124,-0.973,0.038,0.403,-0.169,-0.063
1218,-0.003,-0.005,-0.008,0.128,-0.974,0.036,0.402,-0.181,-0.055
1219,-0.002,-0.009,-0.007,0.127,-0.973,0.035,0.397,-0.195,-0.04
1220,-0.003,-0.007,-0.007,0.126,-0.973,0.037,0.397,-0.195,-0.04
1221,-0.004,-0.004,-0.007,0.126,-0.975,0.036,0.397,-0.177,-0.042
1222,-0.004,-0.005,-0.008,0.126,-0.976,0.032,0.396,-0.169,-0.052
1223,-0.004,-0.004,-0.008,0.127,-0.976,0.032,0.402,-0.16,-0.055
1224,-0.006,-0.004,-0.008,0.126,-0.977,0.032,0.408,-0.181,-0.054
1225,-0.004,0.001,-0.009,0.123,-0.978,0.036,0.408,-0.181,-0.054
1226,-0.001,0.001,-0.009,0.121,-0.981,0.038,0.381,-0.178,-0.043
1227,-0.001,0.001,-0.009,0.119,-0.982,0.039,0.397,-0.165,-0.051
1228,0.0,0.0,-0.009,0.12,-0.98,0.039,0.403,-0.172,-0.057
1229,-0.003,-0.004,-0.009,0.12,-0.977,0.038,0.397,-0.169,-0.055
1230,-0.004,-0.006,-0.01,0.12,-0.976,0.036,0.397,-0.189,-0.064
1231,-0.004,-0.009,-0.01,0.119,-0.975,0.033,0.397,-0.189,-0.064
1232,-0.006,-0.01,-0.009,0.122,-0.974,0.034,0.406,-0.181,-0.054
1233,0.0,-0.012,-0.009,0.121,-0.974,0.031,0.388,-0.18,-0.052
1234,-0.002,-0.009,-0.007,0.119,-0.974,0.034,0.385,-0.16,-0.045
1235,-0.002,-0.004,-0.008,0.122,-0.974,0.036,0.411,-0.169,-0.042
1236,-0.002,-0.005,-0.008,0.125,-0.976,0.038,0.4,-0.174,-0.058
1237,-0.003,-0.007,-0.007,0.124,-0.976,0.039,0.411,-0.166,-0.055
1238,-0.003,-0.009,-0.006,0.123,-0.976,0.038,0.411,-0.166,-0.055
1239,-0.002,-0.007,-0.007,0.121,-0.978,0.033,0.394,-0.171,-0.063
1240,-0.003,-0.004,-0.008,0.121,-0.981,0.032,0.396,-0.177,-0.063
1241,-0.004,-0.001,-0.009,0.121,-0.981,0.032,0.402,-0.181,-0.052
1242,-0.004,-0.004,-0.01,0.121,-0.982,0.037,0.394,-0.162,-0.061
1243,-0.002,-0.006,-0.009,0.12,-0.981,0.038,0.397,-0.171,-0.051
1244,-0.003,-0.009,-0.009,0.118,-0.978,0.036,0.382,-0.168,-0.058
1245,-0.003,-0.009,-0.009,0.114,-0.976,0.035,0.382,-0.168,-0.058
1246,-0.004,-0.005,-0.009,0.112,-0.976,0.034,0.402,-0.157,-0.048
1247,-0.002,-0.004,-0.008,0.114,-0.976,0.035,0.402,-0.157,-0.048
1248,-0.002,-0.002,-0.008,0.116,-0.975,0.037,0.381,-0.169,-0.039
1249,-0.001,-0.008,-0.005,0.118,-0.974,0.037,0.403,-0.175,-0.058
1250,-0.001,-0.013,-0.004,0.119,-0.973,0.036,0.4,-0.172,-0.046
1251,0.0,-0.011,-0.005,0.119,-0.974,0.037,0.393,-0.177,-0.066
1252,0.0,-0.008,-0.006,0.119,-0.978,0.038,0.393,-0.177,-0.066
1253,0.001,-0.001,-0.008,0.122,-0.983,0.039,0.385,-0.169,-0.052
1254,0.002,-0.004,-0.009,0.126,-0.982,0.042,0.399,-0.162,-0.046
1255,0.001,-0.005,-0.008,0.133,-0.979,0.041,0.396,-0.163,-0.052
1256,-0.002,-0.004,-0.008,0.134,-0.978,0.037,0.382,-0.178,-0.04
1257,-0.002,-0.002,-0.007,0.129,-0.979,0.037,0.405,-0.175,-0.049
1258,-0.002,-0.001,-0.007,0.126,-0.98,0.039,0.405,-0.175,-0.06
1259,-0.004,0.0,-0.007,0.125,-0.979,0.037,0.405,-0.175,-0.06
