,Gyroscope X (deg/s),Gyroscope Y (deg/s),Gyroscope Z (deg/s),Accelerometer X (g),Accelerometer Y (g),Accelerometer Z (g),Magnetometer X (G),Magnetometer Y (G),Magnetometer Z (G)
0,0.003,-0.001,-0.007,-0.01,0.013,0.999,0.763,0.238,-0.513
1,0.003,-0.001,-0.007,-0.01,0.013,0.999,0.763,0.238,-0.513
2,0.003,-0.001,-0.007,-0.01,0.013,0.999,0.763,0.238,-0.513
3,0.003,-0.001,-0.007,-0.01,0.013,0.999,0.763,0.238,-0.513
4,0.003,-0.001,-0.004,-0.009,0.013,0.999,0.763,0.238,-0.513
5,0.003,-0.001,-0.004,-0.009,0.013,0.999,0.759,0.247,-0.508
6,0.003,-0.001,-0.005,-0.01,0.011,0.998,0.759,0.247,-0.508
7,0.003,-0.001,-0.006,-0.011,0.01,0.997,0.775,0.241,-0.516
8,0.003,-0.002,-0.006,-0.01,0.012,0.998,0.783,0.237,-0.507
9,0.002,-0.002,-0.007,-0.011,0.014,0.998,0.78,0.228,-0.525
10,0.001,-0.002,-0.005,-0.012,0.014,0.999,0.784,0.243,-0.507
11,0.002,-0.004,-0.006,-0.01,0.013,1.0,0.777,0.226,-0.499
12,0.002,0.0,-0.005,-0.008,0.012,1.0,0.778,0.249,-0.507
13,0.002,-0.002,-0.006,-0.009,0.014,0.999,0.775,0.255,-0.531
14,0.003,-0.002,-0.006,-0.011,0.016,0.999,0.772,0.232,-0.514
15,0.002,0.0,-0.006,-0.011,0.014,0.999,0.789,0.249,-0.516
16,0.002,-0.002,-0.006,-0.009,0.015,1.0,0.784,0.244,-0.516
17,0.002,-0.002,-0.006,-0.01,0.014,1.0,0.78,0.249,-0.51
18,0.002,-0.002,-0.006,-0.009,0.014,0.999,0.76,0.226,-0.52
19,0.002,-0.001,-0.006,-0.01,0.013,1.001,0.781,0.249,-0.507
20,0.002,0.0,-0.006,-0.012,0.011,1.001,0.781,0.249,-0.507
21,0.003,-0.001,-0.005,-0.011,0.013,1.001,0.78,0.225,-0.514
22,0.002,-0.002,-0.006,-0.013,0.013,1.0,0.771,0.247,-0.526
23,0.002,-0.002,-0.005,-0.013,0.012,1.0,0.784,0.243,-0.504
24,0.003,-0.002,-0.005,-0.01,0.011,1.001,0.762,0.223,-0.498
25,0.002,-0.001,-0.006,-0.01,0.011,0.999,0.772,0.234,-0.523
26,-0.001,-0.011,-0.004,-0.011,0.011,1.001,0.771,0.252,-0.508
27,0.002,-0.004,-0.005,-0.011,0.012,1.002,0.771,0.252,-0.508
28,0.003,-0.002,-0.006,-0.008,0.013,1.001,0.783,0.226,-0.525
29,0.002,-0.002,-0.005,-0.009,0.011,1.002,0.765,0.244,-0.52
30,0.002,-0.001,-0.005,-0.012,0.01,1.0,0.768,0.244,-0.523
31,0.003,-0.001,-0.005,-0.01,0.013,0.997,0.783,0.249,-0.526
32,0.002,-0.002,-0.005,-0.01,0.013,0.997,0.778,0.255,-0.535
33,0.0,-0.004,-0.005,-0.008,0.014,0.998,0.792,0.244,-0.499
34,0.002,-0.002,-0.005,-0.012,0.015,0.999,0.792,0.244,-0.499
35,0.001,-0.002,-0.005,-0.012,0.015,1.0,0.775,0.252,-0.525
36,0.002,0.0,-0.006,-0.012,0.012,0.999,0.78,0.222,-0.522
37,0.002,0.0,-0.006,-0.014,0.01,0.997,0.766,0.238,-0.526
38,0.003,0.0,-0.006,-0.013,0.012,0.999,0.784,0.231,-0.523
39,0.002,-0.002,-0.006,-0.011,0.014,0.999,0.774,0.249,-0.516
40,0.004,0.0,-0.007,-0.01,0.013,0.998,0.78,0.252,-0.495
41,0.004,-0.001,-0.007,-0.009,0.011,0.998,0.78,0.252,-0.495
42,0.002,-0.002,-0.007,-0.01,0.011,1.0,0.783,0.24,-0.501
43,0.002,-0.001,-0.005,-0.011,0.01,0.999,0.772,0.25,-0.514
44,0.003,-0.001,-0.005,-0.01,0.014,0.999,0.784,0.229,-0.525
45,0.003,-0.002,-0.005,-0.011,0.014,1.0,0.801,0.229,-0.519
46,0.003,-0.002,-0.005,-0.011,0.012,1.0,0.774,0.238,-0.514
47,0.001,0.0,-0.006,-0.012,0.012,0.998,0.778,0.235,-0.523
48,0.002,-0.001,-0.006,-0.011,0.012,0.998,0.778,0.241,-0.49
49,0.002,0.0,-0.006,-0.01,0.012,0.999,0.778,0.241,-0.49
50,0.002,0.0,-0.006,-0.011,0.013,1.0,0.78,0.241,-0.51
51,0.002,-0.002,-0.005,-0.013,0.013,1.001,0.796,0.258,-0.52
52,0.002,-0.002,-0.007,-0.013,0.013,1.001,0.774,0.235,-0.52
53,0.002,-0.001,-0.005,-0.011,0.015,1.0,0.772,0.223,-0.526
54,0.006,-0.002,-0.007,-0.009,0.015,1.0,0.766,0.243,-0.508
55,0.006,-0.002,-0.007,-0.01,0.014,1.0,0.775,0.235,-0.517
56,0.004,0.0,-0.007,-0.009,0.013,0.999,0.775,0.235,-0.517
57,0.003,0.001,-0.006,-0.009,0.012,1.0,0.772,0.243,-0.516
58,0.002,0.0,-0.007,-0.01,0.013,1.002,0.774,0.234,-0.52
59,0.002,-0.003,-0.006,-0.012,0.014,1.001,0.783,0.25,-0.526
60,0.003,0.0,-0.005,-0.012,0.014,1.0,0.781,0.229,-0.522
61,0.003,0.002,-0.006,-0.009,0.013,0.999,0.786,0.226,-0.528
62,0.002,-0.001,-0.005,-0.01,0.012,1.0,0.786,0.226,-0.528
63,0.002,-0.004,-0.005,-0.01,0.012,0.999,0.76,0.229,-0.519
64,0.002,-0.002,-0.005,-0.011,0.014,0.997,0.792,0.235,-0.514
65,0.002,-0.002,-0.005,-0.012,0.013,0.998,0.771,0.237,-0.523
66,0.003,-0.001,-0.005,-0.009,0.013,1.001,0.778,0.241,-0.514
67,0.003,0.0,-0.005,-0.01,0.013,1.0,0.766,0.25,-0.526
68,0.002,-0.002,-0.006,-0.011,0.012,0.999,0.781,0.246,-0.504
69,0.002,-0.002,-0.006,-0.01,0.013,1.002,0.781,0.246,-0.504
70,0.003,-0.002,-0.005,-0.011,0.013,1.0,0.771,0.247,-0.501
71,0.002,-0.001,-0.005,-0.011,0.012,1.0,0.792,0.252,-0.514
72,0.002,0.0,-0.006,-0.01,0.012,0.998,0.787,0.247,-0.513
73,0.002,0.0,-0.007,-0.011,0.012,0.998,0.787,0.238,-0.534
74,0.002,-0.002,-0.007,-0.012,0.012,0.999,0.801,0.235,-0.519
75,0.002,-0.002,-0.006,-0.011,0.013,0.999,0.778,0.255,-0.537
76,0.002,-0.002,-0.006,-0.01,0.013,0.999,0.778,0.255,-0.537
77,0.002,-0.002,-0.006,-0.01,0.013,0.999,0.768,0.25,-0.516
78,0.002,-0.003,-0.005,-0.011,0.012,0.999,0.777,0.234,-0.499
79,0.002,-0.003,-0.005,-0.011,0.012,1.0,0.772,0.253,-0.531
80,0.002,-0.001,-0.007,-0.01,0.012,1.0,0.777,0.235,-0.505
81,0.002,-0.002,-0.006,-0.012,0.011,1.001,0.784,0.243,-0.51
82,0.004,0.0,-0.006,-0.013,0.013,1.002,0.784,0.243,-0.51
83,0.003,0.0,-0.007,-0.009,0.013,1.001,0.768,0.237,-0.508
84,0.003,0.0,-0.006,-0.008,0.014,1.001,0.783,0.219,-0.531
85,0.003,-0.002,-0.005,-0.01,0.014,1.001,0.781,0.244,-0.513
86,0.003,-0.002,-0.007,-0.011,0.014,1.0,0.757,0.235,-0.519
87,0.002,-0.001,-0.006,-0.012,0.014,1.0,0.772,0.237,-0.534
88,0.002,-0.001,-0.007,-0.011,0.013,0.999,0.783,0.241,-0.514
89,0.002,-0.006,-0.006,-0.009,0.014,0.996,0.783,0.241,-0.514
90,0.002,-0.006,-0.005,-0.01,0.014,0.997,0.763,0.238,-0.51
91,0.002,-0.003,-0.006,-0.01,0.014,0.997,0.778,0.24,-0.528
92,0.002,0.0,-0.006,-0.011,0.012,0.999,0.784,0.241,-0.505
93,0.003,0.0,-0.006,-0.012,0.013,1.0,0.778,0.243,-0.523
94,0.002,-0.001,-0.006,-0.013,0.014,1.0,0.777,0.244,-0.514
95,0.002,-0.001,-0.006,-0.012,0.012,1.0,0.76,0.231,-0.51
96,0.002,0.0,-0.005,-0.01,0.012,0.999,0.76,0.231,-0.51
97,0.002,0.0,-0.006,-0.009,0.013,1.0,0.771,0.231,-0.493
98,0.004,0.0,-0.007,-0.007,0.014,1.0,0.766,0.253,-0.516
99,0.003,0.0,-0.006,-0.01,0.013,0.998,0.765,0.237,-0.523
100,0.002,-0.001,-0.006,-0.012,0.014,1.0,0.775,0.243,-0.507
101,0.002,0.0,-0.006,-0.012,0.016,1.001,0.774,0.25,-0.508
102,0.002,-0.001,-0.007,-0.012,0.014,1.0,0.792,0.252,-0.525
103,0.005,0.0,-0.007,-0.012,0.014,0.999,0.792,0.252,-0.525
104,0.004,0.0,-0.006,-0.014,0.015,0.999,0.778,0.238,-0.504
105,0.002,-0.002,-0.005,-0.012,0.014,0.999,0.783,0.241,-0.52
106,0.003,0.0,-0.006,-0.008,0.014,1.0,0.78,0.25,-0.522
107,0.003,-0.001,-0.006,-0.007,0.013,1.0,0.784,0.238,-0.531
108,0.004,-0.002,-0.006,-0.01,0.015,1.0,0.771,0.234,-0.522
109,0.003,-0.001,-0.005,-0.012,0.017,1.0,0.772,0.229,-0.529
110,0.004,-0.005,-0.004,-0.011,0.017,0.998,0.772,0.229,-0.529
111,0.004,-0.002,-0.005,-0.011,0.017,0.998,0.768,0.244,-0.508
112,0.002,-0.001,-0.006,-0.013,0.017,0.997,0.778,0.241,-0.516
113,0.002,-0.002,-0.006,-0.014,0.015,0.998,0.775,0.249,-0.514
114,0.002,-0.002,-0.005,-0.011,0.012,0.999,0.762,0.232,-0.519
115,0.002,-0.002,-0.005,-0.01,0.012,1.0,0.784,0.241,-0.507
116,0.002,-0.003,-0.006,-0.01,0.012,1.0,0.793,0.264,-0.522
117,0.002,-0.004,-0.005,-0.01,0.013,1.001,0.793,0.264,-0.522
118,0.002,-0.001,-0.006,-0.011,0.012,1.0,0.783,0.25,-0.522
119,0.003,0.0,-0.005,-0.009,0.012,1.0,0.781,0.235,-0.519
120,0.002,-0.002,-0.005,-0.009,0.012,0.999,0.783,0.256,-0.511
121,0.003,-0.002,-0.006,-0.011,0.013,0.998,0.793,0.244,-0.528
122,0.002,-0.001,-0.006,-0.01,0.013,0.998,0.775,0.207,-0.517
123,0.002,-0.001,-0.007,-0.009,0.013,0.998,0.789,0.228,-0.525
124,0.0,0.0,-0.007,-0.008,0.013,0.998,0.789,0.228,-0.525
125,0.001,0.0,-0.006,-0.01,0.012,0.999,0.775,0.253,-0.507
126,0.002,-0.001,-0.007,-0.012,0.013,1.001,0.774,0.228,-0.504
127,0.002,0.0,-0.007,-0.012,0.012,0.999,0.783,0.243,-0.529
128,0.002,-0.001,-0.006,-0.013,0.01,0.998,0.765,0.222,-0.517
129,0.002,-0.001,-0.007,-0.013,0.012,0.998,0.78,0.24,-0.52
130,0.003,0.0,-0.006,-0.012,0.012,1.001,0.775,0.24,-0.516
131,0.004,0.002,-0.007,-0.013,0.014,0.999,0.775,0.24,-0.516
132,0.002,0.0,-0.005,-0.012,0.014,0.997,0.759,0.25,-0.511
133,0.002,-0.002,-0.006,-0.009,0.014,1.0,0.765,0.246,-0.514
134,0.002,-0.002,-0.006,-0.009,0.014,1.001,0.772,0.252,-0.528
135,0.002,-0.002,-0.006,-0.011,0.013,0.999,0.774,0.238,-0.519
136,0.003,-0.002,-0.005,-0.012,0.013,0.998,0.763,0.241,-0.514
137,0.003,-0.004,-0.005,-0.012,0.012,0.998,0.792,0.252,-0.495
138,0.003,-0.002,-0.005,-0.012,0.012,0.999,0.792,0.252,-0.495
139,0.002,-0.002,-0.007,-0.012,0.014,1.0,0.772,0.256,-0.511
140,0.003,0.0,-0.007,-0.013,0.015,0.999,0.789,0.244,-0.511
141,0.002,0.0,-0.006,-0.012,0.015,0.999,0.783,0.226,-0.508
142,0.002,0.0,-0.006,-0.01,0.013,1.001,0.778,0.234,-0.507
143,0.002,0.0,-0.006,-0.011,0.012,1.0,0.79,0.244,-0.523
144,0.002,-0.002,-0.006,-0.012,0.011,0.998,0.772,0.255,-0.52
145,0.001,-0.008,-0.005,-0.011,0.012,0.998,0.772,0.255,-0.52
146,0.002,-0.003,-0.006,-0.01,0.011,0.999,0.754,0.247,-0.52
147,0.002,-0.002,-0.006,-0.01,0.012,0.998,0.777,0.232,-0.523
148,0.002,-0.002,-0.007,-0.011,0.015,0.999,0.783,0.22,-0.525
149,0.002,-0.002,-0.006,-0.012,0.014,0.999,0.786,0.241,-0.514
150,0.002,-0.002,-0.007,-0.012,0.014,0.999,0.766,0.253,-0.513
151,0.002,-0.002,-0.007,-0.01,0.012,0.998,0.765,0.234,-0.507
152,0.002,0.001,-0.007,-0.009,0.009,0.998,0.765,0.234,-0.507
153,0.002,0.0,-0.007,-0.01,0.009,0.999,0.769,0.244,-0.528
154,0.001,0.0,-0.007,-0.012,0.012,1.0,0.774,0.24,-0.523
155,0.001,0.0,-0.007,-0.013,0.011,0.998,0.795,0.252,-0.514
156,0.002,0.0,-0.006,-0.01,0.011,0.999,0.777,0.24,-0.508
157,0.002,0.0,-0.006,-0.009,0.013,1.001,0.774,0.237,-0.531
158,0.002,-0.002,-0.004,-0.01,0.012,1.0,0.784,0.226,-0.531
159,0.0,-0.014,-0.004,-0.011,0.013,1.0,0.784,0.226,-0.531
160,0.001,-0.004,-0.006,-0.012,0.014,1.0,0.774,0.231,-0.507
161,0.002,-0.001,-0.006,-0.011,0.012,0.998,0.774,0.241,-0.516
162,0.003,-0.002,-0.006,-0.011,0.012,0.998,0.772,0.243,-0.522
163,0.003,-0.002,-0.005,-0.013,0.012,0.999,0.793,0.256,-0.513
164,0.003,-0.002,-0.006,-0.011,0.012,0.999,0.787,0.228,-0.516
165,0.003,-0.001,-0.006,-0.01,0.013,1.001,0.798,0.231,-0.526
166,0.003,0.0,-0.006,-0.011,0.013,1.0,0.798,0.231,-0.526
167,0.002,-0.001,-0.006,-0.011,0.013,1.001,0.766,0.267,-0.513
168,0.002,0.0,-0.007,-0.01,0.011,1.001,0.766,0.258,-0.522
169,0.002,-0.001,-0.006,-0.012,0.012,0.999,0.771,0.235,-0.522
170,0.002,-0.002,-0.006,-0.012,0.012,0.999,0.784,0.238,-0.51
171,0.002,-0.003,-0.006,-0.013,0.014,1.0,0.771,0.249,-0.519
172,0.002,-0.002,-0.005,-0.012,0.013,1.0,0.771,0.265,-0.511
173,0.002,-0.002,-0.005,-0.012,0.012,1.0,0.771,0.265,-0.511
174,0.002,-0.005,-0.005,-0.011,0.013,0.998,0.777,0.243,-0.501
175,0.002,-0.005,-0.005,-0.013,0.014,0.999,0.781,0.237,-0.513
176,0.003,-0.001,-0.007,-0.014,0.013,1.0,0.774,0.223,-0.504
177,0.002,-0.002,-0.007,-0.012,0.013,0.999,0.777,0.25,-0.528
178,0.002,-0.003,-0.007,-0.01,0.014,0.999,0.774,0.256,-0.517
179,0.002,-0.002,-0.006,-0.01,0.015,1.001,0.775,0.25,-0.51
180,0.003,0.002,-0.007,-0.009,0.013,1.001,0.775,0.25,-0.51
181,0.002,0.0,-0.006,-0.008,0.011,1.0,0.778,0.244,-0.505
182,0.002,-0.002,-0.005,-0.009,0.011,1.002,0.786,0.24,-0.52
183,0.002,-0.002,-0.006,-0.012,0.012,1.002,0.778,0.24,-0.514
184,0.002,-0.002,-0.006,-0.012,0.013,1.001,0.765,0.244,-0.505
185,0.002,0.0,-0.006,-0.009,0.014,1.001,0.766,0.222,-0.52
186,0.002,0.0,-0.006,-0.012,0.015,1.001,0.802,0.249,-0.525
187,0.004,0.002,-0.006,-0.013,0.014,1.0,0.802,0.249,-0.525
188,0.003,0.001,-0.007,-0.011,0.013,1.0,0.777,0.225,-0.501
189,0.002,-0.001,-0.006,-0.01,0.013,1.0,0.765,0.25,-0.523
190,0.002,-0.002,-0.006,-0.01,0.013,1.0,0.781,0.247,-0.513
191,0.002,-0.001,-0.006,-0.011,0.013,1.0,0.786,0.235,-0.51
192,0.002,-0.002,-0.005,-0.01,0.012,0.999,0.781,0.237,-0.514
193,0.002,-0.002,-0.005,-0.009,0.013,0.996,0.772,0.25,-0.508
194,0.002,-0.001,-0.005,-0.011,0.012,0.998,0.772,0.25,-0.508
195,0.002,-0.001,-0.006,-0.013,0.013,1.0,0.783,0.244,-0.502
196,0.002,0.0,-0.005,-0.011,0.015,1.0,0.774,0.253,-0.513
197,0.003,-0.002,-0.006,-0.012,0.015,1.0,0.795,0.241,-0.52
198,0.002,-0.002,-0.005,-0.013,0.015,1.0,0.789,0.231,-0.523
199,0.002,-0.004,-0.005,-0.011,0.013,1.0,0.79,0.244,-0.502
200,0.002,-0.002,-0.005,-0.011,0.013,1.0,0.786,0.244,-0.519
201,0.001,-0.014,-0.004,-0.011,0.013,0.999,0.786,0.244,-0.519
202,0.002,-0.007,-0.006,-0.012,0.013,1.001,0.778,0.241,-0.495
203,0.002,-0.004,-0.004,-0.011,0.014,1.001,0.784,0.237,-0.513
204,0.002,-0.002,-0.005,-0.012,0.013,0.999,0.778,0.24,-0.513
205,0.002,-0.001,-0.006,-0.011,0.012,0.998,0.784,0.25,-0.52
206,0.002,-0.002,-0.005,-0.009,0.013,0.998,0.79,0.25,-0.534
207,0.002,-0.002,-0.005,-0.011,0.011,0.998,0.778,0.237,-0.517
208,0.003,0.0,-0.007,-0.012,0.013,1.0,0.778,0.237,-0.517
209,0.003,-0.003,-0.005,-0.012,0.013,1.002,0.774,0.243,-0.519
210,0.002,-0.003,-0.006,-0.012,0.013,1.002,0.795,0.249,-0.501
211,0.002,0.0,-0.006,-0.011,0.009,1.001,0.769,0.247,-0.543
212,0.002,0.0,-0.006,-0.011,0.009,1.0,0.765,0.24,-0.513
213,0.003,-0.001,-0.005,-0.012,0.013,1.0,0.78,0.247,-0.501
214,0.003,-0.001,-0.005,-0.013,0.013,0.999,0.789,0.244,-0.52
215,0.002,-0.003,-0.005,-0.013,0.012,1.0,0.789,0.244,-0.52
216,0.002,-0.002,-0.006,-0.012,0.013,0.999,0.775,0.246,-0.522
217,0.002,-0.001,-0.006,-0.011,0.014,1.0,0.783,0.255,-0.516
218,0.002,-0.001,-0.006,-0.009,0.013,1.0,0.78,0.235,-0.52
219,0.002,-0.003,-0.005,-0.009,0.011,0.999,0.771,0.246,-0.516
220,0.002,-0.002,-0.004,-0.011,0.012,0.999,0.784,0.235,-0.552
221,0.002,-0.002,-0.006,-0.011,0.014,1.0,0.771,0.229,-0.516
222,0.002,-0.001,-0.007,-0.009,0.012,1.001,0.771,0.229,-0.516
223,0.002,-0.002,-0.005,-0.01,0.011,1.001,0.768,0.25,-0.495
224,0.002,-0.002,-0.006,-0.011,0.014,0.999,0.778,0.243,-0.526
225,0.003,-0.002,-0.006,-0.012,0.015,1.0,0.771,0.241,-0.526
226,0.002,-0.001,-0.005,-0.014,0.011,1.0,0.772,0.243,-0.52
227,0.002,-0.001,-0.005,-0.014,0.011,1.0,0.763,0.24,-0.519
228,0.002,-0.002,-0.006,-0.011,0.012,0.999,0.778,0.246,-0.513
229,0.004,-0.005,-0.006,-0.011,0.012,0.999,0.778,0.246,-0.513
230,0.003,-0.004,-0.005,-0.011,0.013,1.0,0.784,0.25,-0.511
231,0.002,-0.002,-0.007,-0.013,0.013,1.0,0.777,0.231,-0.522
232,0.002,0.0,-0.006,-0.011,0.012,1.0,0.777,0.249,-0.525
233,0.002,-0.002,-0.005,-0.011,0.011,1.001,0.784,0.246,-0.528
234,0.002,-0.002,-0.005,-0.011,0.012,1.001,0.759,0.225,-0.519
235,0.002,-0.001,-0.006,-0.011,0.013,1.0,0.781,0.241,-0.538
236,0.002,0.0,-0.006,-0.011,0.013,1.0,0.781,0.241,-0.538
237,0.002,0.0,-0.006,-0.009,0.013,1.0,0.763,0.249,-0.51
238,0.002,-0.002,-0.007,-0.008,0.013,1.0,0.781,0.243,-0.517
239,0.003,-0.002,-0.006,-0.009,0.014,0.999,0.778,0.217,-0.517
240,0.002,-0.002,-0.005,-0.012,0.013,0.999,0.802,0.246,-0.499
241,0.003,-0.002,-0.005,-0.012,0.013,1.0,0.79,0.246,-0.526
242,0.003,-0.002,-0.004,-0.01,0.012,1.002,0.775,0.232,-0.513
243,0.003,0.004,-0.006,-0.01,0.011,1.002,0.775,0.232,-0.513
244,0.002,0.0,-0.006,-0.01,0.013,1.0,0.76,0.246,-0.519
245,0.003,-0.002,-0.005,-0.01,0.014,0.999,0.774,0.229,-0.513
246,0.002,-0.002,-0.006,-0.012,0.012,0.998,0.751,0.249,-0.508
247,0.002,-0.004,-0.006,-0.012,0.011,0.999,0.777,0.226,-0.507
248,0.002,-0.002,-0.005,-0.012,0.011,0.999,0.783,0.241,-0.52
249,0.002,-0.001,-0.006,-0.012,0.012,1.0,0.774,0.243,-0.504
250,0.002,0.0,-0.007,-0.01,0.013,1.0,0.774,0.243,-0.504
251,0.002,-0.002,-0.007,-0.01,0.013,0.999,0.789,0.234,-0.492
252,0.001,-0.004,-0.005,-0.012,0.011,0.998,0.802,0.238,-0.516
253,0.001,-0.004,-0.005,-0.011,0.01,0.999,0.786,0.24,-0.531
254,0.002,-0.001,-0.006,-0.011,0.012,1.0,0.772,0.243,-0.526
255,0.002,-0.001,-0.006,-0.012,0.014,0.998,0.774,0.243,-0.511
256,0.002,-0.002,-0.006,-0.011,0.014,0.999,0.771,0.238,-0.523
257,0.003,0.0,-0.006,-0.012,0.013,0.999,0.771,0.238,-0.523
258,0.002,0.0,-0.007,-0.012,0.011,0.999,0.762,0.267,-0.507
259,0.002,0.0,-0.006,-0.011,0.011,0.999,0.778,0.243,-0.528
260,0.002,-0.002,-0.006,-0.01,0.014,0.998,0.771,0.232,-0.531
261,0.002,-0.003,-0.006,-0.009,0.013,0.999,0.784,0.238,-0.519
262,0.002,0.0,-0.007,-0.01,0.013,0.999,0.786,0.234,-0.537
263,0.003,-0.002,-0.005,-0.01,0.014,0.998,0.775,0.255,-0.532
264,0.002,-0.006,-0.005,-0.011,0.014,1.0,0.775,0.255,-0.532
265,0.002,-0.002,-0.005,-0.011,0.013,1.0,0.784,0.247,-0.519
266,0.003,0.0,-0.005,-0.009,0.013,0.998,0.772,0.243,-0.516
267,0.002,-0.002,-0.005,-0.012,0.014,0.998,0.78,0.232,-0.528
268,0.003,-0.001,-0.005,-0.013,0.013,1.001,0.784,0.234,-0.516
269,0.003,-0.002,-0.005,-0.013,0.013,1.001,0.775,0.255,-0.549
270,0.002,-0.001,-0.005,-0.01,0.012,1.001,0.769,0.244,-0.523
271,0.002,0.0,-0.006,-0.011,0.013,1.0,0.769,0.244,-0.523
272,0.002,-0.002,-0.007,-0.011,0.015,0.999,0.775,0.258,-0.507
273,0.002,-0.002,-0.007,-0.012,0.015,0.998,0.783,0.235,-0.525
274,0.002,-0.001,-0.005,-0.011,0.012,1.0,0.787,0.261,-0.511
275,0.002,-0.002,-0.005,-0.01,0.011,0.999,0.763,0.238,-0.51
276,0.002,0.0,-0.005,-0.011,0.012,0.998,0.78,0.247,-0.519
277,0.002,0.0,-0.006,-0.011,0.012,0.999,0.765,0.255,-0.52
278,0.002,0.0,-0.006,-0.012,0.012,1.0,0.765,0.255,-0.52
279,0.003,-0.002,-0.006,-0.012,0.014,0.999,0.775,0.241,-0.517
280,0.002,-0.001,-0.007,-0.009,0.012,0.999,0.787,0.235,-0.504
281,0.003,-0.001,-0.005,-0.01,0.011,1.001,0.778,0.247,-0.511
282,0.003,-0.002,-0.006,-0.01,0.015,1.001,0.787,0.232,-0.525
283,0.002,-0.001,-0.006,-0.012,0.014,1.0,0.78,0.247,-0.501
284,0.002,-0.001,-0.005,-0.013,0.013,0.999,0.771,0.231,-0.526
285,0.002,-0.009,-0.005,-0.011,0.015,1.0,0.771,0.231,-0.526
286,0.001,-0.004,-0.006,-0.01,0.014,1.001,0.786,0.235,-0.504
287,0.002,-0.002,-0.005,-0.012,0.013,1.0,0.795,0.249,-0.52
288,0.002,-0.001,-0.006,-0.012,0.013,1.0,0.786,0.243,-0.507
289,0.002,-0.001,-0.007,-0.013,0.013,0.998,0.768,0.247,-0.513
290,0.002,-0.001,-0.006,-0.011,0.013,0.997,0.777,0.238,-0.514
291,0.002,-0.003,-0.005,-0.011,0.014,0.998,0.766,0.243,-0.519
292,0.002,-0.003,-0.005,-0.011,0.014,1.0,0.766,0.243,-0.519
293,0.002,-0.001,-0.005,-0.011,0.012,1.0,0.796,0.232,-0.501
294,0.003,0.0,-0.004,-0.012,0.012,1.0,0.793,0.247,-0.507
295,0.004,-0.001,-0.005,-0.012,0.012,1.0,0.784,0.243,-0.531
296,0.003,-0.001,-0.006,-0.011,0.011,0.999,0.78,0.244,-0.52
297,0.002,0.0,-0.005,-0.01,0.013,1.001,0.789,0.246,-0.526
298,0.002,-0.002,-0.006,-0.012,0.014,1.001,0.781,0.244,-0.538
299,0.004,-0.004,-0.006,-0.011,0.013,0.999,0.781,0.244,-0.538
300,0.003,-0.003,-0.006,-0.011,0.012,1.0,0.762,0.249,-0.522
301,0.003,-0.003,-0.006,-0.012,0.012,0.999,0.786,0.238,-0.522
302,0.002,-0.002,-0.005,-0.013,0.012,0.998,0.789,0.229,-0.519
303,0.002,-0.002,-0.006,-0.014,0.012,0.999,0.765,0.232,-0.525
304,0.002,-0.001,-0.006,-0.011,0.013,0.998,0.778,0.252,-0.511
305,0.002,-0.002,-0.005,-0.011,0.012,0.997,0.787,0.232,-0.517
306,0.003,0.0,-0.006,-0.014,0.012,0.999,0.787,0.232,-0.517
307,0.003,0.0,-0.006,-0.013,0.009,1.0,0.777,0.241,-0.511
308,0.003,-0.001,-0.005,-0.013,0.009,1.0,0.787,0.232,-0.519
309,0.003,-0.001,-0.007,-0.011,0.009,0.999,0.781,0.24,-0.519
310,0.003,-0.002,-0.006,-0.011,0.013,0.998,0.774,0.24,-0.531
311,0.002,0.0,-0.006,-0.011,0.013,0.999,0.775,0.25,-0.516
312,0.002,0.0,-0.006,-0.011,0.013,1.0,0.784,0.259,-0.517
313,0.002,-0.001,-0.007,-0.009,0.014,1.001,0.784,0.259,-0.517
314,0.003,-0.001,-0.006,-0.01,0.015,0.999,0.769,0.231,-0.504
315,0.002,-0.001,-0.006,-0.011,0.015,0.998,0.795,0.25,-0.526
316,0.002,0.0,-0.005,-0.011,0.014,0.998,0.798,0.232,-0.493
317,0.003,-0.001,-0.006,-0.013,0.015,1.0,0.787,0.249,-0.505
318,0.002,0.0,-0.006,-0.013,0.015,0.999,0.772,0.231,-0.516
319,0.002,-0.001,-0.005,-0.01,0.014,0.999,0.777,0.229,-0.523
320,0.004,0.002,-0.006,-0.011,0.014,1.001,0.777,0.229,-0.523
321,0.003,0.0,-0.006,-0.012,0.015,1.001,0.775,0.246,-0.52
322,0.003,0.0,-0.006,-0.011,0.013,0.999,0.787,0.241,-0.51
323,0.002,-0.002,-0.005,-0.012,0.013,0.999,0.775,0.249,-0.522
324,0.002,-0.003,-0.006,-0.013,0.012,0.999,0.787,0.243,-0.522
325,0.003,-0.001,-0.006,-0.01,0.01,0.999,0.768,0.232,-0.523
326,0.002,-0.001,-0.005,-0.01,0.012,1.0,0.769,0.235,-0.492
327,0.0,-0.004,-0.005,-0.01,0.012,1.0,0.769,0.235,-0.492
328,0.001,-0.003,-0.007,-0.011,0.014,1.001,0.754,0.262,-0.514
329,0.002,-0.002,-0.006,-0.01,0.013,1.001,0.774,0.241,-0.514
330,0.002,-0.001,-0.005,-0.011,0.013,1.0,0.784,0.25,-0.538
331,0.002,0.0,-0.006,-0.01,0.012,0.998,0.772,0.24,-0.52
332,0.002,0.0,-0.006,-0.009,0.011,1.003,0.796,0.238,-0.499
333,0.002,0.0,-0.006,-0.011,0.014,1.002,0.783,0.25,-0.525
334,0.002,-0.001,-0.006,-0.011,0.016,0.996,0.783,0.25,-0.525
335,0.003,-0.001,-0.006,-0.01,0.014,0.998,0.769,0.243,-0.498
336,0.009,-0.004,-0.007,-0.005,0.004,1.041,0.79,0.258,-0.529
337,0.003,0.0,-0.007,-0.006,0.003,1.049,0.778,0.259,-0.511
338,0.002,0.0,-0.007,-0.014,0.013,0.997,0.768,0.238,-0.514
339,0.004,-0.003,-0.004,-0.01,0.009,0.997,0.795,0.235,-0.517
340,0.004,-0.002,-0.005,-0.007,0.008,1.014,0.76,0.238,-0.528
341,0.003,0.002,-0.008,-0.011,0.016,1.009,0.76,0.238,-0.528
342,0.002,-0.001,-0.006,-0.01,0.014,1.0,0.772,0.223,-0.526
343,0.003,-0.002,-0.004,-0.007,0.011,0.999,0.771,0.238,-0.508
344,0.002,-0.001,-0.007,-0.008,0.013,1.003,0.777,0.234,-0.519
345,0.002,0.0,-0.007,-0.011,0.015,1.001,0.781,0.232,-0.513
346,0.002,0.0,-0.006,-0.011,0.015,1.001,0.777,0.24,-0.516
347,0.0,-0.002,-0.003,-0.013,0.014,0.997,0.775,0.261,-0.534
348,0.001,-0.004,-0.004,-0.013,0.015,0.988,0.775,0.261,-0.534
349,0.002,-0.002,-0.006,-0.012,0.016,0.983,0.765,0.258,-0.513
350,0.002,-0.002,-0.005,-0.012,0.012,0.994,0.786,0.252,-0.523
351,0.002,-0.001,-0.005,-0.013,0.011,1.0,0.784,0.252,-0.532
352,0.002,-0.001,-0.005,-0.012,0.011,0.996,0.774,0.237,-0.528
353,0.0,0.004,-0.014,0.001,0.018,1.08,0.787,0.235,-0.519
354,0.004,0.002,-0.016,0.009,0.012,1.143,0.78,0.235,-0.513
355,0.011,0.004,-0.008,-0.001,0.004,1.076,0.78,0.235,-0.513
356,0.015,0.002,-0.002,-0.001,-0.013,1.104,0.777,0.249,-0.52
357,-0.003,0.004,-0.003,0.0,0.0,1.107,0.787,0.244,-0.513
358,0.0,0.001,-0.01,-0.008,0.028,1.03,0.783,0.243,-0.51
359,0.01,-0.004,-0.006,-0.008,0.001,1.047,0.783,0.244,-0.535
360,0.007,-0.001,-0.003,-0.008,-0.003,1.061,0.786,0.247,-0.511
361,0.002,0.004,-0.008,-0.01,0.014,1.032,0.757,0.253,-0.511
362,0.0,0.002,-0.007,-0.01,0.02,1.001,0.757,0.253,-0.511
363,0.002,-0.003,-0.003,-0.011,0.016,0.995,0.781,0.232,-0.508
364,0.004,-0.002,-0.004,-0.01,0.013,1.001,0.763,0.234,-0.525
365,0.002,-0.001,-0.006,-0.008,0.014,1.002,0.781,0.252,-0.537
366,0.001,0.0,-0.007,-0.009,0.014,0.996,0.789,0.244,-0.526
367,0.002,-0.002,-0.004,-0.009,0.014,0.996,0.777,0.226,-0.516
368,0.002,-0.002,-0.005,-0.012,0.011,0.992,0.778,0.247,-0.52
369,0.003,0.001,-0.006,-0.009,0.01,0.996,0.778,0.247,-0.52
370,0.002,0.0,-0.006,-0.009,0.013,0.997,0.768,0.237,-0.501
371,0.003,-0.002,-0.005,-0.013,0.017,0.998,0.771,0.238,-0.508
372,0.003,-0.002,-0.005,-0.013,0.016,1.003,0.777,0.258,-0.504
373,0.002,-0.002,-0.004,-0.01,0.011,1.003,0.774,0.247,-0.519
374,0.002,-0.001,-0.005,-0.01,0.012,0.996,0.787,0.261,-0.549
375,0.002,0.0,-0.005,-0.012,0.015,0.996,0.792,0.241,-0.531
376,0.002,-0.004,-0.004,-0.011,0.015,0.997,0.792,0.241,-0.531
377,0.002,-0.002,-0.005,-0.008,0.013,0.997,0.759,0.243,-0.496
378,0.003,-0.002,-0.007,-0.008,0.01,0.997,0.781,0.247,-0.493
379,0.002,0.0,-0.006,-0.01,0.011,0.998,0.78,0.226,-0.525
380,0.002,-0.001,-0.007,-0.013,0.013,0.998,0.763,0.222,-0.523
381,0.002,-0.002,-0.005,-0.012,0.015,0.997,0.789,0.225,-0.535
382,0.003,0.0,-0.006,-0.012,0.015,0.997,0.777,0.244,-0.531
383,0.003,0.004,-0.007,-0.011,0.013,1.0,0.777,0.244,-0.531
384,0.004,0.0,-0.006,-0.01,0.012,1.001,0.772,0.238,-0.507
385,0.003,-0.002,-0.006,-0.012,0.012,1.001,0.763,0.246,-0.504
386,0.002,-0.002,-0.006,-0.013,0.011,0.997,0.778,0.232,-0.514
387,0.002,-0.002,-0.005,-0.013,0.011,0.997,0.781,0.259,-0.52
388,0.003,0.0,-0.005,-0.01,0.012,0.997,0.766,0.24,-0.523
389,0.002,-0.001,-0.006,-0.012,0.012,1.0,0.769,0.244,-0.519
390,0.002,-0.001,-0.006,-0.014,0.012,1.001,0.769,0.244,-0.519
391,0.002,0.0,-0.005,-0.013,0.014,1.0,0.763,0.253,-0.517
392,0.001,-0.002,-0.006,-0.013,0.015,1.0,0.769,0.249,-0.523
393,0.001,-0.001,-0.005,-0.012,0.015,1.0,0.766,0.243,-0.522
394,0.002,-0.002,-0.006,-0.014,0.014,1.0,0.765,0.243,-0.501
395,0.001,-0.003,-0.006,-0.012,0.014,1.001,0.768,0.237,-0.519
396,0.002,-0.002,-0.006,-0.009,0.013,1.0,0.769,0.238,-0.514
397,0.0,-0.006,-0.005,-0.011,0.011,1.0,0.769,0.238,-0.514
398,0.001,-0.002,-0.006,-0.011,0.012,0.999,0.775,0.252,-0.522
399,0.003,-0.002,-0.006,-0.011,0.013,0.998,0.777,0.246,-0.522
400,0.003,-0.001,-0.007,-0.012,0.015,0.998,0.78,0.258,-0.519
401,0.002,-0.001,-0.006,-0.011,0.014,0.999,0.771,0.249,-0.519
402,0.003,-0.001,-0.005,-0.011,0.013,0.998,0.789,0.259,-0.505
403,0.002,-0.001,-0.004,-0.011,0.015,0.997,0.775,0.244,-0.511
404,0.004,-0.004,-0.006,-0.012,0.016,0.998,0.775,0.244,-0.511
405,0.003,0.0,-0.006,-0.012,0.013,1.0,0.769,0.247,-0.519
406,0.003,-0.001,-0.007,-0.012,0.011,0.999,0.775,0.247,-0.514
407,0.002,-0.002,-0.006,-0.012,0.011,0.999,0.775,0.234,-0.511
408,0.003,-0.002,-0.006,-0.011,0.012,0.999,0.792,0.244,-0.52
409,0.003,-0.001,-0.006,-0.01,0.013,1.0,0.775,0.262,-0.505
410,0.003,-0.001,-0.006,-0.011,0.012,0.999,0.789,0.241,-0.532
411,0.002,-0.001,-0.005,-0.01,0.013,1.0,0.789,0.241,-0.532
412,0.004,-0.002,-0.006,-0.01,0.015,1.001,0.759,0.246,-0.517
413,0.002,-0.001,-0.006,-0.011,0.015,1.001,0.772,0.25,-0.516
414,0.002,-0.002,-0.005,-0.009,0.013,1.0,0.775,0.253,-0.526
415,0.002,-0.002,-0.005,-0.01,0.013,1.0,0.778,0.231,-0.505
416,0.003,-0.002,-0.005,-0.012,0.014,0.998,0.778,0.243,-0.538
417,0.003,0.0,-0.005,-0.012,0.015,0.998,0.778,0.229,-0.514
418,0.002,0.0,-0.006,-0.011,0.016,0.998,0.778,0.229,-0.514
419,0.002,0.0,-0.006,-0.01,0.015,0.998,0.778,0.231,-0.523
420,0.002,-0.001,-0.007,-0.01,0.014,0.999,0.769,0.228,-0.492
421,0.003,0.0,-0.007,-0.011,0.013,1.0,0.783,0.249,-0.529
422,0.003,-0.001,-0.005,-0.012,0.014,1.0,0.786,0.241,-0.499
423,0.003,-0.002,-0.006,-0.011,0.013,0.999,0.787,0.24,-0.519
424,0.003,-0.001,-0.006,-0.011,0.01,0.999,0.768,0.241,-0.519
425,0.0,-0.005,-0.005,-0.011,0.012,0.999,0.768,0.241,-0.519
426,0.002,-0.002,-0.005,-0.009,0.012,0.999,0.769,0.253,-0.502
427,0.002,-0.002,-0.006,-0.009,0.014,1.0,0.774,0.234,-0.507
428,0.003,0.0,-0.006,-0.011,0.012,0.999,0.786,0.235,-0.516
429,0.002,0.0,-0.006,-0.009,0.015,1.0,0.787,0.24,-0.52
430,0.002,0.0,-0.006,-0.009,0.014,1.001,0.784,0.237,-0.516
431,0.002,0.0,-0.006,-0.011,0.011,0.999,0.783,0.235,-0.513
432,0.003,-0.001,-0.005,-0.012,0.012,0.998,0.783,0.235,-0.513
433,0.003,-0.002,-0.005,-0.01,0.012,0.998,0.78,0.25,-0.501
434,0.003,-0.002,-0.005,-0.009,0.011,1.0,0.769,0.262,-0.516
435,0.003,-0.002,-0.005,-0.011,0.012,1.002,0.783,0.238,-0.505
436,0.002,-0.002,-0.005,-0.011,0.012,1.001,0.768,0.237,-0.529
437,0.002,-0.002,-0.007,-0.012,0.013,1.0,0.789,0.259,-0.511
438,0.002,-0.002,-0.006,-0.011,0.014,1.0,0.774,0.256,-0.531
439,0.0,0.004,-0.007,-0.01,0.011,1.0,0.774,0.256,-0.531
440,0.003,0.0,-0.006,-0.01,0.012,0.998,0.772,0.25,-0.504
441,0.003,-0.002,-0.005,-0.01,0.01,0.997,0.774,0.25,-0.514
442,0.002,-0.002,-0.006,-0.011,0.01,0.998,0.756,0.222,-0.535
443,0.002,-0.001,-0.006,-0.008,0.012,0.998,0.76,0.258,-0.517
444,0.002,-0.002,-0.005,-0.007,0.011,0.999,0.778,0.24,-0.501
445,0.002,-0.002,-0.006,-0.009,0.011,0.999,0.774,0.24,-0.528
446,0.002,-0.002,-0.005,-0.009,0.011,0.999,0.774,0.24,-0.528
447,0.002,-0.001,-0.004,-0.01,0.012,0.998,0.775,0.267,-0.499
448,0.003,-0.002,-0.004,-0.011,0.013,0.998,0.781,0.235,-0.522
449,-0.005,0.009,-0.004,-0.01,0.01,0.954,0.786,0.241,-0.529
450,-0.004,-0.006,-0.004,-0.034,0.04,0.874,0.774,0.238,-0.531
451,-0.004,-0.006,-0.004,-0.031,0.044,0.905,0.757,0.253,-0.529
452,0.005,-0.007,-0.005,-0.003,0.013,0.994,0.789,0.228,-0.517
453,0.006,0.004,-0.01,-0.008,0.013,1.013,0.789,0.228,-0.517
454,0.003,0.001,-0.004,-0.019,0.011,1.011,0.783,0.259,-0.51
455,0.001,-0.001,-0.004,-0.014,0.011,1.001,0.76,0.243,-0.516
456,0.002,0.0,-0.009,-0.007,0.017,0.992,0.796,0.247,-0.522
457,0.003,0.0,-0.007,-0.01,0.015,0.996,0.783,0.246,-0.51
458,0.002,-0.002,-0.004,-0.014,0.012,0.99,0.771,0.253,-0.507
459,0.002,-0.001,-0.006,-0.01,0.012,0.99,0.781,0.241,-0.523
460,0.005,-0.005,-0.006,-0.008,0.012,1.0,0.781,0.241,-0.523
461,0.004,-0.002,-0.006,-0.01,0.013,1.004,0.78,0.25,-0.528
462,0.003,-0.001,-0.006,-0.01,0.013,0.998,0.765,0.247,-0.531
463,0.002,-0.001,-0.005,-0.011,0.012,0.994,0.781,0.247,-0.532
464,0.004,-0.003,-0.006,-0.011,0.012,0.998,0.771,0.249,-0.516
465,0.002,-0.001,-0.006,-0.011,0.012,0.998,0.792,0.241,-0.529
466,0.002,-0.001,-0.004,-0.008,0.015,0.999,0.786,0.262,-0.517
467,0.004,0.0,-0.005,-0.008,0.013,0.998,0.786,0.262,-0.517
468,0.003,-0.003,-0.006,-0.011,0.01,1.001,0.769,0.238,-0.49
469,0.002,-0.002,-0.006,-0.011,0.01,1.002,0.772,0.24,-0.508
470,0.002,-0.002,-0.006,-0.009,0.014,1.0,0.772,0.259,-0.504
471,0.002,-0.002,-0.006,-0.01,0.015,0.995,0.792,0.244,-0.531
472,0.0,-0.002,-0.005,-0.01,0.013,0.997,0.768,0.229,-0.517
473,0.002,-0.002,-0.004,-0.009,0.015,1.002,0.78,0.24,-0.52
474,0.004,0.009,-0.007,-0.01,0.013,1.001,0.78,0.24,-0.52
475,0.003,0.002,-0.006,-0.011,0.012,0.999,0.771,0.256,-0.523
476,0.002,-0.001,-0.006,-0.012,0.011,1.002,0.78,0.234,-0.528
477,0.002,0.0,-0.006,-0.014,0.008,1.001,0.772,0.228,-0.523
478,0.003,-0.001,-0.005,-0.012,0.009,0.999,0.792,0.243,-0.504
479,0.002,-0.001,-0.006,-0.009,0.012,1.0,0.787,0.25,-0.517
480,0.002,-0.001,-0.006,-0.01,0.013,1.0,0.781,0.237,-0.526
481,0.003,-0.001,-0.006,-0.012,0.014,0.998,0.781,0.237,-0.526
482,0.002,-0.002,-0.006,-0.012,0.014,0.999,0.798,0.232,-0.505
483,0.003,-0.001,-0.006,-0.011,0.014,1.001,0.765,0.24,-0.496
484,0.002,-0.002,-0.007,-0.011,0.014,1.0,0.769,0.237,-0.52
485,0.003,0.0,-0.007,-0.011,0.014,0.999,0.79,0.243,-0.519
486,0.003,0.0,-0.006,-0.011,0.014,0.999,0.775,0.252,-0.513
487,0.003,0.0,-0.006,-0.012,0.013,0.999,0.769,0.237,-0.514
488,0.001,0.0,-0.006,-0.011,0.012,1.0,0.769,0.237,-0.514
489,0.002,0.0,-0.006,-0.01,0.013,1.0,0.765,0.247,-0.502
490,0.002,0.0,-0.006,-0.011,0.013,1.0,0.79,0.244,-0.52
491,0.002,-0.002,-0.005,-0.011,0.013,1.001,0.781,0.255,-0.511
492,0.002,0.0,-0.004,-0.01,0.014,1.0,0.778,0.234,-0.526
493,0.002,0.0,-0.004,-0.009,0.014,1.0,0.777,0.237,-0.508
494,0.002,-0.004,-0.006,-0.01,0.013,0.999,0.768,0.244,-0.513
495,0.002,-0.006,-0.005,-0.012,0.01,0.998,0.768,0.244,-0.513
496,0.003,-0.004,-0.005,-0.012,0.011,1.0,0.778,0.241,-0.526
497,0.002,-0.002,-0.006,-0.012,0.013,1.0,0.766,0.225,-0.508
498,0.002,-0.002,-0.005,-0.01,0.014,1.0,0.796,0.252,-0.52
499,0.002,-0.001,-0.005,-0.01,0.013,1.001,0.787,0.235,-0.537
500,0.003,0.0,-0.006,-0.011,0.012,1.0,0.777,0.25,-0.532
501,0.004,-0.002,-0.005,-0.012,0.012,1.0,0.772,0.244,-0.531
502,0.004,0.0,-0.006,-0.011,0.014,0.999,0.772,0.244,-0.531
503,0.003,-0.001,-0.005,-0.009,0.012,0.999,0.772,0.24,-0.505
504,0.002,0.0,-0.006,-0.01,0.012,0.999,0.787,0.238,-0.507
505,0.002,0.0,-0.005,-0.01,0.012,0.999,0.78,0.231,-0.52
506,0.002,-0.002,-0.005,-0.011,0.013,0.998,0.781,0.247,-0.529
507,0.002,-0.002,-0.006,-0.012,0.013,1.0,0.78,0.244,-0.516
508,0.002,0.0,-0.006,-0.012,0.014,1.0,0.772,0.24,-0.523
509,0.002,0.0,-0.006,-0.011,0.015,0.999,0.772,0.24,-0.523
510,0.003,-0.002,-0.006,-0.01,0.013,0.998,0.775,0.234,-0.517
511,0.002,0.0,-0.006,-0.011,0.012,0.998,0.79,0.252,-0.508
512,0.002,0.0,-0.007,-0.012,0.013,0.999,0.766,0.231,-0.54
513,0.002,-0.002,-0.006,-0.012,0.014,0.998,0.771,0.237,-0.514
514,0.003,0.0,-0.007,-0.01,0.014,1.0,0.786,0.265,-0.505
515,0.004,0.0,-0.006,-0.008,0.014,1.001,0.786,0.246,-0.504
516,0.0,-0.007,-0.005,-0.009,0.015,1.001,0.786,0.246,-0.504
517,0.001,-0.003,-0.006,-0.011,0.014,1.0,0.759,0.258,-0.487
518,0.002,-0.001,-0.006,-0.011,0.013,0.998,0.783,0.225,-0.525
519,0.002,-0.002,-0.005,-0.01,0.013,0.998,0.777,0.246,-0.525
520,0.003,-0.001,-0.006,-0.009,0.014,0.998,0.768,0.247,-0.52
521,0.002,-0.001,-0.006,-0.01,0.015,0.998,0.781,0.252,-0.516
522,0.002,-0.001,-0.006,-0.011,0.014,1.0,0.789,0.246,-0.516
523,0.004,0.003,-0.006,-0.011,0.013,0.999,0.789,0.246,-0.516
524,0.003,0.0,-0.006,-0.011,0.013,1.0,0.786,0.252,-0.528
525,0.002,0.0,-0.005,-0.011,0.013,1.0,0.801,0.25,-0.526
526,0.002,-0.002,-0.005,-0.012,0.014,1.0,0.777,0.237,-0.529
527,0.002,-0.003,-0.005,-0.011,0.014,1.0,0.786,0.253,-0.519
528,0.002,-0.001,-0.007,-0.011,0.012,1.001,0.757,0.238,-0.508
529,0.002,-0.001,-0.007,-0.012,0.011,1.001,0.774,0.24,-0.532
530,0.002,0.0,-0.006,-0.009,0.009,1.0,0.774,0.24,-0.532
531,0.002,-0.002,-0.006,-0.009,0.01,0.998,0.777,0.261,-0.505
532,0.002,-0.002,-0.006,-0.013,0.012,0.999,0.786,0.234,-0.532
533,0.002,-0.001,-0.005,-0.013,0.012,1.0,0.781,0.235,-0.526
534,0.002,-0.001,-0.006,-0.012,0.014,1.0,0.781,0.235,-0.519
535,0.002,-0.001,-0.006,-0.01,0.015,0.999,0.766,0.252,-0.519
536,0.001,-0.001,-0.005,-0.01,0.013,0.999,0.763,0.237,-0.522
537,0.005,-0.002,-0.005,-0.014,0.013,1.001,0.763,0.237,-0.522
538,0.004,-0.001,-0.005,-0.013,0.014,1.001,0.771,0.255,-0.511
539,0.003,-0.002,-0.004,-0.011,0.015,0.999,0.796,0.24,-0.519
540,0.003,-0.001,-0.005,-0.012,0.013,1.0,0.774,0.247,-0.507
541,0.002,-0.001,-0.006,-0.012,0.011,1.001,0.777,0.235,-0.534
542,0.002,-0.001,-0.006,-0.011,0.013,1.0,0.774,0.244,-0.531
543,0.003,-0.002,-0.006,-0.011,0.014,1.001,0.784,0.244,-0.513
544,0.001,0.0,-0.005,-0.011,0.014,1.001,0.784,0.244,-0.513
545,0.002,0.0,-0.005,-0.011,0.012,1.002,0.765,0.243,-0.513
546,0.002,-0.002,-0.005,-0.011,0.012,1.0,0.78,0.259,-0.508
547,0.003,-0.001,-0.005,-0.011,0.012,0.999,0.771,0.244,-0.511
548,0.002,-0.002,-0.005,-0.008,0.015,1.0,0.78,0.255,-0.52
549,0.002,-0.002,-0.005,-0.008,0.014,0.998,0.793,0.253,-0.528
550,0.004,-0.002,-0.005,-0.009,0.011,0.998,0.786,0.24,-0.52
551,0.004,0.0,-0.007,-0.01,0.011,1.0,0.786,0.24,-0.52
552,0.004,0.0,-0.006,-0.01,0.013,1.0,0.757,0.249,-0.517
553,0.002,0.0,-0.006,-0.01,0.015,0.999,0.786,0.243,-0.531
554,0.003,0.0,-0.007,-0.009,0.015,0.998,0.775,0.253,-0.519
555,0.003,-0.001,-0.006,-0.009,0.014,0.998,0.775,0.229,-0.528
556,0.003,-0.002,-0.007,-0.009,0.015,0.999,0.771,0.244,-0.529
557,0.002,-0.001,-0.005,-0.01,0.013,0.999,0.786,0.237,-0.516
558,0.005,0.002,-0.007,-0.01,0.012,1.0,0.786,0.237,-0.516
559,0.003,0.0,-0.006,-0.01,0.012,1.001,0.768,0.249,-0.516
560,0.002,0.0,-0.006,-0.01,0.012,0.999,0.774,0.244,-0.531
561,0.002,0.0,-0.006,-0.009,0.012,1.001,0.777,0.256,-0.516
562,0.003,0.0,-0.006,-0.01,0.011,1.002,0.783,0.246,-0.517
563,0.003,-0.001,-0.007,-0.01,0.011,1.002,0.775,0.231,-0.517
564,0.003,0.0,-0.006,-0.012,0.014,1.0,0.784,0.246,-0.511
565,0.002,-0.004,-0.005,-0.01,0.014,0.999,0.784,0.246,-0.511
566,0.002,-0.004,-0.005,-0.01,0.012,1.001,0.783,0.237,-0.511
567,0.002,-0.002,-0.005,-0.011,0.012,1.001,0.786,0.247,-0.523
568,0.002,-0.002,-0.004,-0.009,0.014,1.0,0.784,0.25,-0.526
569,0.002,-0.002,-0.004,-0.01,0.015,1.0,0.777,0.25,-0.535
570,0.003,-0.002,-0.005,-0.012,0.013,1.0,0.781,0.244,-0.514
571,0.002,-0.002,-0.005,-0.01,0.013,0.998,0.771,0.252,-0.522
572,0.004,0.001,-0.006,-0.009,0.013,0.999,0.771,0.252,-0.522
573,0.002,0.0,-0.007,-0.01,0.013,0.999,0.784,0.25,-0.516
574,0.002,0.0,-0.007,-0.011,0.013,0.999,0.756,0.256,-0.522
575,0.002,-0.002,-0.005,-0.011,0.012,0.999,0.762,0.249,-0.519
576,0.002,-0.002,-0.005,-0.012,0.014,1.0,0.795,0.241,-0.523
577,0.002,-0.002,-0.006,-0.013,0.013,1.001,0.76,0.24,-0.504
578,0.002,-0.002,-0.006,-0.012,0.012,1.001,0.784,0.252,-0.526
579,0.001,0.0,-0.007,-0.011,0.015,1.001,0.784,0.252,-0.526
580,0.002,-0.001,-0.006,-0.012,0.013,1.001,0.781,0.238,-0.498
581,0.002,-0.003,-0.005,-0.012,0.011,0.999,0.783,0.262,-0.526
582,0.002,-0.002,-0.007,-0.011,0.014,1.0,0.771,0.238,-0.535
583,0.002,-0.001,-0.006,-0.009,0.015,1.0,0.796,0.235,-0.522
584,0.002,-0.002,-0.005,-0.009,0.015,1.0,0.765,0.246,-0.514
585,0.003,-0.001,-0.005,-0.009,0.013,0.999,0.769,0.229,-0.523
586,0.004,-0.002,-0.005,-0.013,0.011,0.999,0.786,0.237,-0.498
587,0.003,-0.002,-0.005,-0.011,0.011,0.999,0.79,0.259,-0.511
588,0.003,-0.002,-0.005,-0.009,0.014,0.999,0.786,0.231,-0.513
589,0.002,-0.001,-0.006,-0.011,0.014,0.998,0.787,0.229,-0.51
590,0.003,-0.002,-0.006,-0.012,0.013,0.996,0.778,0.238,-0.534
591,0.002,-0.002,-0.007,-0.011,0.013,0.997,0.774,0.253,-0.52
592,0.003,0.0,-0.007,-0.012,0.014,0.996,0.774,0.253,-0.52
593,0.003,0.005,-0.007,-0.011,0.013,0.997,0.783,0.249,-0.519
594,0.002,0.0,-0.006,-0.009,0.012,1.0,0.783,0.249,-0.519
595,0.002,-0.002,-0.006,-0.012,0.011,1.0,0.777,0.232,-0.519
596,0.002,-0.002,-0.005,-0.011,0.013,0.998,0.79,0.247,-0.534
597,0.002,-0.001,-0.006,-0.008,0.013,0.998,0.78,0.25,-0.525
598,0.002,-0.001,-0.006,-0.008,0.013,0.999,0.78,0.25,-0.525
599,0.002,-0.001,-0.006,-0.008,0.014,0.999,0.777,0.244,-0.516
600,0.002,-0.002,-0.007,-0.009,0.013,0.999,0.786,0.249,-0.513
601,0.002,-0.001,-0.006,-0.01,0.013,0.999,0.769,0.256,-0.534
602,0.002,-0.001,-0.005,-0.01,0.015,1.0,0.781,0.244,-0.531
603,0.002,-0.002,-0.006,-0.01,0.015,1.0,0.781,0.255,-0.532
604,0.003,-0.001,-0.006,-0.012,0.015,0.999,0.783,0.237,-0.511
605,0.002,-0.001,-0.005,-0.012,0.013,0.998,0.783,0.237,-0.511
606,0.002,0.0,-0.006,-0.01,0.012,0.999,0.796,0.255,-0.534
607,0.002,0.0,-0.006,-0.009,0.011,1.0,0.765,0.229,-0.499
608,0.002,-0.002,-0.006,-0.01,0.011,1.0,0.765,0.229,-0.499
609,0.002,-0.002,-0.006,-0.01,0.013,0.999,0.771,0.262,-0.505
610,0.006,-0.002,-0.006,-0.009,0.007,0.993,0.783,0.244,-0.508
611,0.005,-0.011,-0.018,-0.025,0.013,0.985,0.771,0.234,-0.528
612,-0.002,0.043,-0.058,-0.002,0.033,0.956,0.771,0.234,-0.528
613,0.013,0.108,-0.242,-0.097,0.016,1.012,0.777,0.247,-0.507
614,0.019,0.066,-0.465,-0.108,-0.039,1.187,0.775,0.241,-0.508
615,0.017,-0.019,-0.397,0.035,-0.043,1.159,0.792,0.249,-0.508
616,-0.011,-0.088,-0.187,0.13,0.004,0.975,0.766,0.235,-0.523
617,0.004,-0.053,0.014,0.089,0.02,0.954,0.778,0.252,-0.517
618,0.004,-0.007,0.015,0.0,0.017,0.994,0.777,0.246,-0.517
619,0.006,0.018,0.014,0.006,0.014,0.996,0.777,0.246,-0.517
620,0.004,0.019,0.012,-0.013,0.013,1.001,0.792,0.25,-0.505
621,0.005,0.018,0.002,-0.013,0.013,1.001,0.763,0.244,-0.513
622,0.008,0.019,-0.005,-0.014,0.015,1.003,0.78,0.253,-0.52
623,0.01,0.011,-0.018,-0.017,0.015,1.003,0.79,0.25,-0.513
624,0.01,0.003,-0.026,-0.024,0.02,1.011,0.784,0.247,-0.513
625,0.013,0.009,-0.037,-0.022,0.018,1.007,0.777,0.256,-0.519
626,0.013,0.009,-0.037,-0.011,0.011,0.999,0.777,0.256,-0.519
627,0.014,0.011,-0.042,-0.01,0.011,1.0,0.792,0.241,-0.511
628,0.014,0.025,-0.037,0.004,0.002,1.016,0.774,0.258,-0.504
629,0.012,0.026,0.005,0.022,-0.001,1.009,0.774,0.258,-0.504
630,0.013,0.037,0.044,0.003,0.01,0.992,0.768,0.262,-0.516
631,0.013,0.049,0.06,-0.012,0.014,0.994,0.772,0.262,-0.519
632,0.014,0.059,0.072,-0.017,0.013,0.996,0.765,0.235,-0.522
633,0.015,0.053,0.053,-0.013,0.006,0.998,0.765,0.235,-0.522
634,0.015,0.05,0.045,-0.019,0.004,1.004,0.784,0.237,-0.501
635,0.004,0.032,0.042,-0.036,0.011,0.994,0.777,0.237,-0.496
636,0.004,0.003,0.016,-0.04,0.016,0.992,0.777,0.258,-0.502
637,0.006,-0.02,0.008,-0.033,0.013,1.004,0.775,0.268,-0.522
638,0.007,-0.028,0.006,-0.018,0.01,0.999,0.78,0.247,-0.52
639,0.007,-0.015,0.004,-0.015,0.01,0.998,0.775,0.252,-0.513
640,0.006,-0.004,0.004,-0.016,0.009,0.999,0.775,0.252,-0.513
641,0.004,-0.001,0.016,-0.011,0.006,0.999,0.768,0.253,-0.522
642,0.005,-0.016,0.05,-0.011,0.006,0.999,0.769,0.253,-0.507
643,0.007,-0.024,0.063,-0.01,0.006,0.998,0.769,0.253,-0.507
644,0.009,-0.024,0.052,-0.014,0.011,1.001,0.78,0.265,-0.501
645,0.009,-0.021,0.02,-0.034,0.013,1.004,0.768,0.256,-0.525
646,0.01,-0.025,0.008,-0.035,0.013,1.0,0.796,0.24,-0.507
647,0.01,-0.025,0.008,-0.018,0.008,0.995,0.789,0.25,-0.525
648,0.011,-0.025,0.004,-0.018,0.006,0.998,0.789,0.25,-0.525
649,0.01,-0.022,-0.001,-0.012,0.005,1.001,0.781,0.258,-0.526
650,0.007,-0.014,-0.002,-0.008,0.0,1.001,0.781,0.237,-0.51
651,0.002,-0.003,-0.002,-0.011,0.005,1.0,0.772,0.243,-0.51
652,0.0,0.0,0.0,-0.013,0.008,1.001,0.783,0.237,-0.511
653,0.0,0.0,0.001,-0.014,0.01,1.002,0.787,0.261,-0.51
654,0.0,0.001,0.001,-0.015,0.009,1.001,0.766,0.262,-0.523
655,0.001,-0.002,0.0,-0.017,0.008,1.001,0.766,0.262,-0.523
656,0.002,-0.013,0.002,-0.018,0.009,0.999,0.786,0.25,-0.507
657,0.006,-0.018,0.004,-0.017,0.011,0.998,0.786,0.25,-0.507
658,0.007,-0.028,0.023,-0.013,0.009,0.994,0.769,0.231,-0.504
659,0.011,-0.032,0.028,-0.009,0.007,0.994,0.771,0.252,-0.514
660,0.009,-0.026,0.042,-0.009,0.014,1.0,0.787,0.259,-0.514
661,0.006,-0.014,0.053,-0.011,0.011,1.002,0.775,0.249,-0.525
662,0.005,-0.013,0.086,-0.011,0.011,1.002,0.775,0.249,-0.525
663,-0.011,0.016,0.03,-0.01,-0.004,0.991,0.757,0.235,-0.504
664,-0.007,0.016,0.028,-0.01,-0.004,0.991,0.759,0.237,-0.516
665,-0.012,0.022,0.088,-0.03,0.001,0.997,0.792,0.262,-0.51
666,-0.012,0.022,0.088,-0.007,0.0,0.992,0.783,0.243,-0.519
667,-0.011,0.004,0.218,0.035,-0.008,0.995,0.774,0.241,-0.519
668,-0.005,0.006,0.361,-0.019,0.0,1.066,0.771,0.243,-0.517
669,0.012,-0.007,0.504,-0.093,-0.003,1.054,0.771,0.243,-0.517
670,-0.004,-0.009,0.641,-0.073,0.015,1.015,0.774,0.235,-0.517
671,0.006,-0.01,0.63,-0.086,0.013,1.021,0.774,0.235,-0.517
672,0.003,0.008,0.723,-0.077,0.047,1.014,0.804,0.232,-0.516
673,-0.008,0.01,0.802,0.015,-0.005,0.979,0.787,0.226,-0.516
674,0.018,-0.046,1.066,0.011,-0.054,0.843,0.789,0.232,-0.513
675,0.002,-0.077,1.2,0.012,0.002,0.786,0.786,0.213,-0.526
676,0.012,-0.072,1.33,0.07,-0.065,0.922,0.786,0.213,-0.526
677,0.002,-0.081,1.563,0.051,-0.037,0.939,0.808,0.217,-0.511
678,-0.028,-0.003,1.785,-0.036,0.042,1.067,0.786,0.214,-0.511
679,-0.028,0.016,1.971,-0.054,0.011,1.303,0.79,0.207,-0.529
680,-0.02,0.023,2.258,0.076,-0.043,1.121,0.801,0.19,-0.507
681,-0.016,0.042,2.634,0.076,-0.043,1.121,0.792,0.172,-0.505
682,-0.013,-0.007,2.949,0.096,-0.005,1.112,0.793,0.166,-0.517
683,-0.048,-0.011,3.174,0.032,-0.005,1.282,0.793,0.166,-0.517
684,-0.062,-0.021,3.397,-0.01,0.001,1.363,0.801,0.147,-0.504
685,-0.062,-0.021,3.397,-0.044,0.039,1.06,0.801,0.147,-0.504
686,-0.02,0.066,3.59,-0.11,-0.085,1.038,0.793,0.114,-0.513
687,-0.011,-0.049,3.819,-0.077,-0.167,1.211,0.802,0.085,-0.519
688,-0.078,-0.033,4.042,-0.08,-0.059,0.998,0.805,0.081,-0.525
689,-0.025,-0.072,4.221,-0.137,-0.086,0.861,0.786,0.055,-0.525
690,-0.015,-0.002,4.333,-0.038,-0.183,0.726,0.786,0.055,-0.525
691,-0.019,0.025,4.542,0.018,-0.093,1.005,0.786,0.036,-0.529
692,-0.016,-0.047,4.822,-0.041,-0.036,1.118,0.781,0.018,-0.49
693,-0.014,-0.105,5.017,-0.125,-0.01,1.036,0.774,-0.003,-0.508
694,-0.041,-0.088,5.213,-0.163,-0.052,1.127,0.762,-0.021,-0.516
695,-0.016,-0.06,5.313,-0.114,-0.156,1.194,0.729,-0.036,-0.523
696,0.0,-0.019,5.264,-0.065,-0.13,1.212,0.744,-0.048,-0.519
697,-0.006,0.0,5.141,-0.065,-0.101,1.346,0.744,-0.048,-0.519
698,-0.062,0.099,4.927,-0.096,-0.037,1.635,0.691,-0.073,-0.513
699,0.017,-0.052,4.918,-0.001,-0.012,1.368,0.691,-0.073,-0.513
700,-0.009,-0.08,5.128,0.102,-0.086,0.901,0.64,-0.108,-0.513
701,-0.025,-0.236,5.62,0.102,-0.086,0.901,0.622,-0.094,-0.525
702,-0.023,-0.112,6.008,-0.005,-0.058,0.959,0.588,-0.118,-0.535
703,0.016,-0.158,6.182,-0.141,-0.07,1.114,0.57,-0.112,-0.52
704,-0.011,-0.093,6.187,-0.122,-0.092,1.069,0.57,-0.112,-0.52
705,-0.064,-0.051,5.932,-0.104,-0.049,0.803,0.514,-0.127,-0.537
706,-0.064,-0.051,5.932,-0.191,-0.005,0.737,0.514,-0.127,-0.537
707,-0.046,-0.03,5.357,-0.201,0.035,0.801,0.486,-0.123,-0.531
708,-0.053,0.035,4.436,-0.179,0.014,0.777,0.465,-0.12,-0.523
709,-0.01,0.035,3.481,-0.081,-0.042,0.979,0.454,-0.124,-0.526
710,-0.014,0.001,2.727,-0.026,-0.003,0.945,0.445,-0.111,-0.528
711,-0.027,0.078,2.117,-0.092,0.036,1.01,0.445,-0.111,-0.528
712,-0.002,-0.018,1.641,-0.037,0.011,1.08,0.414,-0.115,-0.505
713,0.021,-0.047,1.621,-0.11,0.02,0.997,0.427,-0.105,-0.532
714,-0.004,-0.029,1.551,-0.103,-0.015,0.939,0.414,-0.097,-0.526
715,0.004,-0.046,1.437,-0.09,-0.04,0.867,0.412,-0.081,-0.525
716,0.025,-0.025,1.316,-0.075,-0.043,0.949,0.394,-0.078,-0.535
717,0.021,0.003,1.155,-0.077,0.01,1.018,0.394,-0.078,-0.535
718,0.009,0.008,0.818,-0.121,0.035,0.978,0.391,-0.079,-0.544
719,-0.007,0.023,0.524,-0.063,0.017,0.973,0.384,-0.067,-0.528
720,0.002,0.022,0.403,-0.063,0.017,0.973,0.384,-0.067,-0.528
721,0.016,0.035,0.455,-0.003,0.001,1.003,0.385,-0.063,-0.526
722,-0.004,0.023,0.483,-0.078,0.001,1.06,0.378,-0.093,-0.534
723,-0.003,-0.002,0.516,-0.081,0.009,1.043,0.373,-0.07,-0.535
724,-0.003,-0.002,0.516,-0.009,0.0,1.057,0.373,-0.07,-0.535
725,0.0,0.011,0.606,0.01,-0.014,1.039,0.364,-0.069,-0.528
726,-0.013,-0.023,0.62,0.0,-0.012,0.983,0.364,-0.093,-0.52
727,0.002,-0.009,0.62,0.019,-0.017,0.973,0.375,-0.078,-0.537
728,-0.004,-0.007,0.584,0.03,-0.014,0.991,0.361,-0.067,-0.532
729,-0.011,0.007,0.562,0.028,-0.02,1.041,0.358,-0.073,-0.531
730,0.006,0.0,0.708,0.041,-0.03,1.046,0.378,-0.063,-0.541
731,-0.009,-0.011,0.903,0.055,-0.012,1.046,0.378,-0.063,-0.541
732,-0.002,-0.052,1.027,0.104,-0.026,1.148,0.375,-0.058,-0.543
733,-0.049,0.007,1.242,0.154,-0.069,1.152,0.349,-0.054,-0.513
734,-0.07,0.11,1.489,0.115,-0.067,1.128,0.345,-0.042,-0.513
735,-0.041,0.088,1.672,0.031,-0.081,1.068,0.345,-0.04,-0.546
736,-0.011,0.044,1.708,0.063,-0.072,1.01,0.331,-0.039,-0.547
737,-0.021,0.042,1.697,0.033,0.009,1.066,0.331,-0.039,-0.547
738,0.005,-0.019,1.604,-0.058,0.025,1.096,0.334,-0.018,-0.537
739,0.007,-0.005,1.474,-0.137,0.036,1.071,0.33,-0.027,-0.52
740,0.014,-0.05,1.345,-0.174,0.031,0.994,0.322,-0.022,-0.537
741,-0.002,-0.046,1.197,-0.174,0.031,0.994,0.345,-0.021,-0.522
742,-0.007,-0.041,1.106,-0.124,0.022,0.955,0.318,-0.007,-0.516
743,-0.007,-0.041,1.106,-0.1,0.008,1.055,0.318,0.0,-0.528
744,-0.007,-0.009,1.106,-0.109,-0.048,1.13,0.318,0.0,-0.528
745,-0.002,-0.046,0.987,-0.03,-0.054,1.037,0.324,0.006,-0.534
746,-0.001,-0.021,0.89,-0.003,-0.029,1.065,0.333,0.019,-0.508
747,-0.011,0.014,0.854,-0.114,0.048,1.095,0.288,0.004,-0.499
748,-0.002,0.015,0.732,-0.148,0.054,0.956,0.303,0.015,-0.531
749,0.0,0.046,0.707,-0.193,0.017,1.011,0.297,0.012,-0.523
750,-0.009,0.04,0.674,-0.054,0.02,1.02,0.301,0.021,-0.534
751,0.007,0.042,0.64,0.002,0.035,0.992,0.301,0.021,-0.534
752,0.013,0.038,0.54,-0.123,0.045,1.061,0.309,0.007,-0.529
753,-0.014,0.002,0.486,-0.08,0.054,0.989,0.298,0.012,-0.514
754,-0.008,-0.032,0.389,-0.102,0.085,0.904,0.313,0.022,-0.517
755,0.0,-0.023,0.208,-0.099,0.044,0.922,0.294,0.018,-0.519
756,-0.01,-0.054,0.169,-0.054,0.007,0.983,0.303,0.037,-0.526
757,-0.005,-0.015,0.054,-0.088,0.023,0.984,0.316,0.013,-0.528
758,-0.002,-0.018,-0.004,-0.062,0.018,1.002,0.301,0.022,-0.492
759,-0.003,-0.02,-0.018,-0.023,0.008,1.0,0.301,0.022,-0.492
760,-0.003,-0.015,-0.019,-0.023,0.008,1.0,0.295,0.031,-0.519
761,0.0,-0.003,-0.012,-0.016,0.012,1.0,0.309,0.024,-0.517
762,0.002,0.004,-0.007,-0.009,0.012,0.996,0.309,0.024,-0.517
763,0.005,0.013,-0.007,-0.013,0.01,0.997,0.309,0.013,-0.513
764,0.005,0.013,-0.007,-0.017,0.013,0.999,0.31,0.015,-0.534
765,0.006,0.018,-0.009,-0.019,0.012,0.999,0.319,0.013,-0.528
766,0.005,0.025,-0.016,-0.019,0.009,0.997,0.313,0.037,-0.517
767,0.002,0.03,-0.032,-0.02,0.005,0.999,0.313,0.037,-0.517
768,-0.003,0.023,-0.058,-0.021,0.006,1.003,0.304,0.018,-0.528
769,-0.001,0.021,-0.049,-0.027,0.01,1.001,0.306,0.03,-0.532
770,0.0,0.0,-0.031,-0.027,0.012,1.0,0.319,0.022,-0.525
771,0.0,0.0,-0.025,-0.019,0.014,0.998,0.304,0.018,-0.526
772,0.0,0.007,-0.024,-0.017,0.01,0.998,0.306,0.009,-0.526
773,0.002,0.021,-0.025,-0.019,0.009,1.0,0.306,0.009,-0.526
774,0.003,0.017,-0.028,-0.024,0.012,1.001,0.309,0.016,-0.526
775,0.003,0.016,-0.039,-0.031,0.014,1.002,0.289,0.034,-0.525
776,0.001,0.018,-0.088,-0.036,0.024,1.006,0.322,0.015,-0.531
777,-0.001,0.005,-0.193,-0.047,0.033,1.001,0.325,0.018,-0.537
778,0.001,0.0,-0.242,-0.059,0.024,1.008,0.319,0.037,-0.547
779,0.0,-0.032,-0.373,-0.059,0.024,1.008,0.321,0.022,-0.528
780,-0.004,-0.109,-0.552,-0.068,0.044,1.045,0.321,0.022,-0.528
781,-0.025,-0.077,-0.6,-0.048,0.039,1.05,0.301,0.01,-0.531
782,-0.007,-0.115,-0.605,-0.034,-0.031,0.939,0.273,0.025,-0.519
783,-0.016,-0.077,-0.393,0.136,-0.12,0.876,0.31,0.016,-0.541
784,0.003,-0.022,-0.128,0.16,-0.021,0.93,0.3,0.01,-0.522
785,0.019,-0.037,-0.183,0.005,0.083,0.982,0.3,0.009,-0.531
786,0.023,-0.037,-0.289,-0.031,-0.009,1.022,0.3,0.009,-0.531
787,0.011,-0.039,-0.114,-0.022,-0.049,1.014,0.333,0.004,-0.51
788,0.004,-0.045,-0.012,-0.022,-0.01,1.008,0.313,0.027,-0.52
789,0.001,-0.004,0.0,0.0,0.014,1.001,0.313,-0.007,-0.517
790,0.0,-0.004,-0.009,-0.018,0.014,1.001,0.306,-0.001,-0.513
791,0.002,-0.004,-0.003,-0.014,0.015,0.998,0.33,-0.006,-0.516
792,0.002,-0.004,-0.005,-0.014,0.015,1.0,0.328,0.001,-0.514
793,0.002,-0.003,-0.007,-0.016,0.015,1.0,0.328,0.001,-0.514
794,0.002,-0.002,-0.005,-0.013,0.015,0.999,0.322,0.001,-0.523
795,0.002,-0.002,-0.007,-0.014,0.014,1.002,0.31,0.001,-0.528
796,0.003,-0.009,-0.004,-0.013,0.012,1.0,0.307,0.001,-0.516
797,0.002,-0.006,-0.005,-0.013,0.012,1.0,0.307,0.001,-0.516
798,0.002,-0.002,-0.006,-0.016,0.013,1.001,0.316,0.013,-0.541
799,0.002,-0.003,-0.007,-0.014,0.012,1.0,0.309,0.013,-0.532
800,0.002,-0.002,-0.006,-0.013,0.013,0.999,0.315,0.001,-0.52
801,0.002,-0.002,-0.006,-0.012,0.014,1.0,0.315,0.001,-0.52
802,0.002,-0.002,-0.006,-0.011,0.013,0.999,0.318,-0.006,-0.531
803,0.002,-0.002,-0.005,-0.011,0.01,1.0,0.33,0.006,-0.523
804,0.001,-0.002,-0.005,-0.013,0.01,1.001,0.319,0.012,-0.507
805,0.002,-0.002,-0.005,-0.012,0.013,1.0,0.321,0.016,-0.537
806,0.002,-0.002,-0.007,-0.012,0.014,1.001,0.325,0.013,-0.523
807,0.002,-0.003,-0.006,-0.012,0.012,0.999,0.306,0.001,-0.52
808,0.004,-0.001,-0.006,-0.011,0.011,0.999,0.306,0.001,-0.52
809,0.002,-0.002,-0.006,-0.011,0.014,1.0,0.303,0.025,-0.528
810,0.007,-0.003,-0.007,-0.013,0.015,1.0,0.303,-0.004,-0.51
811,0.002,0.0,-0.007,-0.014,0.014,0.999,0.303,-0.004,-0.51
812,0.002,-0.002,-0.006,-0.012,0.014,0.998,0.312,-0.004,-0.513
813,0.002,-0.002,-0.006,-0.011,0.015,0.997,0.316,0.025,-0.535
814,0.001,-0.002,-0.005,-0.01,0.016,0.998,0.303,0.001,-0.505
815,0.002,-0.001,-0.005,-0.01,0.014,0.999,0.303,0.001,-0.505
816,0.002,-0.001,-0.006,-0.011,0.015,1.0,0.325,0.013,-0.534
817,0.002,0.004,-0.007,-0.012,0.015,0.999,0.315,-0.001,-0.519
818,0.002,0.001,-0.007,-0.012,0.015,0.999,0.309,0.01,-0.516
819,0.002,-0.002,-0.007,-0.012,0.013,1.0,0.318,-0.001,-0.526
820,0.002,-0.002,-0.006,-0.012,0.013,1.0,0.309,0.013,-0.529
821,0.002,-0.002,-0.006,-0.013,0.012,0.997,0.325,0.004,-0.534
822,0.002,0.0,-0.006,-0.015,0.014,0.998,0.319,0.012,-0.525
823,0.002,0.0,-0.007,-0.014,0.014,0.999,0.319,0.012,-0.525
824,0.002,-0.002,-0.006,-0.015,0.014,0.999,0.295,0.012,-0.523
825,0.002,-0.003,-0.005,-0.014,0.016,1.001,0.295,0.012,-0.523
826,0.002,-0.001,-0.006,-0.014,0.017,1.001,0.325,0.019,-0.531
827,0.002,-0.002,-0.005,-0.014,0.015,0.998,0.318,0.003,-0.522
828,0.003,-0.002,-0.005,-0.015,0.015,0.999,0.297,0.015,-0.531
829,0.002,-0.002,-0.005,-0.016,0.014,1.0,0.307,0.004,-0.513
830,0.002,-0.002,-0.006,-0.013,0.014,1.0,0.307,0.004,-0.513
831,0.0,0.001,-0.007,-0.012,0.015,1.001,0.3,0.01,-0.511
832,0.001,-0.001,-0.006,-0.013,0.015,1.0,0.319,0.012,-0.531
833,0.002,-0.004,-0.006,-0.012,0.016,0.999,0.316,-0.006,-0.526
834,0.003,-0.002,-0.006,-0.012,0.016,1.001,0.304,0.001,-0.529
835,0.002,-0.001,-0.006,-0.012,0.016,1.001,0.312,-0.001,-0.517
836,0.002,-0.003,-0.005,-0.011,0.013,1.0,0.312,0.0,-0.555
837,0.002,-0.002,-0.005,-0.013,0.012,1.001,0.312,0.0,-0.555
838,0.003,0.0,-0.007,-0.014,0.013,1.002,0.307,0.012,-0.513
839,0.002,-0.002,-0.006,-0.014,0.013,1.002,0.307,0.012,-0.513
840,0.002,-0.002,-0.005,-0.014,0.012,1.0,0.315,0.004,-0.52
841,0.002,-0.002,-0.005,-0.014,0.012,0.999,0.322,0.009,-0.528
842,0.002,-0.004,-0.005,-0.013,0.013,1.001,0.333,-0.003,-0.535
843,0.002,-0.002,-0.006,-0.013,0.014,0.998,0.325,0.0,-0.523
844,0.003,0.0,-0.006,-0.013,0.014,0.997,0.325,0.0,-0.523
845,0.001,-0.002,-0.006,-0.013,0.013,0.998,0.31,0.009,-0.523
846,0.001,-0.002,-0.007,-0.012,0.015,0.998,0.3,0.016,-0.516
847,0.003,-0.002,-0.006,-0.012,0.014,0.999,0.312,-0.004,-0.528
848,0.003,-0.002,-0.006,-0.014,0.013,0.999,0.3,0.001,-0.526
849,0.002,-0.002,-0.006,-0.015,0.014,0.999,0.297,0.001,-0.526
850,0.002,-0.002,-0.005,-0.015,0.013,1.0,0.315,0.012,-0.522
851,0.002,-0.002,-0.005,-0.015,0.012,1.0,0.315,0.012,-0.522
852,0.003,0.004,-0.006,-0.015,0.011,0.998,0.301,0.015,-0.522
853,0.002,0.0,-0.006,-0.013,0.012,0.999,0.301,0.015,-0.522
854,0.002,-0.002,-0.007,-0.013,0.012,1.001,0.324,0.007,-0.528
855,0.002,-0.001,-0.005,-0.013,0.012,1.001,0.316,0.012,-0.501
856,0.002,-0.002,-0.005,-0.015,0.013,1.001,0.313,0.003,-0.541
857,0.002,-0.002,-0.005,-0.016,0.012,0.997,0.313,0.003,-0.541
858,0.003,0.0,-0.007,-0.013,0.012,0.997,0.313,0.001,-0.508
859,0.001,-0.001,-0.007,-0.013,0.013,0.999,0.304,0.012,-0.523
860,0.002,-0.002,-0.006,-0.014,0.011,1.0,0.298,0.009,-0.519
861,0.002,-0.002,-0.006,-0.013,0.012,0.999,0.312,0.003,-0.514
862,0.003,0.0,-0.006,-0.013,0.013,0.999,0.31,0.016,-0.529
863,0.002,-0.002,-0.004,-0.012,0.013,1.001,0.312,0.004,-0.526
864,0.002,-0.001,-0.005,-0.013,0.013,1.001,0.312,0.004,-0.526
865,0.003,-0.003,-0.006,-0.011,0.013,0.999,0.307,0.015,-0.543
866,0.005,-0.011,-0.004,-0.01,0.013,1.001,0.285,0.019,-0.501
867,0.002,-0.005,-0.005,-0.011,0.015,1.002,0.297,0.022,-0.529
868,0.002,-0.001,-0.006,-0.011,0.016,1.001,0.315,0.013,-0.523
869,0.002,-0.001,-0.006,-0.012,0.014,1.001,0.31,0.006,-0.526
870,0.002,-0.002,-0.005,-0.014,0.014,1.0,0.304,-0.016,-0.538
871,0.002,-0.002,-0.005,-0.014,0.015,0.999,0.304,-0.016,-0.538
872,0.002,-0.002,-0.005,-0.015,0.015,0.998,0.307,0.012,-0.529
873,0.002,-0.003,-0.006,-0.014,0.016,0.998,0.283,-0.001,-0.514
874,0.002,-0.003,-0.006,-0.012,0.018,0.999,0.283,-0.001,-0.514
875,0.002,-0.002,-0.006,-0.01,0.015,1.0,0.312,0.007,-0.531
876,0.003,0.0,-0.005,-0.01,0.015,1.0,0.315,0.004,-0.528
877,0.003,-0.001,-0.004,-0.012,0.013,0.999,0.31,0.012,-0.52
878,0.003,-0.001,-0.006,-0.014,0.015,0.999,0.31,0.012,-0.52
879,0.004,0.0,-0.007,-0.014,0.013,1.001,0.309,0.006,-0.517
880,0.004,0.0,-0.007,-0.011,0.012,1.001,0.313,0.006,-0.526
881,0.004,-0.001,-0.006,-0.012,0.013,1.001,0.313,0.009,-0.52
882,0.003,0.0,-0.005,-0.013,0.013,0.999,0.315,0.01,-0.522
883,0.001,-0.002,-0.005,-0.014,0.011,1.0,0.315,0.016,-0.526
884,0.002,-0.001,-0.006,-0.015,0.012,1.0,0.31,0.004,-0.531
885,0.002,-0.001,-0.005,-0.014,0.016,1.001,0.31,0.004,-0.531
886,0.002,-0.002,-0.005,-0.013,0.016,1.001,0.33,0.016,-0.526
887,0.001,-0.002,-0.005,-0.012,0.014,0.999,0.313,0.004,-0.523
888,0.002,0.0,-0.005,-0.013,0.014,1.0,0.313,0.004,-0.523
889,0.002,-0.001,-0.007,-0.013,0.014,1.001,0.309,-0.013,-0.52
890,0.003,-0.002,-0.006,-0.01,0.013,1.0,0.304,0.009,-0.537
891,0.002,-0.002,-0.005,-0.01,0.015,1.0,0.304,0.01,-0.541
892,0.002,-0.002,-0.005,-0.011,0.016,0.999,0.312,0.01,-0.531
893,0.002,-0.002,-0.006,-0.013,0.014,0.998,0.312,0.01,-0.531
894,0.003,-0.006,-0.005,-0.015,0.012,1.0,0.343,0.0,-0.519
895,0.003,-0.004,-0.005,-0.014,0.012,1.0,0.295,0.007,-0.513
896,0.002,-0.001,-0.006,-0.014,0.012,1.0,0.297,-0.004,-0.525
897,0.002,-0.002,-0.006,-0.012,0.012,0.999,0.321,0.012,-0.526
898,0.003,-0.002,-0.007,-0.012,0.013,0.999,0.309,0.013,-0.52
899,0.003,-0.002,-0.007,-0.015,0.013,0.999,0.325,-0.004,-0.535
900,0.004,0.0,-0.005,-0.014,0.012,0.998,0.325,-0.004,-0.535
901,0.003,-0.002,-0.005,-0.013,0.011,1.0,0.325,-0.004,-0.535
902,0.004,-0.002,-0.006,-0.012,0.013,0.999,0.315,0.012,-0.517
903,0.004,-0.002,-0.006,-0.012,0.014,0.999,0.31,-0.003,-0.526
904,0.002,-0.002,-0.005,-0.012,0.013,1.0,0.328,0.012,-0.538
905,0.003,-0.002,-0.006,-0.015,0.012,0.998,0.315,0.022,-0.52
906,0.002,-0.002,-0.006,-0.015,0.014,0.998,0.322,0.0,-0.504
907,0.002,-0.001,-0.007,-0.013,0.015,1.0,0.322,0.0,-0.504
908,0.003,-0.002,-0.006,-0.014,0.015,1.0,0.318,0.006,-0.525
909,0.003,-0.002,-0.005,-0.015,0.014,0.998,0.312,0.028,-0.538
910,0.002,-0.002,-0.006,-0.014,0.014,0.997,0.307,0.006,-0.507
911,0.002,-0.002,-0.006,-0.012,0.014,0.999,0.307,0.0,-0.522
912,0.002,-0.002,-0.006,-0.014,0.013,0.999,0.316,0.024,-0.534
913,0.002,-0.003,-0.005,-0.016,0.014,0.998,0.313,0.006,-0.531
914,0.002,-0.002,-0.005,-0.017,0.015,1.0,0.313,0.006,-0.531
915,0.002,-0.002,-0.006,-0.017,0.015,1.0,0.307,0.007,-0.532
916,0.003,0.002,-0.006,-0.015,0.014,1.002,0.298,0.012,-0.511
917,0.002,-0.001,-0.004,-0.013,0.014,1.001,0.298,0.012,-0.511
918,0.002,-0.002,-0.005,-0.011,0.016,0.998,0.31,-0.004,-0.535
919,0.002,-0.002,-0.006,-0.012,0.014,0.998,0.304,0.025,-0.525
920,0.002,-0.002,-0.006,-0.015,0.012,1.0,0.315,0.004,-0.514
921,0.002,-0.002,-0.005,-0.013,0.012,0.998,0.315,0.004,-0.514
922,0.002,-0.002,-0.005,-0.01,0.013,0.999,0.3,0.013,-0.532
923,0.004,0.0,-0.005,-0.013,0.014,1.001,0.306,0.028,-0.52
924,0.002,0.0,-0.006,-0.014,0.014,1.0,0.307,0.013,-0.511
925,0.002,-0.002,-0.006,-0.012,0.015,1.0,0.322,0.027,-0.538
926,0.002,-0.002,-0.006,-0.013,0.015,0.999,0.312,0.016,-0.525
927,0.003,-0.002,-0.006,-0.012,0.014,0.998,0.3,0.001,-0.523
928,0.003,-0.003,-0.004,-0.011,0.014,0.998,0.304,0.012,-0.538
929,0.003,-0.002,-0.005,-0.011,0.013,0.998,0.304,0.012,-0.538
930,0.003,-0.006,-0.005,-0.014,0.014,1.0,0.306,0.024,-0.496
931,0.001,-0.003,-0.005,-0.014,0.015,1.0,0.306,0.024,-0.496
932,0.002,-0.002,-0.005,-0.013,0.014,0.998,0.315,0.01,-0.528
933,0.003,-0.001,-0.005,-0.013,0.013,0.997,0.294,0.016,-0.538
934,0.002,-0.001,-0.004,-0.013,0.013,0.997,0.319,0.0,-0.514
935,0.003,-0.002,-0.004,-0.013,0.014,0.998,0.324,0.013,-0.535
936,0.002,-0.002,-0.004,-0.015,0.014,1.001,0.324,0.013,-0.535
937,0.002,-0.003,-0.006,-0.015,0.012,1.0,0.318,-0.016,-0.529
938,0.003,0.0,-0.005,-0.014,0.012,0.999,0.307,-0.012,-0.52
939,0.003,0.0,-0.006,-0.013,0.013,1.001,0.33,-0.004,-0.519
940,0.003,0.0,-0.006,-0.014,0.015,1.0,0.31,0.007,-0.535
941,0.002,-0.002,-0.006,-0.014,0.015,0.998,0.319,-0.004,-0.537
942,0.002,-0.002,-0.005,-0.012,0.016,0.998,0.319,-0.004,-0.537
943,0.002,-0.002,-0.006,-0.012,0.013,0.999,0.312,-0.001,-0.52
944,0.001,-0.004,-0.006,-0.013,0.012,1.0,0.307,0.009,-0.516
945,0.002,-0.002,-0.006,-0.011,0.013,1.0,0.313,0.01,-0.51
946,0.002,-0.002,-0.005,-0.01,0.015,0.999,0.325,0.006,-0.523
947,0.002,-0.002,-0.006,-0.012,0.016,1.0,0.307,-0.012,-0.523
948,0.002,-0.001,-0.005,-0.014,0.015,1.0,0.301,0.007,-0.531
949,0.002,-0.001,-0.006,-0.014,0.015,1.001,0.307,0.003,-0.529
950,0.002,-0.001,-0.006,-0.012,0.015,1.001,0.307,0.003,-0.529
951,0.001,-0.009,-0.004,-0.013,0.013,1.0,0.306,0.009,-0.535
952,0.001,-0.004,-0.005,-0.013,0.013,0.998,0.301,0.009,-0.525
953,0.002,-0.002,-0.005,-0.012,0.015,0.998,0.319,0.003,-0.537
954,0.002,-0.003,-0.004,-0.012,0.015,0.998,0.319,0.015,-0.522
955,0.002,-0.002,-0.004,-0.013,0.014,1.0,0.322,0.0,-0.525
956,0.003,-0.002,-0.006,-0.012,0.014,0.999,0.322,0.0,-0.525
957,0.002,0.0,-0.006,-0.013,0.013,1.0,0.315,0.013,-0.507
958,0.002,0.0,-0.006,-0.014,0.012,1.001,0.295,0.007,-0.525
959,0.002,-0.007,-0.005,-0.012,0.013,1.001,0.315,0.007,-0.528
960,0.003,-0.002,-0.006,-0.011,0.014,1.001,0.303,0.024,-0.525
961,0.002,-0.001,-0.006,-0.011,0.014,1.002,0.316,-0.009,-0.535
962,0.002,-0.002,-0.005,-0.012,0.017,1.001,0.318,0.012,-0.517
963,0.002,-0.001,-0.006,-0.014,0.015,1.001,0.315,0.015,-0.52
964,0.002,-0.002,-0.006,-0.013,0.012,1.001,0.315,0.015,-0.52
965,0.003,-0.007,-0.005,-0.011,0.012,1.001,0.297,0.001,-0.526
966,0.003,-0.004,-0.006,-0.012,0.015,1.0,0.297,0.001,-0.526
967,0.002,-0.002,-0.006,-0.015,0.016,0.999,0.327,0.012,-0.528
968,0.002,0.0,-0.005,-0.015,0.015,0.999,0.322,0.019,-0.541
969,0.001,0.0,-0.006,-0.014,0.014,1.0,0.313,0.016,-0.522
970,0.002,0.0,-0.005,-0.013,0.015,1.001,0.303,0.006,-0.523
971,0.002,-0.002,-0.005,-0.014,0.017,1.0,0.303,0.006,-0.523
972,0.004,0.0,-0.006,-0.013,0.016,0.999,0.315,0.009,-0.516
973,0.004,-0.001,-0.005,-0.012,0.014,0.999,0.318,0.001,-0.517
974,0.002,-0.001,-0.005,-0.012,0.015,0.999,0.309,0.016,-0.532
975,0.002,-0.001,-0.006,-0.013,0.015,1.0,0.319,0.001,-0.526
976,0.002,0.0,-0.006,-0.012,0.014,1.0,0.3,0.013,-0.529
977,0.002,-0.001,-0.006,-0.012,0.016,1.0,0.3,0.013,-0.529
978,0.003,-0.001,-0.006,-0.014,0.015,0.999,0.307,0.001,-0.522
979,0.003,-0.001,-0.006,-0.013,0.013,0.999,0.31,0.015,-0.517
980,0.002,0.002,-0.007,-0.011,0.013,1.0,0.31,0.015,-0.517
981,0.002,-0.001,-0.006,-0.011,0.014,1.0,0.3,0.009,-0.516
982,0.002,-0.001,-0.005,-0.012,0.014,1.001,0.303,0.004,-0.534
983,0.002,-0.002,-0.005,-0.014,0.013,1.001,0.312,-0.382,-0.523
984,0.002,-0.002,-0.006,-0.014,0.013,1.0,0.297,0.024,-0.511
985,0.002,-0.002,-0.006,-0.015,0.013,1.001,0.297,0.024,-0.511
986,0.002,0.0,-0.005,-0.015,0.014,1.001,0.325,0.013,-0.535
987,0.002,0.0,-0.006,-0.014,0.015,0.999,0.306,-0.006,-0.52
988,0.002,-0.002,-0.007,-0.015,0.013,0.998,0.312,0.004,-0.519
989,0.002,-0.002,-0.007,-0.016,0.012,0.998,0.318,-0.003,-0.51
990,0.002,-0.003,-0.005,-0.014,0.013,0.999,0.327,0.004,-0.513
991,0.002,-0.002,-0.005,-0.013,0.013,1.0,0.327,0.004,-0.513
992,0.002,-0.002,-0.006,-0.012,0.013,0.999,0.301,0.019,-0.54
993,0.002,-0.005,-0.005,-0.012,0.013,0.999,0.3,0.015,-0.519
994,0.003,-0.002,-0.005,-0.012,0.013,0.999,0.3,0.015,-0.519
995,0.002,0.0,-0.006,-0.012,0.012,0.999,0.319,0.007,-0.528
996,0.003,-0.002,-0.005,-0.012,0.011,1.0,0.322,0.003,-0.522
997,0.003,-0.001,-0.005,-0.013,0.011,1.0,0.306,0.018,-0.523
998,0.003,-0.001,-0.005,-0.014,0.013,1.0,0.306,0.018,-0.523
999,0.002,-0.002,-0.005,-0.014,0.012,1.0,0.327,0.003,-0.517
1000,0.002,-0.002,-0.005,-0.013,0.01,0.998,0.301,0.007,-0.52
1001,0.002,0.0,-0.005,-0.014,0.013,1.0,0.312,0.007,-0.52
1002,0.002,0.0,-0.007,-0.013,0.014,1.0,0.316,0.018,-0.526
1003,0.002,-0.002,-0.005,-0.011,0.013,0.999,0.306,-0.004,-0.543
1004,0.002,-0.002,-0.005,-0.012,0.015,1.0,0.3,0.01,-0.516
1005,0.002,-0.002,-0.006,-0.013,0.016,0.999,0.3,0.01,-0.516
1006,0.002,-0.002,-0.006,-0.012,0.014,0.999,0.319,-0.001,-0.52
1007,0.002,-0.011,-0.005,-0.012,0.012,0.999,0.3,-0.007,-0.52
1008,0.002,-0.004,-0.005,-0.012,0.013,0.998,0.3,0.376,-0.525
1009,0.001,-0.003,-0.006,-0.011,0.014,1.0,0.303,0.013,-0.519
1010,0.001,-0.003,-0.007,-0.012,0.013,1.001,0.324,0.006,-0.543
1011,0.002,-0.002,-0.007,-0.013,0.014,0.999,0.336,0.01,-0.522
1012,0.003,-0.001,-0.006,-0.014,0.016,1.001,0.336,0.01,-0.522
1013,0.002,-0.002,-0.005,-0.013,0.015,1.001,0.313,0.001,-0.522
1014,0.002,-0.005,-0.004,-0.013,0.013,0.998,0.312,0.001,-0.502
1015,0.002,-0.002,-0.005,-0.013,0.013,0.998,0.312,0.001,-0.502
1016,0.002,-0.002,-0.005,-0.011,0.013,0.997,0.303,-0.001,-0.523
1017,0.003,-0.001,-0.004,-0.01,0.014,0.996,0.31,-0.006,-0.52
1018,0.003,-0.001,-0.004,-0.01,0.013,0.997,0.297,0.0,-0.516
1019,0.002,-0.002,-0.006,-0.012,0.013,0.998,0.312,0.006,-0.52
1020,0.002,-0.001,-0.006,-0.016,0.015,0.999,0.312,0.006,-0.52
1021,0.002,-0.004,-0.005,-0.014,0.016,0.999,0.3,0.013,-0.507
1022,0.002,-0.003,-0.006,-0.012,0.015,0.998,0.3,0.013,-0.507
1023,0.002,-0.002,-0.006,-0.012,0.015,0.999,0.312,0.013,-0.517
1024,0.002,-0.001,-0.005,-0.012,0.015,0.999,0.318,0.007,-0.532
1025,0.002,-0.001,-0.006,-0.011,0.013,1.0,0.327,0.006,-0.534
1026,0.003,-0.001,-0.007,-0.011,0.012,1.0,0.307,-0.009,-0.534
1027,0.003,-0.002,-0.006,-0.012,0.011,1.001,0.307,-0.009,-0.534
1028,0.004,0.002,-0.007,-0.012,0.012,1.001,0.31,0.0,-0.525
1029,0.003,0.0,-0.005,-0.013,0.015,0.999,0.31,0.0,-0.525
1030,0.002,-0.001,-0.005,-0.013,0.016,1.0,0.306,0.001,-0.52
1031,0.002,-0.001,-0.005,-0.013,0.014,1.001,0.31,0.021,-0.528
1032,0.002,-0.001,-0.006,-0.013,0.015,1.001,0.316,0.003,-0.52
1033,0.002,-0.002,-0.004,-0.015,0.015,1.0,0.3,0.01,-0.526
1034,0.003,-0.002,-0.005,-0.015,0.016,0.999,0.3,0.01,-0.526
1035,0.002,-0.004,-0.005,-0.014,0.015,0.999,0.309,0.009,-0.511
1036,0.002,-0.001,-0.007,-0.014,0.014,1.0,0.307,0.01,-0.51
1037,0.002,0.0,-0.005,-0.014,0.015,0.998,0.321,-0.004,-0.531
1038,0.002,0.0,-0.005,-0.014,0.015,0.999,0.307,0.0,-0.535
1039,0.002,-0.001,-0.006,-0.013,0.017,1.0,0.313,0.009,-0.529
1040,0.002,-0.001,-0.006,-0.01,0.017,0.999,0.313,0.009,-0.529
1041,0.003,-0.002,-0.005,-0.01,0.018,1.0,0.318,-0.012,-0.528
1042,0.002,-0.001,-0.005,-0.011,0.016,0.999,0.306,0.012,-0.531
1043,0.003,-0.002,-0.007,-0.012,0.014,0.997,0.306,0.012,-0.531
1044,0.002,-0.004,-0.006,-0.013,0.015,1.0,0.297,0.009,-0.534
1045,0.002,-0.003,-0.006,-0.013,0.015,1.001,0.304,0.006,-0.52
1046,0.003,-0.001,-0.006,-0.013,0.015,0.999,0.307,0.003,-0.525
1047,0.002,-0.001,-0.006,-0.014,0.015,0.998,0.307,0.003,-0.525
1048,0.002,0.0,-0.006,-0.013,0.014,0.997,0.298,-0.016,-0.522
1049,0.001,-0.001,-0.006,-0.012,0.014,0.998,0.307,0.015,-0.526
1050,0.001,-0.002,-0.005,-0.013,0.012,0.999,0.294,0.01,-0.501
1051,0.002,-0.002,-0.006,-0.014,0.013,1.0,0.304,0.021,-0.513
1052,0.003,-0.002,-0.005,-0.013,0.015,0.998,0.303,0.009,-0.517
1053,0.003,-0.001,-0.006,-0.013,0.015,0.998,0.31,-0.003,-0.543
1054,0.002,-0.002,-0.005,-0.011,0.013,0.999,0.324,0.01,-0.513
1055,0.002,-0.002,-0.006,-0.011,0.013,1.0,0.324,0.01,-0.513
1056,0.002,-0.002,-0.006,-0.013,0.015,1.001,0.309,0.004,-0.519
1057,0.002,0.0,-0.006,-0.011,0.015,0.999,0.309,0.004,-0.519
1058,0.002,0.0,-0.006,-0.011,0.013,1.0,0.301,0.016,-0.528
1059,0.002,0.0,-0.006,-0.014,0.013,1.001,0.319,0.018,-0.543
1060,0.002,-0.001,-0.005,-0.013,0.012,1.001,0.319,0.016,-0.522
1061,0.002,0.0,-0.006,-0.013,0.013,1.001,0.319,0.016,-0.522
1062,0.001,-0.002,-0.005,-0.014,0.015,1.001,0.322,0.01,-0.526
1063,0.001,-0.002,-0.005,-0.013,0.014,0.999,0.3,0.012,-0.538
1064,0.002,-0.002,-0.006,-0.012,0.012,0.999,0.313,0.009,-0.523
1065,0.002,-0.002,-0.007,-0.015,0.014,1.0,0.309,0.003,-0.517
1066,0.003,-0.002,-0.007,-0.017,0.014,1.001,0.3,0.007,-0.519
1067,0.002,-0.003,-0.006,-0.016,0.014,0.999,0.324,-0.001,-0.523
1068,0.002,-0.002,-0.005,-0.013,0.013,0.999,0.324,-0.001,-0.523
1069,0.002,-0.001,-0.006,-0.013,0.011,1.003,0.315,-0.001,-0.528
1070,0.0,0.0,-0.006,-0.014,0.012,1.003,0.325,0.028,-0.51
1071,0.002,-0.001,-0.007,-0.014,0.012,1.002,0.325,0.028,-0.51
1072,0.002,-0.002,-0.006,-0.013,0.012,1.0,0.312,-0.001,-0.531
1073,0.002,-0.002,-0.006,-0.013,0.012,1.0,0.325,0.015,-0.514
1074,0.002,-0.002,-0.005,-0.013,0.013,0.999,0.316,0.007,-0.517
1075,0.001,-0.001,-0.006,-0.014,0.014,0.999,0.309,-0.009,-0.54
1076,0.001,-0.001,-0.006,-0.013,0.016,0.999,0.309,-0.009,-0.54
1077,0.003,-0.002,-0.005,-0.013,0.016,0.999,0.328,0.007,-0.529
1078,0.003,-0.002,-0.005,-0.013,0.017,1.001,0.304,0.021,-0.525
1079,0.003,-0.002,-0.005,-0.012,0.016,1.002,0.301,0.009,-0.535
1080,0.002,-0.002,-0.005,-0.012,0.012,1.001,0.313,0.003,-0.529
1081,0.002,-0.002,-0.006,-0.013,0.013,1.0,0.318,0.012,-0.537
1082,0.003,-0.002,-0.007,-0.014,0.014,1.0,0.307,0.003,-0.514
1083,0.003,-0.002,-0.007,-0.016,0.014,0.998,0.307,0.003,-0.514
1084,0.001,-0.016,-0.004,-0.015,0.015,0.998,0.315,0.019,-0.514
1085,0.002,-0.007,-0.005,-0.01,0.014,0.999,0.325,0.015,-0.523
1086,0.002,-0.002,-0.005,-0.01,0.014,0.999,0.316,-0.016,-0.537
1087,0.002,-0.001,-0.007,-0.011,0.014,0.999,0.325,0.012,-0.538
1088,0.002,0.0,-0.007,-0.01,0.014,1.001,0.304,0.01,-0.531
1089,0.002,-0.001,-0.006,-0.012,0.014,1.001,0.304,0.01,-0.531
1090,0.002,-0.002,-0.005,-0.013,0.015,1.0,0.321,0.013,-0.52
1091,0.004,0.002,-0.005,-0.013,0.012,1.001,0.301,0.013,-0.526
1092,0.003,0.001,-0.005,-0.013,0.012,1.0,0.301,0.013,-0.526
1093,0.002,-0.001,-0.007,-0.013,0.012,1.0,0.316,0.006,-0.528
1094,0.002,-0.002,-0.005,-0.013,0.016,1.0,0.31,0.007,-0.523
1095,0.002,-0.002,-0.005,-0.015,0.015,1.0,0.313,-0.003,-0.519
1096,0.002,-0.002,-0.005,-0.015,0.013,1.0,0.309,0.004,-0.525
1097,0.002,-0.002,-0.004,-0.012,0.013,0.998,0.309,0.004,-0.525
1098,0.002,0.0,-0.004,-0.012,0.012,0.998,0.295,0.006,-0.519
1099,0.002,0.0,-0.005,-0.013,0.012,0.999,0.295,0.0,-0.516
1100,0.002,0.0,-0.006,-0.012,0.011,0.999,0.313,-0.009,-0.535
1101,0.002,-0.001,-0.005,-0.013,0.013,1.0,0.319,0.007,-0.543
1102,0.002,-0.002,-0.006,-0.015,0.014,1.0,0.312,0.012,-0.522
1103,0.002,-0.002,-0.006,-0.015,0.012,1.001,0.312,0.012,-0.522
1104,0.002,-0.001,-0.006,-0.012,0.011,1.001,0.319,0.013,-0.513
1105,0.0,-0.002,-0.006,-0.013,0.012,0.999,0.301,0.009,-0.517
1106,0.002,-0.002,-0.006,-0.014,0.015,0.998,0.301,0.009,-0.517
1107,0.002,-0.002,-0.006,-0.01,0.014,0.999,0.312,0.01,-0.534
1108,0.002,0.0,-0.006,-0.012,0.011,0.999,0.324,0.012,-0.529
1109,0.003,-0.002,-0.005,-0.015,0.012,0.999,0.304,0.012,-0.516
1110,0.003,-0.002,-0.006,-0.015,0.015,0.999,0.309,-0.007,-0.529
1111,0.002,-0.002,-0.006,-0.016,0.016,0.997,0.309,-0.007,-0.529
1112,0.002,0.0,-0.006,-0.016,0.016,0.997,0.304,0.01,-0.522
1113,0.002,-0.002,-0.005,-0.015,0.013,0.998,0.298,0.013,-0.507
1114,0.003,-0.001,-0.006,-0.014,0.012,1.0,0.324,0.006,-0.52
1115,0.002,-0.003,-0.006,-0.011,0.014,0.998,0.304,0.006,-0.523
1116,0.002,-0.002,-0.006,-0.01,0.013,0.998,0.327,0.006,-0.528
1117,0.002,-0.002,-0.006,-0.011,0.012,0.998,0.304,0.004,-0.552
1118,0.002,-0.002,-0.007,-0.012,0.014,0.998,0.304,0.004,-0.552
1119,0.002,0.0,-0.007,-0.012,0.015,0.999,0.28,-0.004,-0.501
1120,0.004,0.0,-0.006,-0.013,0.014,1.0,0.28,-0.004,-0.501
1121,0.002,-0.002,-0.005,-0.012,0.013,1.0,0.303,-0.007,-0.519
1122,0.002,-0.002,-0.006,-0.01,0.014,1.0,0.319,-0.006,-0.517
1123,0.002,-0.002,-0.006,-0.013,0.014,1.0,0.327,0.004,-0.514
1124,0.002,-0.002,-0.006,-0.014,0.013,1.001,0.327,0.004,-0.514
1125,0.002,0.0,-0.007,-0.011,0.013,0.998,0.31,-0.004,-0.526
1126,0.002,0.002,-0.007,-0.012,0.012,0.998,0.292,0.006,-0.511
1127,0.002,-0.001,-0.006,-0.015,0.013,1.001,0.3,0.006,-0.526
1128,0.003,-0.001,-0.006,-0.014,0.016,1.0,0.312,-0.003,-0.526
1129,0.003,-0.002,-0.005,-0.012,0.015,0.997,0.298,0.013,-0.528
1130,0.004,-0.001,-0.006,-0.013,0.014,0.998,0.31,-0.003,-0.544
1131,0.003,-0.002,-0.006,-0.013,0.014,1.0,0.31,-0.003,-0.544
1132,0.002,-0.002,-0.006,-0.013,0.014,1.0,0.328,0.004,-0.526
1133,0.002,-0.004,-0.006,-0.012,0.013,1.0,0.294,0.015,-0.513
1134,0.002,-0.005,-0.006,-0.011,0.014,1.0,0.294,0.015,-0.513
1135,0.003,-0.003,-0.006,-0.012,0.013,0.999,0.309,0.013,-0.513
1136,0.003,-0.003,-0.006,-0.013,0.012,0.999,0.307,0.01,-0.526
1137,0.003,-0.003,-0.006,-0.011,0.013,1.0,0.3,0.009,-0.526
1138,0.004,-0.002,-0.007,-0.013,0.015,1.0,0.3,0.009,-0.526
1139,0.003,-0.004,-0.006,-0.013,0.015,1.0,0.294,0.013,-0.532
1140,0.002,-0.006,-0.006,-0.013,0.015,0.999,0.327,-0.004,-0.513
1141,0.002,-0.002,-0.005,-0.014,0.016,0.996,0.297,0.007,-0.528
1142,0.002,0.0,-0.006,-0.013,0.014,0.998,0.306,0.003,-0.528
1143,0.002,-0.001,-0.006,-0.012,0.013,1.0,0.309,0.022,-0.54
1144,0.002,-0.002,-0.007,-0.014,0.012,1.0,0.319,-0.004,-0.508
1145,0.002,-0.001,-0.006,-0.014,0.013,1.001,0.312,-0.001,-0.519
1146,0.002,-0.002,-0.005,-0.012,0.016,1.0,0.312,-0.001,-0.519
1147,0.003,-0.009,-0.004,-0.011,0.015,1.0,0.301,0.021,-0.511
1148,0.002,-0.004,-0.005,-0.012,0.014,1.0,0.301,0.021,-0.511
1149,0.002,0.0,-0.007,-0.013,0.014,1.0,0.307,0.013,-0.514
1150,0.002,0.0,-0.005,-0.013,0.015,1.001,0.304,-0.001,-0.52
1151,0.002,-0.001,-0.006,-0.013,0.015,1.001,0.307,0.01,-0.532
1152,0.003,-0.001,-0.006,-0.013,0.014,1.001,0.309,0.001,-0.517
1153,0.003,-0.001,-0.005,-0.014,0.014,1.0,0.309,0.001,-0.517
1154,0.001,-0.003,-0.006,-0.014,0.014,0.999,0.315,0.007,-0.52
1155,0.004,-0.002,-0.005,-0.014,0.015,0.999,0.298,-0.009,-0.511
1156,0.004,-0.002,-0.005,-0.014,0.016,1.0,0.307,0.007,-0.511
1157,0.003,-0.003,-0.006,-0.012,0.015,1.002,0.313,0.001,-0.535
1158,0.003,-0.002,-0.007,-0.011,0.013,1.0,0.319,-0.007,-0.541
1159,0.002,-0.002,-0.007,-0.011,0.013,0.998,0.319,-0.007,-0.541
1160,0.002,-0.001,-0.007,-0.011,0.015,1.001,0.316,0.007,-0.537
1161,0.001,-0.009,-0.004,-0.011,0.014,1.001,0.297,0.004,-0.502
1162,0.002,-0.004,-0.005,-0.011,0.013,0.999,0.312,0.021,-0.526
1163,0.002,-0.001,-0.006,-0.012,0.016,1.0,0.31,0.007,-0.54
1164,0.002,-0.002,-0.005,-0.013,0.016,0.999,0.333,0.025,-0.538
1165,0.002,-0.002,-0.005,-0.011,0.014,1.0,0.301,0.013,-0.528
1166,0.002,-0.002,-0.004,-0.012,0.013,1.001,0.295,0.004,-0.526
1167,0.003,-0.001,-0.006,-0.014,0.012,1.001,0.295,0.004,-0.526
1168,0.003,-0.002,-0.006,-0.014,0.013,0.999,0.306,0.018,-0.517
1169,0.003,-0.002,-0.005,-0.014,0.015,0.998,0.306,0.018,-0.517
1170,0.002,-0.002,-0.005,-0.013,0.016,1.0,0.316,-0.009,-0.535
1171,0.002,-0.002,-0.005,-0.013,0.015,1.002,0.301,0.015,-0.534
1172,0.002,-0.001,-0.006,-0.013,0.015,1.002,0.318,0.006,-0.514
1173,0.002,0.0,-0.006,-0.013,0.013,1.0,0.319,0.012,-0.538
1174,0.002,-0.002,-0.005,-0.013,0.013,1.0,0.319,0.012,-0.538
1175,0.003,-0.003,-0.005,-0.014,0.012,1.0,0.31,0.007,-0.51
1176,0.003,-0.003,-0.005,-0.012,0.014,1.0,0.327,0.012,-0.525
1177,0.002,-0.004,-0.006,-0.013,0.015,1.001,0.315,-0.009,-0.522
1178,0.002,-0.001,-0.006,-0.014,0.013,1.0,0.295,-0.01,-0.535
1179,0.002,-0.002,-0.005,-0.012,0.014,1.0,0.3,0.006,-0.532
1180,0.002,-0.002,-0.005,-0.014,0.017,1.001,0.3,0.006,-0.532
1181,0.002,-0.003,-0.005,-0.015,0.016,0.999,0.315,0.006,-0.543
1182,0.005,0.001,-0.007,-0.014,0.017,0.998,0.309,-0.003,-0.505
1183,0.004,-0.001,-0.006,-0.013,0.014,1.0,0.309,-0.003,-0.505
1184,0.004,-0.001,-0.006,-0.012,0.014,0.999,0.31,0.019,-0.52
1185,0.004,-0.002,-0.006,-0.012,0.016,0.998,0.306,-0.004,-0.534
1186,0.002,-0.001,-0.006,-0.011,0.017,0.997,0.297,0.013,-0.538
1187,0.003,-0.002,-0.005,-0.011,0.016,0.999,0.316,-0.003,-0.516
1188,0.002,-0.002,-0.006,-0.013,0.014,1.002,0.316,-0.003,-0.516
1189,0.0,-0.009,-0.005,-0.013,0.014,1.001,0.328,0.016,-0.517
1190,0.001,-0.002,-0.005,-0.011,0.013,1.0,0.321,0.013,-0.523
1191,0.002,0.0,-0.006,-0.011,0.013,1.0,0.316,-0.016,-0.523
1192,0.002,-0.001,-0.006,-0.012,0.013,1.0,0.304,0.003,-0.514
1193,0.002,0.0,-0.007,-0.013,0.015,1.001,0.318,-0.007,-0.508
1194,0.003,-0.001,-0.007,-0.013,0.017,1.0,0.318,-0.007,-0.508
1195,0.002,0.0,-0.007,-0.014,0.015,0.997,0.306,0.006,-0.534
1196,0.002,0.0,-0.007,-0.013,0.016,0.997,0.301,0.019,-0.504
1197,0.002,-0.005,-0.004,-0.013,0.015,1.0,0.301,0.019,-0.504
1198,0.002,-0.001,-0.005,-0.013,0.014,1.0,0.294,0.006,-0.528
1199,0.003,0.0,-0.005,-0.013,0.013,1.0,0.321,0.012,-0.537
1200,0.003,-0.002,-0.005,-0.013,0.012,1.0,0.3,0.001,-0.519
1201,0.002,-0.002,-0.006,-0.011,0.013,1.0,0.3,0.001,-0.519
1202,0.003,-0.002,-0.006,-0.011,0.015,1.001,0.307,0.018,-0.528
1203,0.005,-0.004,-0.005,-0.012,0.016,0.999,0.316,0.006,-0.511
1204,0.004,-0.003,-0.005,-0.012,0.014,0.998,0.319,-0.013,-0.546
1205,0.002,-0.002,-0.005,-0.015,0.013,0.998,0.318,0.013,-0.528
1206,0.002,-0.004,-0.005,-0.014,0.012,0.999,0.307,0.024,-0.514
1207,0.002,-0.002,-0.005,-0.014,0.011,0.999,0.303,0.007,-0.513
1208,0.003,-0.002,-0.007,-0.014,0.012,1.0,0.297,0.019,-0.52
1209,0.002,-0.003,-0.005,-0.012,0.013,1.0,0.297,0.019,-0.52
1210,0.002,-0.004,-0.005,-0.012,0.013,1.0,0.306,-0.007,-0.523
1211,0.002,-0.001,-0.006,-0.012,0.013,1.0,0.306,-0.007,-0.523
1212,0.002,-0.002,-0.005,-0.016,0.013,0.999,0.327,0.012,-0.523
1213,0.002,-0.003,-0.006,-0.015,0.009,1.0,0.313,-0.003,-0.52
1214,0.003,-0.004,-0.004,-0.013,0.01,1.003,0.316,0.012,-0.543
1215,0.003,-0.004,-0.004,-0.013,0.012,1.001,0.316,0.012,-0.543
1216,0.002,-0.002,-0.005,-0.013,0.013,1.001,0.306,0.021,-0.537
1217,0.003,-0.001,-0.007,-0.013,0.015,1.002,0.313,0.004,-0.532
1218,0.002,-0.001,-0.005,-0.013,0.015,1.001,0.313,0.004,-0.532
1219,0.001,-0.001,-0.005,-0.015,0.014,1.002,0.31,0.0,-0.514
1220,0.003,-0.002,-0.006,-0.014,0.015,1.001,0.321,0.004,-0.535
1221,0.004,-0.002,-0.006,-0.013,0.015,1.001,0.313,0.016,-0.537
1222,0.004,-0.002,-0.007,-0.013,0.014,1.0,0.319,0.01,-0.531
1223,0.003,0.0,-0.007,-0.013,0.012,0.999,0.319,0.01,-0.531
1224,0.001,0.004,-0.007,-0.013,0.013,0.998,0.312,0.018,-0.523
1225,0.001,0.0,-0.007,-0.014,0.016,0.997,0.313,0.001,-0.529
1226,0.003,-0.002,-0.006,-0.012,0.015,0.997,0.313,0.006,-0.514
1227,0.002,-0.002,-0.005,-0.012,0.013,0.999,0.322,0.013,-0.523
1228,0.002,-0.004,-0.004,-0.016,0.013,1.001,0.321,0.015,-0.526
1229,0.002,-0.002,-0.005,-0.015,0.014,1.0,0.321,0.015,-0.526
1230,0.003,-0.002,-0.007,-0.012,0.014,0.998,0.303,0.016,-0.534
1231,0.003,-0.005,-0.006,-0.01,0.013,1.0,0.297,0.025,-0.528
1232,0.002,0.0,-0.007,-0.01,0.013,1.0,0.297,0.025,-0.528
1233,0.002,-0.002,-0.007,-0.013,0.013,1.001,0.307,0.007,-0.54
1234,0.002,-0.001,-0.006,-0.014,0.012,1.0,0.307,-0.001,-0.508
1235,0.002,-0.001,-0.006,-0.013,0.013,0.999,0.307,0.015,-0.516
1236,0.002,-0.001,-0.005,-0.012,0.015,0.998,0.306,0.013,-0.52
1237,0.002,0.0,-0.005,-0.012,0.015,0.999,0.306,0.013,-0.52
1238,0.002,-0.002,-0.005,-0.012,0.014,0.999,0.304,0.007,-0.51
1239,0.002,-0.002,-0.005,-0.012,0.014,0.999,0.298,-0.016,-0.522
1240,0.002,0.0,-0.006,-0.01,0.014,1.001,0.324,0.012,-0.538
1241,0.003,-0.003,-0.006,-0.012,0.014,1.002,0.297,0.013,-0.526
1242,0.002,-0.003,-0.005,-0.016,0.015,1.0,0.31,-0.001,-0.52
1243,0.002,-0.002,-0.005,-0.015,0.014,0.997,0.315,0.009,-0.537
1244,0.002,-0.002,-0.005,-0.013,0.012,0.997,0.315,0.009,-0.537
1245,0.006,-0.003,-0.007,-0.012,0.014,1.001,0.307,0.009,-0.525
1246,0.004,-0.002,-0.006,-0.013,0.015,1.0,0.307,0.009,-0.525
1247,0.002,-0.002,-0.006,-0.013,0.013,1.0,0.286,-0.003,-0.538
1248,0.002,-0.003,-0.007,-0.012,0.016,1.0,0.312,0.01,-0.529
1249,0.002,-0.002,-0.006,-0.013,0.014,0.999,0.306,-0.003,-0.528
1250,0.002,-0.002,-0.006,-0.013,0.011,1.0,0.306,-0.003,-0.528
1251,0.002,-0.001,-0.006,-0.013,0.011,1.0,0.298,0.018,-0.523
1252,0.002,-0.002,-0.006,-0.014,0.012,1.001,0.318,0.015,-0.531
1253,0.003,0.0,-0.007,-0.014,0.014,0.999,0.331,0.015,-0.52
1254,0.003,-0.001,-0.006,-0.013,0.013,0.999,0.312,0.015,-0.526
1255,0.003,-0.001,-0.006,-0.015,0.012,1.0,0.309,0.004,-0.526
1256,0.004,-0.002,-0.005,-0.016,0.015,1.001,0.295,0.006,-0.525
1257,0.003,-0.002,-0.006,-0.016,0.015,1.0,0.306,-0.001,-0.525
1258,0.003,-0.004,-0.005,-0.013,0.014,1.0,0.306,-0.001,-0.525
1259,0.002,-0.009,-0.004,-0.012,0.015,1.001,0.312,0.003,-0.529
1260,0.002,-0.004,-0.006,-0.013,0.014,1.001,0.312,0.003,-0.529
1261,0.002,0.0,-0.004,-0.013,0.015,1.002,0.304,0.012,-0.537
1262,0.002,-0.002,-0.005,-0.013,0.013,1.001,0.313,0.006,-0.543
1263,0.002,-0.001,-0.006,-0.013,0.012,1.0,0.309,-0.009,-0.528
1264,0.002,0.0,-0.006,-0.013,0.014,1.0,0.309,0.004,-0.535
1265,0.003,-0.001,-0.006,-0.013,0.014,1.001,0.309,0.004,-0.535
1266,0.004,0.001,-0.007,-0.014,0.013,1.0,0.303,0.003,-0.532
1267,0.002,-0.001,-0.007,-0.014,0.013,1.0,0.294,0.006,-0.511
1268,0.002,0.0,-0.007,-0.015,0.014,1.001,0.292,-0.004,-0.532
1269,0.002,-0.001,-0.006,-0.015,0.014,1.001,0.312,0.025,-0.52
1270,0.002,-0.001,-0.005,-0.014,0.011,0.999,0.309,-0.006,-0.531
1271,0.002,-0.002,-0.005,-0.011,0.013,0.999,0.309,-0.006,-0.531
1272,0.002,-0.001,-0.006,-0.013,0.014,0.999,0.309,0.012,-0.534
1273,0.002,-0.006,-0.005,-0.015,0.014,0.999,0.285,0.006,-0.52
1274,0.002,-0.004,-0.006,-0.015,0.014,1.0,0.285,0.006,-0.52
1275,0.002,-0.004,-0.006,-0.012,0.015,0.999,0.304,0.006,-0.532
1276,0.002,-0.002,-0.006,-0.012,0.015,0.999,0.316,0.0,-0.516
1277,0.002,-0.001,-0.006,-0.014,0.015,1.001,0.3,0.007,-0.51
1278,0.002,-0.003,-0.005,-0.013,0.013,1.001,0.324,0.003,-0.514
1279,0.002,-0.004,-0.005,-0.011,0.014,1.0,0.324,0.003,-0.514
1280,0.004,0.009,-0.007,-0.013,0.014,1.001,0.309,-0.009,-0.528
1281,0.003,0.003,-0.007,-0.013,0.014,1.001,0.33,0.001,-0.537
1282,0.002,-0.001,-0.005,-0.012,0.015,0.998,0.316,-0.001,-0.516
1283,0.002,-0.001,-0.006,-0.013,0.015,0.998,0.3,0.0,-0.535
1284,0.003,-0.002,-0.006,-0.012,0.015,0.999,0.319,0.0,-0.516
1285,0.003,-0.002,-0.006,-0.013,0.014,1.0,0.319,0.0,-0.516
1286,0.003,-0.001,-0.006,-0.013,0.014,1.0,0.336,0.004,-0.534
1287,0.003,-0.002,-0.005,-0.013,0.013,1.0,0.309,0.0,-0.504
1288,0.002,-0.002,-0.006,-0.01,0.013,0.999,0.309,0.012,-0.52
1289,0.002,-0.001,-0.005,-0.011,0.014,0.999,0.3,0.018,-0.513
1290,0.002,-0.001,-0.005,-0.011,0.014,0.999,0.307,-0.004,-0.523
1291,0.002,-0.002,-0.005,-0.013,0.013,1.0,0.322,0.013,-0.535
1292,0.002,-0.001,-0.006,-0.015,0.013,0.999,0.312,-0.001,-0.532
1293,0.002,-0.001,-0.006,-0.014,0.015,1.0,0.312,-0.001,-0.532
1294,0.002,-0.003,-0.006,-0.013,0.013,1.001,0.319,0.012,-0.526
1295,0.003,-0.002,-0.006,-0.012,0.011,1.001,0.319,0.012,-0.526
1296,0.002,0.0,-0.005,-0.011,0.012,1.002,0.319,0.0,-0.511
1297,0.002,0.0,-0.006,-0.012,0.014,1.0,0.315,0.01,-0.535
1298,0.004,0.0,-0.006,-0.015,0.013,0.998,0.319,-0.009,-0.55
1299,0.002,-0.002,-0.006,-0.014,0.014,0.997,0.304,0.013,-0.531
1300,0.001,-0.002,-0.006,-0.011,0.014,0.998,0.304,0.013,-0.531
1301,0.002,-0.007,-0.006,-0.01,0.012,0.999,0.306,0.021,-0.526
1302,0.002,-0.003,-0.006,-0.012,0.014,0.999,0.303,-0.007,-0.514
1303,0.003,-0.001,-0.006,-0.014,0.014,1.0,0.33,0.006,-0.516
1304,0.002,0.0,-0.006,-0.014,0.014,1.0,0.316,0.018,-0.522
1305,0.002,0.0,-0.007,-0.015,0.014,1.001,0.31,0.007,-0.513
1306,0.002,-0.001,-0.007,-0.013,0.013,1.0,0.31,0.007,-0.513
1307,0.002,-0.002,-0.005,-0.011,0.013,1.0,0.313,0.003,-0.516
1308,0.002,-0.013,-0.004,-0.011,0.013,1.0,0.309,-0.001,-0.516
1309,0.002,-0.006,-0.005,-0.012,0.013,0.998,0.309,-0.001,-0.516
1310,0.002,-0.001,-0.006,-0.012,0.013,0.998,0.298,0.006,-0.505
1311,0.003,-0.001,-0.006,-0.014,0.014,0.998,0.321,0.015,-0.525
1312,0.003,-0.001,-0.006,-0.015,0.014,0.998,0.31,0.009,-0.522
1313,0.003,-0.001,-0.006,-0.015,0.015,1.0,0.315,0.015,-0.528
1314,0.003,-0.001,-0.005,-0.014,0.014,1.0,0.315,0.015,-0.528
1315,0.003,0.0,-0.005,-0.011,0.013,0.999,0.301,0.012,-0.511
1316,0.002,-0.001,-0.007,-0.011,0.014,1.0,0.291,0.003,-0.525
1317,0.002,-0.002,-0.006,-0.012,0.013,0.999,0.307,0.021,-0.532
1318,0.002,-0.002,-0.005,-0.013,0.015,0.999,0.306,0.009,-0.525
1319,0.003,-0.002,-0.006,-0.014,0.016,1.0,0.319,0.003,-0.531
1320,0.002,-0.002,-0.006,-0.013,0.015,1.0,0.319,0.003,-0.531
1321,0.002,-0.001,-0.005,-0.011,0.014,1.001,0.307,0.013,-0.516
1322,0.0,0.002,-0.006,-0.01,0.014,1.0,0.321,0.001,-0.51
1323,0.002,0.0,-0.006,-0.011,0.016,1.0,0.321,0.001,-0.51
1324,0.003,0.0,-0.007,-0.012,0.016,1.001,0.309,0.001,-0.529
1325,0.003,-0.001,-0.006,-0.012,0.013,1.001,0.316,0.012,-0.52
1326,0.003,-0.001,-0.006,-0.012,0.013,1.001,0.298,0.006,-0.513
1327,0.002,-0.001,-0.006,-0.012,0.016,1.001,0.313,0.009,-0.532
