,Gyroscope X (deg/s),Gyroscope Y (deg/s),Gyroscope Z (deg/s),Accelerometer X (g),Accelerometer Y (g),Accelerometer Z (g),Magnetometer X (G),Magnetometer Y (G),Magnetometer Z (G)
0,0.002,-0.001,-0.005,-0.013,0.019,0.997,0.307,-0.022,-0.555
1,0.003,-0.002,-0.006,-0.015,0.018,0.998,0.336,-0.027,-0.549
2,0.003,-0.003,-0.005,-0.015,0.016,0.998,0.318,-0.031,-0.574
3,0.002,-0.001,-0.005,-0.015,0.016,0.997,0.319,-0.018,-0.565
4,0.002,-0.001,-0.005,-0.015,0.016,0.997,0.31,-0.028,-0.57
5,0.002,-0.002,-0.005,-0.014,0.017,0.997,0.31,-0.028,-0.57
6,0.002,-0.002,-0.004,-0.017,0.017,0.997,0.306,-0.013,-0.568
7,0.002,-0.001,-0.005,-0.016,0.016,0.998,0.313,-0.031,-0.54
8,0.003,-0.002,-0.004,-0.015,0.015,0.999,0.313,-0.031,-0.54
9,0.002,-0.002,-0.005,-0.016,0.018,0.999,0.333,-0.045,-0.57
10,0.003,-0.002,-0.005,-0.014,0.018,0.998,0.33,-0.027,-0.564
11,0.003,-0.002,-0.005,-0.014,0.017,0.998,0.321,-0.031,-0.562
12,0.002,-0.002,-0.006,-0.015,0.015,0.997,0.321,-0.031,-0.562
13,0.003,-0.002,-0.007,-0.014,0.014,0.997,0.319,-0.019,-0.573
14,0.0,-0.001,-0.005,-0.013,0.015,0.997,0.327,-0.024,-0.556
15,0.002,-0.002,-0.004,-0.013,0.015,0.996,0.319,-0.04,-0.576
16,0.002,0.0,-0.006,-0.013,0.015,0.996,0.319,-0.036,-0.553
17,0.002,0.0,-0.006,-0.014,0.015,0.998,0.307,-0.042,-0.553
18,0.003,-0.001,-0.006,-0.016,0.015,0.999,0.33,-0.033,-0.559
19,0.002,-0.002,-0.006,-0.016,0.015,0.999,0.33,-0.033,-0.559
20,0.003,0.0,-0.006,-0.017,0.016,0.999,0.321,-0.022,-0.555
21,0.002,-0.002,-0.004,-0.016,0.016,0.998,0.294,-0.027,-0.55
22,0.002,-0.002,-0.006,-0.016,0.017,1.0,0.324,-0.042,-0.564
23,0.002,0.0,-0.006,-0.016,0.017,0.998,0.312,-0.033,-0.568
24,0.002,0.0,-0.006,-0.014,0.015,0.997,0.322,-0.001,-0.567
25,0.002,-0.002,-0.006,-0.014,0.015,0.999,0.336,-0.036,-0.558
26,0.003,-0.002,-0.006,-0.014,0.016,1.001,0.336,-0.036,-0.558
27,0.002,-0.002,-0.005,-0.015,0.017,0.999,0.315,-0.018,-0.571
28,0.004,-0.004,-0.005,-0.017,0.017,0.997,0.327,-0.04,-0.553
29,0.004,-0.002,-0.006,-0.017,0.017,0.997,0.306,-0.034,-0.55
30,0.004,-0.001,-0.005,-0.015,0.017,0.997,0.324,-0.03,-0.558
31,0.003,-0.001,-0.005,-0.014,0.017,1.001,0.316,-0.033,-0.561
32,0.002,-0.002,-0.006,-0.014,0.017,1.001,0.309,-0.028,-0.583
33,0.002,-0.002,-0.006,-0.016,0.016,0.998,0.309,-0.028,-0.583
34,0.002,-0.002,-0.006,-0.016,0.017,0.998,0.325,-0.033,-0.561
35,0.002,-0.006,-0.005,-0.014,0.016,0.998,0.321,-0.025,-0.552
36,0.003,-0.004,-0.005,-0.014,0.017,1.0,0.325,-0.025,-0.571
37,0.002,-0.002,-0.005,-0.013,0.017,1.002,0.327,-0.022,-0.582
38,0.003,-0.001,-0.005,-0.012,0.015,1.001,0.336,-0.037,-0.558
39,0.003,0.0,-0.004,-0.012,0.015,1.001,0.313,-0.033,-0.573
40,0.002,-0.002,-0.004,-0.014,0.018,0.996,0.321,-0.03,-0.564
41,0.003,-0.002,-0.005,-0.014,0.018,0.995,0.321,-0.03,-0.564
42,0.003,-0.001,-0.005,-0.015,0.016,0.997,0.312,-0.021,-0.576
43,0.003,-0.001,-0.005,-0.016,0.016,0.997,0.312,-0.021,-0.576
44,0.003,-0.001,-0.006,-0.015,0.016,0.998,0.312,-0.04,-0.564
45,0.003,-0.001,-0.004,-0.016,0.016,1.0,0.336,-0.024,-0.565
46,0.002,-0.001,-0.005,-0.016,0.015,1.0,0.315,-0.031,-0.561
47,0.002,-0.002,-0.005,-0.014,0.014,0.999,0.304,-0.025,-0.547
48,0.002,-0.002,-0.005,-0.013,0.018,0.999,0.304,-0.025,-0.547
49,0.001,-0.002,-0.004,-0.014,0.02,0.999,0.319,-0.024,-0.564
50,0.002,-0.002,-0.005,-0.016,0.019,0.999,0.309,-0.034,-0.576
51,0.002,-0.003,-0.005,-0.016,0.017,0.999,0.325,-0.033,-0.57
52,0.002,-0.002,-0.006,-0.016,0.016,0.999,0.316,-0.019,-0.562
53,0.002,-0.001,-0.005,-0.016,0.016,0.998,0.313,-0.018,-0.564
54,0.002,-0.001,-0.006,-0.014,0.016,0.998,0.316,-0.021,-0.568
55,0.002,-0.002,-0.005,-0.014,0.015,0.998,0.316,-0.021,-0.568
56,0.002,-0.004,-0.005,-0.016,0.016,0.998,0.313,-0.019,-0.556
57,0.002,-0.002,-0.005,-0.017,0.015,0.999,0.313,-0.019,-0.556
58,0.002,-0.002,-0.004,-0.017,0.0,0.999,0.31,-0.025,-0.556
59,0.002,-0.004,-0.005,-0.016,0.015,1.0,0.321,-0.03,-0.564
60,0.002,-0.001,-0.005,-0.015,0.016,0.998,0.339,-0.021,-0.565
61,0.002,-0.002,-0.006,-0.013,0.015,0.998,0.339,-0.021,-0.565
62,0.002,0.0,-0.007,-0.015,0.015,0.997,0.331,-0.028,-0.564
63,0.002,0.0,-0.007,-0.016,0.013,0.999,0.327,-0.024,-0.57
64,0.001,-0.001,-0.005,-0.013,0.015,0.999,0.325,-0.025,-0.565
65,0.002,-0.002,-0.005,-0.012,0.017,0.997,0.327,-0.025,-0.558
66,0.002,-0.002,-0.005,-0.011,0.017,0.998,0.316,-0.036,-0.562
67,0.002,-0.002,-0.005,-0.013,0.018,0.999,0.325,-0.018,-0.564
68,0.003,-0.001,-0.005,-0.016,0.016,1.0,0.325,-0.018,-0.564
69,0.002,-0.001,-0.005,-0.015,0.017,1.0,0.322,-0.03,-0.568
70,0.002,0.0,-0.005,-0.016,0.018,0.998,0.315,-0.006,-0.562
71,0.002,-0.001,-0.006,-0.017,0.017,0.996,0.315,-0.006,-0.562
72,0.002,-0.001,-0.005,-0.016,0.018,0.998,0.312,-0.037,-0.567
73,0.002,-0.002,-0.005,-0.015,0.02,1.001,0.333,-0.031,-0.553
74,0.002,-0.002,-0.005,-0.014,0.017,0.999,0.331,-0.021,-0.567
75,0.002,-0.002,-0.004,-0.015,0.015,0.999,0.331,-0.021,-0.567
76,0.002,-0.002,-0.005,-0.016,0.016,1.0,0.328,-0.027,-0.555
77,0.0,0.003,-0.006,-0.017,0.016,1.0,0.328,-0.031,-0.558
78,0.002,0.002,-0.006,-0.017,0.016,1.0,0.312,-0.037,-0.558
79,0.003,0.0,-0.006,-0.015,0.015,1.001,0.327,-0.033,-0.556
80,0.003,0.0,-0.006,-0.015,0.015,1.001,0.336,-0.021,-0.567
81,0.003,-0.002,-0.005,-0.018,0.017,1.0,0.319,-0.03,-0.561
82,0.003,-0.002,-0.005,-0.017,0.018,0.998,0.319,-0.03,-0.561
83,0.002,-0.004,-0.005,-0.013,0.016,0.999,0.327,-0.048,-0.57
84,0.002,-0.002,-0.006,-0.012,0.014,1.0,0.321,-0.019,-0.543
85,0.003,-0.002,-0.006,-0.015,0.015,0.999,0.321,-0.037,-0.567
86,0.003,-0.002,-0.006,-0.014,0.017,0.999,0.331,-0.025,-0.562
87,0.002,-0.003,-0.005,-0.015,0.018,0.999,0.33,0.001,-0.567
88,0.002,-0.001,-0.006,-0.014,0.017,0.998,0.33,0.001,-0.567
89,0.002,0.0,-0.006,-0.014,0.016,0.998,0.327,-0.037,-0.576
90,0.002,-0.001,-0.006,-0.015,0.017,0.998,0.318,-0.036,-0.552
91,0.003,0.007,-0.007,-0.016,0.017,0.997,0.312,-0.03,-0.555
92,0.002,0.0,-0.006,-0.016,0.017,0.995,0.309,-0.04,-0.555
93,0.002,-0.002,-0.005,-0.016,0.018,0.996,0.328,-0.031,-0.552
94,0.003,-0.001,-0.006,-0.015,0.017,0.999,0.328,-0.031,-0.552
95,0.003,0.0,-0.006,-0.013,0.018,1.0,0.327,-0.016,-0.57
96,0.002,-0.002,-0.004,-0.014,0.019,0.998,0.331,-0.033,-0.555
97,0.002,-0.002,-0.004,-0.015,0.019,0.998,0.304,-0.025,-0.564
98,0.0,-0.003,-0.005,-0.015,0.019,0.998,0.318,-0.025,-0.541
99,0.002,-0.001,-0.006,-0.014,0.016,0.999,0.33,-0.034,-0.568
100,0.002,0.0,-0.005,-0.016,0.015,0.999,0.309,-0.031,-0.571
101,0.002,-0.003,-0.004,-0.017,0.016,0.999,0.312,-0.018,-0.567
102,0.002,-0.003,-0.004,-0.014,0.015,0.999,0.312,-0.018,-0.567
103,0.002,-0.002,-0.004,-0.013,0.013,1.0,0.324,-0.022,-0.564
104,0.003,-0.001,-0.004,-0.013,0.015,0.999,0.316,-0.027,-0.564
105,0.003,-0.002,-0.005,-0.014,0.014,1.0,0.321,-0.028,-0.565
106,0.002,-0.001,-0.005,-0.014,0.014,0.999,0.321,-0.028,-0.565
107,0.002,-0.002,-0.005,-0.014,0.014,0.997,0.325,-0.039,-0.553
108,0.002,-0.001,-0.005,-0.017,0.015,0.998,0.325,-0.039,-0.553
109,0.002,-0.001,-0.006,-0.016,0.017,0.998,0.327,-0.04,-0.553
110,0.003,-0.002,-0.006,-0.014,0.018,0.998,0.316,-0.036,-0.556
111,0.003,-0.001,-0.006,-0.015,0.017,0.998,0.31,-0.046,-0.552
112,0.002,0.002,-0.007,-0.015,0.015,0.998,0.322,-0.01,-0.55
113,0.003,0.0,-0.006,-0.015,0.015,0.999,0.319,-0.034,-0.565
114,0.003,-0.001,-0.006,-0.016,0.014,1.0,0.319,-0.034,-0.565
115,0.002,-0.001,-0.006,-0.016,0.016,1.0,0.322,-0.046,-0.568
116,0.002,-0.001,-0.006,-0.015,0.018,0.999,0.322,-0.01,-0.577
117,0.002,-0.002,-0.005,-0.015,0.017,0.997,0.333,-0.03,-0.568
118,0.003,0.0,-0.005,-0.015,0.017,0.997,0.309,-0.021,-0.576
119,0.002,-0.001,-0.005,-0.016,0.016,0.998,0.298,-0.03,-0.553
120,0.002,-0.002,-0.005,-0.013,0.016,0.998,0.312,-0.028,-0.565
121,0.002,-0.002,-0.005,-0.013,0.017,0.997,0.312,-0.028,-0.565
122,0.002,-0.002,-0.005,-0.015,0.017,0.999,0.33,-0.046,-0.574
123,0.003,-0.002,-0.005,-0.014,0.018,1.001,0.301,-0.037,-0.553
124,0.003,-0.001,-0.006,-0.012,0.019,1.001,0.3,-0.022,-0.553
125,0.003,-0.002,-0.006,-0.013,0.016,1.0,0.325,-0.046,-0.553
126,0.002,-0.002,-0.005,-0.015,0.015,0.998,0.33,-0.013,-0.549
127,0.002,-0.002,-0.006,-0.012,0.018,0.999,0.315,-0.021,-0.568
128,0.002,-0.002,-0.006,-0.013,0.017,1.0,0.315,-0.021,-0.568
129,0.002,-0.002,-0.005,-0.016,0.014,0.999,0.325,-0.037,-0.571
130,0.003,-0.002,-0.005,-0.017,0.014,0.997,0.315,-0.025,-0.558
131,0.002,-0.003,-0.004,-0.016,0.017,0.997,0.316,-0.033,-0.564
132,0.002,-0.002,-0.005,-0.015,0.016,0.999,0.328,-0.025,-0.573
133,0.003,-0.01,-0.004,-0.014,0.015,0.998,0.313,-0.033,-0.549
134,0.003,-0.004,-0.004,-0.013,0.015,0.996,0.337,-0.037,-0.574
135,0.003,-0.002,-0.005,-0.015,0.016,0.997,0.337,-0.037,-0.574
136,0.002,-0.002,-0.004,-0.015,0.017,0.999,0.337,-0.03,-0.588
137,0.003,-0.002,-0.005,-0.015,0.017,0.999,0.33,-0.039,-0.568
138,0.002,-0.003,-0.005,-0.015,0.017,0.998,0.31,-0.015,-0.568
139,0.002,-0.003,-0.006,-0.013,0.017,0.998,0.328,-0.019,-0.555
140,0.002,-0.002,-0.006,-0.013,0.017,1.0,0.324,-0.021,-0.582
141,0.002,-0.002,-0.006,-0.015,0.016,1.001,0.319,-0.033,-0.583
142,0.002,-0.001,-0.006,-0.017,0.016,0.999,0.319,-0.033,-0.583
143,0.002,-0.002,-0.004,-0.016,0.017,0.999,0.301,-0.04,-0.564
144,0.002,-0.002,-0.005,-0.015,0.015,0.999,0.309,-0.039,-0.573
145,0.002,-0.001,-0.005,-0.015,0.017,0.999,0.321,-0.03,-0.55
146,0.002,-0.002,-0.004,-0.013,0.017,1.001,0.324,-0.028,-0.57
147,0.003,-0.002,-0.004,-0.013,0.016,1.0,0.318,-0.025,-0.561
148,0.001,0.0,-0.005,-0.013,0.018,0.998,0.309,-0.031,-0.561
149,0.002,-0.001,-0.005,-0.015,0.017,0.998,0.309,-0.031,-0.561
150,0.002,-0.002,-0.005,-0.017,0.015,0.997,0.319,-0.018,-0.561
151,0.002,-0.001,-0.005,-0.016,0.015,0.997,0.324,-0.043,-0.555
152,0.003,0.0,-0.006,-0.015,0.016,0.997,0.331,-0.034,-0.562
153,0.002,-0.002,-0.004,-0.015,0.017,0.999,0.319,-0.025,-0.546
154,0.002,-0.003,-0.004,-0.013,0.018,1.0,0.319,-0.054,-0.547
155,0.002,-0.002,-0.005,-0.014,0.016,0.999,0.319,-0.054,-0.547
156,0.002,-0.002,-0.005,-0.015,0.015,0.998,0.321,-0.027,-0.574
157,0.002,0.0,-0.005,-0.015,0.015,0.998,0.328,-0.036,-0.585
158,0.004,0.0,-0.006,-0.013,0.015,0.999,0.31,-0.043,-0.564
159,0.003,0.0,-0.006,-0.015,0.015,1.001,0.324,-0.016,-0.582
160,0.003,-0.002,-0.005,-0.017,0.014,1.001,0.307,-0.034,-0.573
161,0.002,-0.002,-0.006,-0.016,0.017,0.999,0.289,-0.012,-0.544
162,0.002,-0.002,-0.006,-0.014,0.016,0.999,0.289,-0.012,-0.544
163,0.002,0.0,-0.005,-0.012,0.016,1.0,0.322,-0.031,-0.564
164,0.002,-0.001,-0.005,-0.014,0.018,1.001,0.307,-0.024,-0.573
165,0.003,-0.002,-0.005,-0.015,0.016,1.0,0.319,-0.033,-0.561
166,0.002,-0.003,-0.005,-0.016,0.015,0.998,0.322,-0.027,-0.564
167,0.002,-0.004,-0.004,-0.015,0.016,1.001,0.328,-0.021,-0.556
168,0.004,0.001,-0.004,-0.012,0.017,1.0,0.313,-0.019,-0.556
169,0.002,-0.001,-0.005,-0.014,0.017,0.999,0.313,-0.019,-0.556
170,0.002,-0.002,-0.004,-0.014,0.015,0.999,0.325,-0.021,-0.564
171,0.002,-0.002,-0.004,-0.013,0.014,0.998,0.318,-0.028,-0.549
172,0.002,-0.003,-0.005,-0.014,0.017,0.998,0.324,-0.012,-0.558
173,0.002,-0.002,-0.005,-0.015,0.017,0.999,0.318,-0.028,-0.556
174,0.002,0.0,-0.006,-0.014,0.014,0.999,0.312,-0.03,-0.568
175,0.002,-0.007,-0.004,-0.013,0.013,0.999,0.322,-0.036,-0.549
176,0.003,-0.004,-0.006,-0.013,0.013,0.999,0.307,-0.031,-0.564
177,0.003,-0.002,-0.005,-0.015,0.015,1.0,0.307,-0.031,-0.564
178,0.002,-0.002,-0.005,-0.017,0.017,1.002,0.312,-0.012,-0.576
179,0.002,-0.003,-0.006,-0.016,0.017,1.001,0.322,-0.037,-0.546
180,0.002,-0.004,-0.005,-0.015,0.017,1.001,0.304,-0.03,-0.568
181,0.002,-0.004,-0.005,-0.017,0.016,0.999,0.31,-0.034,-0.576
182,0.002,-0.002,-0.005,-0.017,0.017,0.998,0.312,-0.036,-0.558
183,0.003,-0.001,-0.005,-0.016,0.016,0.998,0.313,-0.019,-0.574
184,0.002,-0.001,-0.005,-0.017,0.016,1.0,0.313,-0.019,-0.574
185,0.002,-0.002,-0.005,-0.016,0.017,1.001,0.321,-0.027,-0.562
186,0.002,-0.002,-0.004,-0.015,0.016,0.999,0.325,-0.021,-0.547
187,0.003,-0.002,-0.005,-0.015,0.017,0.999,0.316,-0.03,-0.564
188,0.003,-0.001,-0.006,-0.015,0.017,1.001,0.315,-0.043,-0.571
189,0.004,-0.004,-0.005,-0.015,0.017,1.0,0.297,-0.034,-0.555
190,0.003,-0.003,-0.004,-0.012,0.016,0.999,0.312,-0.028,-0.562
191,0.002,-0.003,-0.004,-0.015,0.016,1.0,0.312,-0.028,-0.562
192,0.003,-0.001,-0.005,-0.015,0.018,1.0,0.307,-0.031,-0.564
193,0.002,-0.002,-0.004,-0.013,0.017,1.0,0.315,-0.03,-0.577
194,0.002,-0.003,-0.004,-0.014,0.016,1.0,0.318,-0.025,-0.57
195,0.003,-0.001,-0.004,-0.013,0.016,1.0,0.327,-0.028,-0.565
196,0.001,0.0,-0.005,-0.013,0.016,1.0,0.325,-0.042,-0.534
197,0.002,-0.002,-0.006,-0.013,0.017,1.002,0.324,-0.031,-0.558
198,0.002,-0.002,-0.005,-0.015,0.016,1.002,0.324,-0.031,-0.558
199,0.002,-0.002,-0.006,-0.014,0.017,1.0,0.328,-0.039,-0.558
200,0.003,-0.004,-0.005,-0.015,0.016,0.999,0.309,-0.034,-0.57
201,0.003,-0.004,-0.005,-0.017,0.014,0.997,0.325,-0.03,-0.555
202,0.002,-0.002,-0.006,-0.015,0.016,0.999,0.322,-0.037,-0.564
203,0.002,-0.002,-0.006,-0.014,0.016,0.998,0.319,-0.027,-0.573
204,0.002,-0.001,-0.005,-0.015,0.017,0.996,0.333,-0.027,-0.558
205,0.002,-0.003,-0.005,-0.016,0.018,0.998,0.333,-0.027,-0.558
206,0.002,-0.002,-0.005,-0.015,0.017,1.0,0.334,-0.016,-0.564
207,0.002,-0.001,-0.006,-0.015,0.014,1.001,0.325,-0.03,-0.582
208,0.003,-0.002,-0.006,-0.015,0.015,0.999,0.31,-0.042,-0.574
209,0.002,-0.001,-0.006,-0.015,0.018,0.997,0.312,-0.033,-0.568
210,0.0,-0.006,-0.004,-0.013,0.018,0.999,0.313,-0.034,-0.553
211,0.002,-0.003,-0.005,-0.015,0.016,0.999,0.319,-0.022,-0.552
212,0.002,-0.002,-0.006,-0.016,0.014,0.998,0.319,-0.022,-0.552
213,0.002,-0.001,-0.006,-0.016,0.016,0.997,0.331,-0.025,-0.579
214,0.003,-0.002,-0.005,-0.015,0.017,0.998,0.327,-0.036,-0.574
215,0.002,-0.002,-0.004,-0.015,0.016,1.0,0.321,-0.049,-0.544
216,0.002,-0.003,-0.004,-0.015,0.016,1.0,0.318,-0.021,-0.577
217,0.003,-0.004,-0.004,-0.015,0.014,1.0,0.324,-0.03,-0.561
218,0.002,0.0,-0.005,-0.015,0.015,0.998,0.301,-0.034,-0.571
219,0.002,-0.002,-0.005,-0.013,0.015,0.998,0.301,-0.034,-0.571
220,0.002,-0.002,-0.005,-0.015,0.016,0.999,0.313,-0.034,-0.559
221,0.002,-0.002,-0.005,-0.016,0.017,0.998,0.33,-0.028,-0.555
222,0.002,-0.002,-0.005,-0.016,0.017,0.998,0.327,-0.034,-0.571
223,0.002,-0.002,-0.005,-0.016,0.014,0.999,0.318,-0.027,-0.571
224,0.002,-0.001,-0.005,-0.014,0.012,0.998,0.312,-0.028,-0.549
225,0.003,-0.001,-0.006,-0.014,0.014,0.997,0.312,-0.028,-0.549
226,0.004,-0.002,-0.006,-0.015,0.014,0.997,0.337,-0.013,-0.564
227,0.003,0.0,-0.005,-0.015,0.013,0.997,0.321,-0.031,-0.55
228,0.003,0.0,-0.006,-0.015,0.014,0.999,0.325,-0.042,-0.565
229,0.003,-0.002,-0.006,-0.015,0.014,1.0,0.333,-0.03,-0.568
230,0.003,-0.002,-0.004,-0.015,0.015,0.999,0.312,-0.033,-0.585
231,0.003,0.001,-0.006,-0.014,0.016,0.998,0.316,-0.04,-0.552
232,0.002,0.0,-0.005,-0.015,0.016,0.999,0.316,-0.04,-0.552
233,0.002,-0.002,-0.004,-0.017,0.016,0.999,0.327,-0.043,-0.573
234,0.002,-0.002,-0.005,-0.018,0.016,0.999,0.322,-0.054,-0.568
235,0.002,-0.003,-0.006,-0.017,0.018,0.998,0.321,-0.019,-0.559
236,0.002,-0.002,-0.005,-0.017,0.018,0.998,0.324,-0.028,-0.567
237,0.002,-0.002,-0.005,-0.015,0.017,0.999,0.315,-0.025,-0.573
238,0.001,-0.003,-0.005,-0.016,0.016,1.0,0.297,-0.018,-0.546
239,0.001,-0.003,-0.005,-0.017,0.016,0.999,0.297,-0.018,-0.546
240,0.003,-0.002,-0.006,-0.016,0.015,1.0,0.292,-0.022,-0.561
241,0.003,-0.001,-0.006,-0.015,0.016,1.001,0.328,-0.036,-0.567
242,0.003,-0.001,-0.006,-0.015,0.012,0.999,0.321,-0.033,-0.58
243,0.002,-0.001,-0.006,-0.015,0.014,0.999,0.33,-0.022,-0.57
244,0.003,-0.001,-0.006,-0.015,0.018,1.0,0.331,-0.04,-0.567
245,0.003,0.0,-0.005,-0.014,0.017,0.999,0.309,-0.031,-0.564
246,0.003,0.0,-0.006,-0.013,0.016,0.999,0.319,-0.025,-0.568
247,0.002,-0.002,-0.006,-0.015,0.014,0.997,0.319,-0.025,-0.568
248,0.002,-0.002,-0.004,-0.016,0.015,0.996,0.333,-0.019,-0.565
249,0.002,-0.002,-0.004,-0.016,0.018,0.998,0.321,-0.04,-0.564
250,0.003,-0.001,-0.004,-0.015,0.017,0.999,0.327,-0.048,-0.585
251,0.002,-0.002,-0.004,-0.015,0.014,0.999,0.336,-0.018,-0.562
252,0.001,-0.001,-0.005,-0.012,0.015,0.998,0.318,-0.024,-0.546
253,0.002,-0.001,-0.006,-0.014,0.017,0.999,0.322,-0.033,-0.574
254,0.003,-0.001,-0.005,-0.014,0.015,1.0,0.322,-0.033,-0.574
255,0.002,-0.001,-0.005,-0.013,0.016,0.999,0.315,-0.019,-0.565
256,0.002,-0.002,-0.006,-0.013,0.016,0.999,0.321,-0.013,-0.553
257,0.002,-0.002,-0.005,-0.013,0.016,0.999,0.325,-0.025,-0.577
258,0.002,-0.001,-0.006,-0.014,0.015,1.001,0.334,-0.03,-0.561
259,0.002,-0.002,-0.006,-0.015,0.014,1.0,0.309,-0.019,-0.544
260,0.002,-0.002,-0.006,-0.015,0.013,0.998,0.313,-0.027,-0.558
261,0.002,-0.003,-0.005,-0.014,0.014,0.997,0.313,-0.027,-0.558
262,0.002,-0.003,-0.004,-0.013,0.015,0.998,0.318,-0.027,-0.568
263,0.002,-0.002,-0.006,-0.015,0.015,0.998,0.327,-0.037,-0.57
264,0.002,-0.002,-0.005,-0.016,0.015,0.995,0.327,-0.024,-0.576
265,0.002,-0.001,-0.006,-0.014,0.015,0.997,0.313,-0.036,-0.562
266,0.001,-0.003,-0.006,-0.014,0.016,0.999,0.319,-0.024,-0.583
267,0.003,-0.002,-0.006,-0.015,0.016,0.998,0.316,-0.045,-0.562
268,0.003,-0.002,-0.006,-0.015,0.016,1.0,0.316,-0.045,-0.562
269,0.002,-0.002,-0.006,-0.014,0.016,1.001,0.334,-0.021,-0.585
270,0.002,-0.002,-0.004,-0.014,0.015,1.001,0.306,-0.043,-0.573
271,0.002,0.0,-0.005,-0.015,0.015,1.0,0.327,-0.048,-0.568
272,0.002,-0.002,-0.005,-0.015,0.015,0.999,0.315,-0.031,-0.561
273,0.004,0.0,-0.006,-0.017,0.016,1.0,0.313,-0.019,-0.574
274,0.002,-0.001,-0.005,-0.018,0.015,1.0,0.331,-0.024,-0.576
275,0.002,-0.002,-0.006,-0.018,0.015,1.0,0.331,-0.024,-0.576
276,0.002,-0.001,-0.006,-0.014,0.015,1.0,0.327,-0.04,-0.586
277,0.002,-0.001,-0.006,-0.014,0.014,1.0,0.331,-0.028,-0.555
278,0.003,-0.002,-0.006,-0.016,0.017,0.999,0.324,-0.027,-0.561
279,0.002,-0.002,-0.005,-0.017,0.016,1.0,0.331,-0.033,-0.556
280,0.002,-0.002,-0.005,-0.016,0.016,0.999,0.309,-0.037,-0.562
281,0.002,-0.002,-0.006,-0.014,0.018,0.997,0.324,-0.03,-0.553
282,0.003,-0.002,-0.004,-0.014,0.017,0.998,0.324,-0.03,-0.553
283,0.003,-0.001,-0.005,-0.016,0.015,1.0,0.304,-0.04,-0.561
284,0.003,-0.002,-0.005,-0.015,0.017,1.0,0.307,-0.015,-0.537
285,0.004,0.0,-0.005,-0.014,0.017,0.999,0.315,-0.028,-0.565
286,0.004,0.0,-0.005,-0.014,0.016,0.998,0.306,-0.028,-0.577
287,0.004,0.001,-0.007,-0.015,0.016,0.998,0.301,-0.036,-0.571
288,0.002,0.0,-0.006,-0.016,0.015,0.999,0.327,-0.021,-0.567
289,0.002,-0.002,-0.005,-0.016,0.014,0.999,0.327,-0.021,-0.567
290,0.002,-0.002,-0.006,-0.019,0.014,1.0,0.319,-0.019,-0.567
291,0.002,-0.002,-0.005,-0.018,0.016,0.998,0.325,-0.036,-0.57
292,0.002,-0.002,-0.005,-0.015,0.017,0.997,0.324,-0.036,-0.571
293,0.004,0.0,-0.006,-0.014,0.015,1.001,0.319,-0.016,-0.562
294,0.002,0.0,-0.005,-0.014,0.015,1.001,0.31,-0.021,-0.559
295,0.001,0.0,-0.005,-0.016,0.017,1.0,0.31,-0.021,-0.559
296,0.002,-0.001,-0.005,-0.016,0.019,0.998,0.319,-0.031,-0.564
297,0.003,-0.001,-0.006,-0.017,0.017,0.998,0.307,-0.036,-0.568
298,0.002,-0.001,-0.005,-0.017,0.017,0.998,0.316,-0.019,-0.555
299,0.002,-0.002,-0.005,-0.015,0.015,0.999,0.313,-0.049,-0.561
300,0.002,-0.002,-0.005,-0.014,0.015,0.999,0.319,-0.03,-0.565
301,0.002,-0.002,-0.005,-0.013,0.016,0.999,0.3,-0.034,-0.552
302,0.001,-0.002,-0.004,-0.012,0.014,0.998,0.3,-0.034,-0.552
303,0.002,-0.001,-0.005,-0.014,0.014,0.998,0.313,-0.027,-0.568
304,0.002,0.0,-0.005,-0.015,0.016,0.999,0.318,-0.025,-0.559
305,0.002,0.0,-0.004,-0.015,0.015,0.998,0.322,-0.034,-0.564
306,0.002,-0.001,-0.004,-0.014,0.016,0.997,0.324,-0.037,-0.553
307,0.002,-0.002,-0.005,-0.014,0.017,0.997,0.322,-0.033,-0.561
308,0.004,0.003,-0.006,-0.014,0.016,0.999,0.322,-0.033,-0.561
309,0.004,0.0,-0.005,-0.013,0.015,0.998,0.325,-0.025,-0.562
310,0.002,-0.002,-0.004,-0.013,0.015,0.998,0.307,-0.015,-0.564
311,0.002,-0.004,-0.004,-0.015,0.015,0.999,0.319,-0.031,-0.549
312,0.004,-0.002,-0.006,-0.016,0.015,0.999,0.307,-0.03,-0.582
313,0.004,-0.001,-0.005,-0.016,0.017,1.0,0.322,-0.043,-0.556
314,0.002,-0.002,-0.005,-0.016,0.017,1.0,0.307,-0.03,-0.574
315,0.002,0.004,-0.007,-0.015,0.017,0.999,0.307,-0.03,-0.574
316,0.002,0.0,-0.005,-0.015,0.016,0.999,0.319,-0.03,-0.558
317,0.002,-0.002,-0.004,-0.016,0.016,1.0,0.334,-0.031,-0.559
318,0.002,-0.002,-0.006,-0.016,0.016,1.001,0.318,-0.036,-0.57
319,0.002,-0.002,-0.006,-0.016,0.014,1.001,0.307,-0.028,-0.558
320,0.002,-0.001,-0.006,-0.015,0.015,0.999,0.325,-0.039,-0.558
321,0.002,-0.002,-0.006,-0.016,0.018,0.999,0.328,-0.03,-0.567
322,0.003,-0.001,-0.006,-0.015,0.018,0.999,0.328,-0.03,-0.567
323,0.002,-0.001,-0.006,-0.015,0.017,1.0,0.318,-0.021,-0.558
324,0.002,-0.001,-0.004,-0.016,0.016,1.0,0.324,-0.015,-0.567
325,0.002,-0.003,-0.005,-0.017,0.017,0.998,0.325,-0.028,-0.577
326,0.002,-0.001,-0.005,-0.017,0.017,0.998,0.336,-0.042,-0.565
327,0.002,0.0,-0.005,-0.016,0.016,0.998,0.319,-0.036,-0.558
328,0.002,-0.001,-0.005,-0.014,0.014,0.996,0.306,-0.024,-0.562
329,0.0,-0.009,-0.004,-0.015,0.015,0.998,0.306,-0.024,-0.562
330,0.001,-0.003,-0.004,-0.015,0.018,1.001,0.315,-0.033,-0.564
331,0.002,-0.002,-0.004,-0.015,0.018,0.999,0.312,-0.03,-0.553
332,0.002,-0.002,-0.006,-0.015,0.017,0.999,0.33,-0.031,-0.559
333,0.003,-0.001,-0.007,-0.015,0.016,1.002,0.327,-0.031,-0.567
334,0.002,-0.001,-0.006,-0.015,0.016,1.002,0.31,-0.037,-0.574
335,0.004,-0.001,-0.005,-0.016,0.017,1.0,0.304,-0.033,-0.555
336,0.003,-0.003,-0.005,-0.016,0.016,0.999,0.304,-0.033,-0.555
337,0.003,-0.002,-0.005,-0.016,0.014,1.0,0.327,-0.039,-0.546
338,0.002,-0.002,-0.005,-0.016,0.014,1.0,0.319,-0.016,-0.571
339,0.002,-0.002,-0.005,-0.016,0.015,0.999,0.306,-0.024,-0.562
340,0.002,-0.002,-0.005,-0.016,0.014,0.999,0.328,-0.022,-0.57
341,0.002,-0.002,-0.005,-0.016,0.014,0.999,0.331,-0.027,-0.565
342,0.002,-0.003,-0.005,-0.015,0.015,1.0,0.331,-0.027,-0.565
343,0.002,-0.007,-0.005,-0.015,0.015,0.999,0.319,-0.042,-0.547
344,0.002,-0.003,-0.004,-0.015,0.015,0.998,0.325,-0.022,-0.562
345,0.002,-0.003,-0.005,-0.014,0.017,0.999,0.33,-0.036,-0.571
346,0.002,-0.002,-0.006,-0.015,0.016,0.999,0.324,-0.036,-0.562
347,0.003,-0.002,-0.005,-0.015,0.016,0.998,0.327,-0.031,-0.546
348,0.003,-0.002,-0.005,-0.015,0.014,0.998,0.312,-0.025,-0.597
349,0.002,-0.002,-0.005,-0.014,0.013,0.999,0.312,-0.025,-0.597
350,0.0,-0.005,-0.004,-0.016,0.016,1.001,0.313,-0.018,-0.555
351,0.003,-0.002,-0.004,-0.015,0.016,1.002,0.313,-0.018,-0.555
352,0.003,-0.002,-0.005,-0.014,0.017,1.002,0.324,-0.021,-0.565
353,0.003,0.0,-0.004,-0.015,0.017,1.001,0.312,-0.033,-0.592
354,0.002,0.0,-0.004,-0.015,0.017,1.001,0.316,-0.042,-0.555
355,0.003,-0.002,-0.005,-0.015,0.017,0.999,0.331,-0.027,-0.57
356,0.001,-0.001,-0.006,-0.015,0.017,0.999,0.331,-0.027,-0.57
357,0.001,0.0,-0.005,-0.016,0.017,1.002,0.322,-0.022,-0.556
358,0.002,-0.001,-0.004,-0.016,0.017,1.002,0.324,-0.034,-0.564
359,0.002,-0.001,-0.004,-0.015,0.015,0.999,0.31,-0.022,-0.553
360,0.002,-0.002,-0.005,-0.013,0.016,0.998,0.307,-0.024,-0.573
361,0.002,-0.002,-0.005,-0.012,0.015,0.999,0.31,-0.031,-0.553
362,0.002,-0.002,-0.005,-0.015,0.013,0.999,0.31,-0.031,-0.553
363,0.002,-0.002,-0.004,-0.016,0.016,0.998,0.315,-0.039,-0.561
364,0.003,-0.004,-0.004,-0.015,0.018,0.998,0.313,-0.015,-0.556
365,0.002,-0.002,-0.004,-0.015,0.019,0.999,0.313,-0.015,-0.556
366,0.002,0.0,-0.005,-0.016,0.018,0.999,0.325,-0.022,-0.561
367,0.002,-0.001,-0.004,-0.016,0.017,0.999,0.337,-0.021,-0.562
368,0.002,-0.001,-0.004,-0.015,0.019,1.001,0.322,-0.042,-0.573
369,0.002,-0.001,-0.005,-0.014,0.017,1.001,0.322,-0.042,-0.573
370,0.001,0.0,-0.005,-0.015,0.016,1.0,0.336,-0.031,-0.565
371,0.002,-0.001,-0.007,-0.014,0.017,0.999,0.322,-0.034,-0.564
372,0.003,-0.002,-0.005,-0.014,0.016,0.999,0.322,-0.03,-0.57
373,0.003,-0.001,-0.005,-0.013,0.015,1.0,0.309,-0.036,-0.576
374,0.002,0.0,-0.005,-0.013,0.015,1.0,0.312,-0.031,-0.558
375,0.003,-0.001,-0.005,-0.013,0.017,0.998,0.322,-0.018,-0.567
376,0.002,-0.002,-0.005,-0.014,0.016,0.999,0.322,-0.018,-0.567
377,0.002,-0.002,-0.005,-0.013,0.015,1.0,0.324,-0.028,-0.579
378,0.002,-0.002,-0.005,-0.014,0.015,1.0,0.312,-0.025,-0.549
379,0.002,0.0,-0.007,-0.014,0.013,1.0,0.312,-0.025,-0.549
380,0.002,-0.002,-0.007,-0.016,0.015,0.999,0.312,-0.027,-0.564
381,0.002,-0.003,-0.006,-0.016,0.017,0.999,0.339,-0.028,-0.565
382,0.002,-0.002,-0.006,-0.014,0.017,0.999,0.336,-0.03,-0.571
383,0.002,-0.001,-0.005,-0.012,0.017,0.998,0.336,-0.03,-0.571
384,0.003,-0.001,-0.004,-0.013,0.015,0.999,0.309,-0.04,-0.574
385,0.004,0.001,-0.007,-0.015,0.015,1.0,0.304,-0.048,-0.559
386,0.003,0.0,-0.006,-0.016,0.015,0.999,0.307,-0.033,-0.568
387,0.002,-0.002,-0.005,-0.017,0.016,1.001,0.328,-0.033,-0.555
388,0.002,-0.002,-0.005,-0.018,0.017,1.001,0.307,-0.025,-0.573
389,0.002,-0.001,-0.005,-0.015,0.017,1.001,0.307,-0.025,-0.573
390,0.003,-0.002,-0.006,-0.012,0.018,1.002,0.319,-0.039,-0.582
391,0.003,-0.002,-0.005,-0.013,0.017,1.0,0.313,-0.027,-0.561
392,0.002,-0.006,-0.004,-0.015,0.016,0.998,0.307,-0.042,-0.546
393,0.002,-0.003,-0.005,-0.015,0.015,0.998,0.322,-0.018,-0.568
394,0.002,-0.001,-0.006,-0.015,0.015,0.998,0.328,-0.027,-0.571
395,0.002,-0.001,-0.006,-0.017,0.015,0.999,0.343,-0.049,-0.552
396,0.004,-0.002,-0.005,-0.016,0.017,1.0,0.343,-0.049,-0.552
397,0.002,-0.001,-0.005,-0.014,0.017,0.999,0.309,-0.028,-0.564
398,0.002,-0.001,-0.005,-0.016,0.017,0.999,0.306,-0.028,-0.567
399,0.002,-0.001,-0.006,-0.015,0.018,1.001,0.297,-0.042,-0.561
400,0.002,0.0,-0.005,-0.014,0.017,1.0,0.297,-0.042,-0.561
401,0.002,0.0,-0.005,-0.016,0.017,0.999,0.306,-0.036,-0.547
402,0.002,-0.002,-0.005,-0.015,0.016,1.0,0.336,-0.016,-0.568
403,0.002,-0.002,-0.004,-0.015,0.018,1.0,0.336,-0.016,-0.568
404,0.002,-0.002,-0.005,-0.015,0.017,0.998,0.315,-0.039,-0.564
405,0.002,-0.002,-0.005,-0.013,0.016,0.999,0.328,-0.019,-0.577
406,0.001,-0.005,-0.004,-0.014,0.016,1.0,0.324,-0.027,-0.579
407,0.001,-0.002,-0.005,-0.014,0.017,1.0,0.307,-0.031,-0.565
408,0.002,-0.001,-0.006,-0.014,0.019,1.0,0.337,-0.03,-0.561
409,0.002,-0.002,-0.007,-0.013,0.017,1.0,0.315,-0.028,-0.582
410,0.002,-0.002,-0.006,-0.014,0.017,1.0,0.315,-0.028,-0.582
411,0.002,-0.001,-0.006,-0.015,0.018,0.999,0.333,-0.033,-0.555
412,0.003,-0.001,-0.007,-0.016,0.017,0.999,0.322,-0.019,-0.58
413,0.003,-0.003,-0.004,-0.016,0.017,0.999,0.301,-0.021,-0.561
414,0.003,-0.003,-0.005,-0.016,0.016,1.0,0.313,-0.03,-0.559
415,0.002,-0.001,-0.006,-0.016,0.016,1.001,0.322,-0.033,-0.549
416,0.002,-0.001,-0.006,-0.018,0.016,0.999,0.331,-0.028,-0.561
417,0.002,-0.001,-0.006,-0.015,0.017,0.998,0.331,-0.028,-0.561
418,0.002,-0.002,-0.005,-0.012,0.017,1.0,0.331,-0.033,-0.558
419,0.002,-0.001,-0.005,-0.012,0.016,1.001,0.333,-0.021,-0.562
420,0.002,-0.002,-0.005,-0.015,0.017,0.999,0.312,-0.034,-0.573
421,0.0,-0.002,-0.005,-0.015,0.016,0.996,0.318,-0.033,-0.556
422,0.001,-0.002,-0.005,-0.015,0.016,0.997,0.313,-0.036,-0.558
423,0.002,-0.003,-0.004,-0.016,0.017,0.998,0.316,-0.022,-0.559
424,0.002,-0.002,-0.004,-0.016,0.017,0.998,0.316,-0.022,-0.559
425,0.001,-0.002,-0.005,-0.016,0.017,0.998,0.321,-0.03,-0.567
426,0.002,-0.001,-0.005,-0.016,0.018,0.997,0.318,-0.021,-0.57
427,0.001,-0.001,-0.005,-0.014,0.018,0.998,0.312,-0.027,-0.546
428,0.002,-0.002,-0.004,-0.013,0.016,0.998,0.331,-0.027,-0.591
429,0.002,-0.003,-0.004,-0.015,0.017,0.997,0.318,-0.03,-0.567
430,0.002,-0.002,-0.005,-0.014,0.018,0.996,0.322,-0.046,-0.568
431,0.002,-0.001,-0.006,-0.014,0.017,0.997,0.322,-0.046,-0.568
432,0.002,-0.002,-0.004,-0.014,0.015,0.998,0.318,-0.031,-0.573
433,0.002,-0.002,-0.005,-0.014,0.015,0.998,0.324,-0.021,-0.565
434,0.001,-0.005,-0.005,-0.016,0.016,0.998,0.315,-0.034,-0.564
435,0.002,-0.002,-0.004,-0.017,0.016,0.998,0.339,-0.013,-0.57
436,0.002,-0.001,-0.005,-0.015,0.016,1.001,0.333,-0.016,-0.576
437,0.002,-0.001,-0.005,-0.014,0.018,1.0,0.316,-0.018,-0.565
438,0.003,0.0,-0.006,-0.015,0.019,0.998,0.316,-0.018,-0.565
439,0.003,0.0,-0.004,-0.016,0.017,0.998,0.337,-0.034,-0.577
440,0.003,-0.001,-0.006,-0.014,0.015,0.998,0.33,-0.033,-0.562
441,0.002,-0.002,-0.006,-0.015,0.017,0.999,0.316,-0.036,-0.541
442,0.002,-0.002,-0.005,-0.017,0.016,0.998,0.307,-0.025,-0.573
443,0.002,0.0,-0.005,-0.014,0.016,0.999,0.31,-0.028,-0.564
444,0.002,0.0,-0.005,-0.012,0.016,0.999,0.33,-0.021,-0.564
445,0.002,-0.001,-0.005,-0.013,0.015,1.0,0.33,-0.021,-0.564
446,0.003,-0.001,-0.006,-0.015,0.016,1.0,0.331,-0.034,-0.57
447,0.003,0.0,-0.006,-0.017,0.016,0.998,0.321,-0.03,-0.561
448,0.005,0.0,-0.006,-0.014,0.017,0.998,0.324,-0.04,-0.579
449,0.004,-0.002,-0.005,-0.015,0.019,1.001,0.322,-0.04,-0.573
450,0.002,-0.002,-0.006,-0.017,0.016,1.002,0.31,-0.03,-0.582
451,0.002,-0.002,-0.006,-0.016,0.014,1.001,0.321,-0.04,-0.57
452,0.003,-0.002,-0.005,-0.013,0.017,1.0,0.321,-0.04,-0.57
453,0.002,-0.001,-0.005,-0.013,0.017,1.0,0.319,-0.042,-0.55
454,0.002,-0.001,-0.006,-0.013,0.015,1.002,0.324,0.0,-0.562
455,0.002,-0.004,-0.004,-0.013,0.013,1.002,0.318,-0.025,-0.543
456,0.002,-0.002,-0.006,-0.013,0.016,1.0,0.318,-0.036,-0.547
457,0.002,-0.002,-0.006,-0.014,0.016,1.0,0.319,-0.034,-0.538
458,0.003,0.0,-0.007,-0.014,0.017,1.0,0.319,-0.031,-0.571
459,0.002,-0.002,-0.005,-0.014,0.017,0.999,0.319,-0.031,-0.571
460,0.002,-0.002,-0.006,-0.016,0.015,0.997,0.33,-0.036,-0.555
461,0.002,-0.002,-0.006,-0.017,0.014,0.997,0.325,-0.027,-0.579
462,0.002,-0.001,-0.006,-0.015,0.017,0.999,0.316,-0.021,-0.574
463,0.003,-0.001,-0.006,-0.014,0.018,0.997,0.312,-0.031,-0.555
464,0.003,0.0,-0.007,-0.016,0.016,0.997,0.321,-0.042,-0.553
465,0.002,-0.002,-0.005,-0.016,0.015,1.0,0.322,-0.031,-0.571
466,0.002,-0.002,-0.005,-0.016,0.015,1.001,0.322,-0.031,-0.571
467,0.002,-0.002,-0.005,-0.015,0.015,0.999,0.33,-0.009,-0.567
468,0.001,-0.002,-0.005,-0.014,0.017,0.999,0.31,-0.022,-0.573
469,0.0,-0.007,-0.004,-0.015,0.019,1.0,0.324,-0.036,-0.544
470,0.002,-0.002,-0.005,-0.014,0.016,1.0,0.334,-0.049,-0.571
471,0.002,-0.001,-0.005,-0.014,0.016,1.0,0.334,-0.024,-0.583
472,0.002,-0.002,-0.006,-0.014,0.015,0.999,0.312,-0.036,-0.562
473,0.002,-0.001,-0.004,-0.015,0.016,0.998,0.312,-0.036,-0.562
474,0.003,-0.003,-0.005,-0.015,0.015,1.0,0.321,-0.018,-0.579
475,0.003,-0.002,-0.005,-0.017,0.016,1.0,0.331,-0.025,-0.558
476,0.003,-0.002,-0.005,-0.017,0.019,0.997,0.289,-0.039,-0.54
477,0.001,-0.009,-0.004,-0.015,0.017,0.999,0.289,-0.039,-0.54
478,0.002,-0.004,-0.004,-0.014,0.015,1.0,0.312,-0.03,-0.571
479,0.002,-0.002,-0.005,-0.015,0.016,0.998,0.333,-0.042,-0.559
480,0.002,-0.003,-0.004,-0.017,0.018,0.999,0.333,-0.042,-0.559
481,0.002,-0.002,-0.005,-0.016,0.017,1.0,0.322,-0.034,-0.565
482,0.002,-0.002,-0.005,-0.016,0.016,1.0,0.316,-0.028,-0.558
483,0.002,0.002,-0.004,-0.016,0.018,0.998,0.316,-0.043,-0.568
484,0.002,0.0,-0.004,-0.015,0.018,0.998,0.309,-0.024,-0.552
485,0.002,-0.002,-0.005,-0.015,0.016,0.999,0.33,-0.033,-0.552
486,0.003,-0.002,-0.006,-0.013,0.016,0.999,0.33,-0.033,-0.552
487,0.003,-0.001,-0.006,-0.014,0.016,1.0,0.312,-0.024,-0.568
488,0.003,-0.002,-0.004,-0.015,0.014,0.998,0.312,-0.019,-0.546
489,0.003,-0.002,-0.006,-0.015,0.013,0.999,0.322,-0.039,-0.538
490,0.003,-0.005,-0.004,-0.016,0.013,1.001,0.301,-0.03,-0.553
491,0.004,-0.003,-0.005,-0.016,0.013,1.001,0.31,-0.031,-0.562
492,0.004,-0.002,-0.005,-0.015,0.014,0.999,0.316,-0.042,-0.562
493,0.002,-0.001,-0.007,-0.016,0.017,0.999,0.316,-0.042,-0.562
494,0.002,-0.001,-0.007,-0.017,0.016,0.999,0.327,-0.031,-0.585
495,0.003,-0.002,-0.005,-0.017,0.016,0.998,0.324,-0.024,-0.571
496,0.004,-0.001,-0.005,-0.015,0.016,0.998,0.33,-0.036,-0.574
497,0.004,-0.001,-0.005,-0.014,0.016,0.998,0.307,-0.034,-0.565
498,0.003,-0.002,-0.005,-0.015,0.019,0.998,0.319,-0.015,-0.571
499,0.002,-0.001,-0.005,-0.016,0.018,0.999,0.316,-0.019,-0.547
500,0.002,-0.002,-0.004,-0.013,0.016,1.0,0.316,-0.019,-0.547
501,0.002,-0.001,-0.005,-0.015,0.016,1.0,0.319,-0.036,-0.55
502,0.002,-0.002,-0.004,-0.014,0.016,0.999,0.321,-0.025,-0.574
503,0.003,-0.002,-0.005,-0.014,0.015,0.998,0.321,-0.042,-0.559
504,0.004,-0.004,-0.005,-0.015,0.015,1.0,0.307,-0.028,-0.556
505,0.004,-0.003,-0.006,-0.015,0.016,1.0,0.321,-0.027,-0.585
506,0.002,0.0,-0.005,-0.017,0.015,0.999,0.322,-0.028,-0.574
507,0.003,-0.002,-0.004,-0.016,0.015,0.998,0.322,-0.028,-0.574
508,0.002,-0.004,-0.005,-0.015,0.015,0.998,0.3,-0.015,-0.562
509,0.002,-0.001,-0.005,-0.014,0.013,0.999,0.327,-0.046,-0.579
510,0.003,0.0,-0.005,-0.012,0.015,1.0,0.321,-0.036,-0.567
511,0.004,-0.002,-0.006,-0.015,0.016,1.001,0.321,-0.034,-0.552
512,0.004,-0.002,-0.006,-0.015,0.016,1.001,0.313,-0.037,-0.565
513,0.003,-0.003,-0.005,-0.017,0.016,1.0,0.324,-0.033,-0.568
514,0.002,-0.002,-0.005,-0.015,0.015,0.997,0.324,-0.033,-0.568
515,0.002,-0.002,-0.005,-0.014,0.013,0.997,0.315,-0.036,-0.573
516,0.002,-0.002,-0.005,-0.016,0.014,0.998,0.298,-0.031,-0.544
517,0.002,-0.003,-0.005,-0.016,0.016,0.998,0.327,-0.019,-0.567
518,0.003,0.0,-0.006,-0.016,0.017,0.999,0.303,-0.022,-0.564
519,0.004,-0.002,-0.005,-0.017,0.016,0.999,0.322,-0.036,-0.561
520,0.003,-0.002,-0.005,-0.015,0.017,0.998,0.322,-0.036,-0.561
521,0.003,-0.002,-0.006,-0.014,0.017,0.998,0.319,-0.036,-0.576
522,0.003,0.0,-0.005,-0.014,0.015,0.997,0.324,-0.03,-0.558
523,0.003,-0.001,-0.004,-0.014,0.014,0.998,0.321,-0.024,-0.573
524,0.003,-0.001,-0.005,-0.014,0.015,1.0,0.319,-0.043,-0.553
525,0.004,0.002,-0.006,-0.013,0.015,0.998,0.303,-0.022,-0.55
526,0.004,0.0,-0.006,-0.012,0.016,0.999,0.312,-0.043,-0.567
527,0.003,0.0,-0.006,-0.012,0.018,1.0,0.312,-0.043,-0.567
528,0.002,-0.002,-0.005,-0.015,0.018,1.001,0.321,-0.036,-0.562
529,0.002,-0.001,-0.006,-0.014,0.017,1.0,0.306,-0.04,-0.577
530,0.003,-0.001,-0.005,-0.014,0.017,0.999,0.316,-0.027,-0.555
531,0.004,-0.003,-0.005,-0.014,0.017,0.999,0.324,-0.031,-0.571
532,0.002,0.0,-0.006,-0.015,0.015,0.998,0.31,-0.043,-0.564
533,0.002,-0.002,-0.004,-0.012,0.013,1.001,0.31,-0.043,-0.564
534,0.003,-0.002,-0.004,-0.013,0.015,1.002,0.33,-0.019,-0.583
535,0.002,-0.002,-0.004,-0.016,0.015,0.999,0.325,-0.018,-0.562
536,0.002,-0.002,-0.004,-0.014,0.015,0.999,0.303,-0.009,-0.57
537,0.003,-0.002,-0.005,-0.015,0.016,1.0,0.333,-0.039,-0.564
538,0.002,0.0,-0.007,-0.016,0.017,0.999,0.327,-0.028,-0.567
539,0.002,0.0,-0.006,-0.016,0.017,0.998,0.322,-0.039,-0.568
540,0.003,-0.002,-0.005,-0.015,0.015,1.0,0.322,-0.039,-0.568
541,0.002,-0.002,-0.005,-0.015,0.015,1.0,0.324,-0.03,-0.564
542,0.002,-0.002,-0.005,-0.012,0.017,0.999,0.336,-0.018,-0.57
543,0.002,-0.002,-0.005,-0.013,0.017,1.0,0.319,-0.048,-0.574
544,0.002,-0.002,-0.005,-0.017,0.015,1.0,0.316,-0.036,-0.568
545,0.002,-0.002,-0.006,-0.015,0.015,0.999,0.313,-0.031,-0.571
546,0.001,-0.002,-0.004,-0.014,0.016,0.999,0.33,-0.027,-0.564
547,0.002,-0.001,-0.006,-0.015,0.017,1.0,0.33,-0.027,-0.564
548,0.003,-0.001,-0.006,-0.015,0.017,0.999,0.337,-0.036,-0.571
549,0.002,-0.002,-0.006,-0.014,0.016,0.997,0.328,-0.036,-0.564
550,0.003,-0.002,-0.005,-0.014,0.016,0.998,0.324,-0.021,-0.558
551,0.002,-0.002,-0.005,-0.014,0.016,0.998,0.315,-0.034,-0.57
552,0.002,-0.002,-0.004,-0.015,0.016,0.997,0.322,-0.039,-0.562
553,0.001,-0.002,-0.004,-0.015,0.016,0.998,0.322,-0.039,-0.562
554,0.002,-0.001,-0.004,-0.014,0.016,1.0,0.307,-0.036,-0.546
555,0.003,-0.002,-0.005,-0.015,0.017,0.999,0.309,-0.039,-0.567
556,0.003,-0.002,-0.005,-0.015,0.018,0.999,0.313,-0.025,-0.579
557,0.003,-0.001,-0.006,-0.016,0.018,0.999,0.325,-0.022,-0.562
558,0.002,-0.002,-0.005,-0.013,0.018,1.0,0.324,-0.033,-0.568
559,0.003,0.0,-0.005,-0.011,0.017,1.001,0.327,-0.016,-0.565
560,0.003,-0.002,-0.005,-0.014,0.017,1.0,0.327,-0.016,-0.565
561,0.003,-0.002,-0.006,-0.016,0.017,0.996,0.334,-0.025,-0.564
562,0.002,-0.002,-0.004,-0.016,0.015,0.998,0.306,-0.021,-0.561
563,0.0,-0.001,-0.005,-0.016,0.014,0.998,0.339,-0.043,-0.576
564,0.001,-0.002,-0.004,-0.016,0.014,0.998,0.325,-0.04,-0.558
565,0.003,-0.002,-0.005,-0.015,0.015,0.999,0.328,-0.042,-0.571
566,0.002,-0.002,-0.006,-0.014,0.017,1.0,0.334,-0.019,-0.58
567,0.0,-0.007,-0.004,-0.014,0.017,1.0,0.334,-0.019,-0.58
568,0.002,-0.002,-0.006,-0.015,0.017,0.999,0.324,-0.022,-0.55
569,0.003,-0.001,-0.005,-0.015,0.016,1.0,0.312,-0.039,-0.589
570,0.002,-0.002,-0.004,-0.014,0.016,1.0,0.318,-0.033,-0.574
571,0.002,-0.002,-0.005,-0.014,0.016,1.0,0.33,-0.039,-0.589
572,0.002,-0.003,-0.005,-0.015,0.017,0.999,0.318,-0.046,-0.579
573,0.003,-0.002,-0.006,-0.017,0.015,0.999,0.324,-0.045,-0.553
574,0.003,-0.002,-0.006,-0.015,0.014,0.998,0.31,-0.021,-0.55
575,0.003,-0.002,-0.006,-0.017,0.013,0.999,0.333,-0.025,-0.558
576,0.002,-0.001,-0.005,-0.017,0.015,1.0,0.331,-0.024,-0.556
577,0.002,-0.001,-0.005,-0.017,0.016,0.999,0.309,-0.037,-0.577
578,0.002,-0.002,-0.005,-0.017,0.016,1.0,0.321,-0.027,-0.57
579,0.001,-0.002,-0.005,-0.015,0.015,0.999,0.309,-0.021,-0.573
580,0.002,-0.002,-0.005,-0.015,0.014,0.998,0.309,-0.021,-0.573
581,0.004,-0.002,-0.005,-0.017,0.015,0.999,0.315,-0.034,-0.568
582,0.003,-0.002,-0.006,-0.016,0.015,0.999,0.315,-0.034,-0.568
583,0.002,-0.002,-0.004,-0.014,0.014,0.998,0.336,-0.013,-0.558
584,0.002,-0.002,-0.005,-0.015,0.015,0.999,0.303,-0.028,-0.579
585,0.003,-0.002,-0.005,-0.016,0.015,0.999,0.319,-0.033,-0.553
586,0.002,-0.001,-0.004,-0.017,0.014,0.998,0.324,-0.033,-0.565
587,0.002,-0.002,-0.004,-0.016,0.014,0.999,0.324,-0.033,-0.565
588,0.004,-0.004,-0.006,-0.015,0.014,0.998,0.325,-0.03,-0.573
589,0.003,-0.003,-0.005,-0.012,0.014,1.0,0.337,-0.024,-0.565
590,0.002,-0.002,-0.005,-0.012,0.014,1.0,0.319,-0.037,-0.574
591,0.002,-0.002,-0.005,-0.012,0.014,1.001,0.321,-0.022,-0.565
592,0.002,-0.003,-0.005,-0.013,0.015,0.999,0.333,-0.034,-0.549
593,0.002,-0.003,-0.005,-0.012,0.017,0.998,0.319,-0.037,-0.574
594,0.003,-0.002,-0.006,-0.012,0.017,0.999,0.319,-0.037,-0.574
595,0.004,-0.002,-0.005,-0.015,0.015,1.002,0.318,-0.025,-0.564
596,0.002,-0.003,-0.005,-0.016,0.015,1.0,0.318,-0.025,-0.564
597,0.004,-0.002,-0.005,-0.015,0.015,0.999,0.319,-0.031,-0.568
598,0.003,-0.002,-0.004,-0.013,0.015,1.0,0.313,-0.034,-0.58
599,0.003,0.0,-0.005,-0.014,0.015,1.0,0.328,-0.039,-0.579
600,0.004,0.0,-0.006,-0.014,0.016,1.0,0.336,-0.042,-0.577
601,0.003,-0.001,-0.005,-0.013,0.015,1.0,0.336,-0.042,-0.577
602,0.008,-0.002,-0.005,-0.015,0.016,0.999,0.309,-0.028,-0.574
603,0.004,-0.002,-0.006,-0.014,0.017,1.0,0.303,-0.039,-0.556
604,0.002,-0.002,-0.005,-0.014,0.015,0.999,0.31,-0.03,-0.561
605,0.002,-0.001,-0.005,-0.017,0.014,0.996,0.319,-0.027,-0.562
606,0.003,0.0,-0.005,-0.017,0.015,0.999,0.336,-0.03,-0.564
607,0.002,-0.001,-0.005,-0.013,0.014,1.0,0.327,-0.024,-0.546
608,0.002,-0.002,-0.005,-0.015,0.015,0.998,0.327,-0.024,-0.546
609,0.003,-0.006,-0.004,-0.015,0.015,0.998,0.307,-0.034,-0.546
610,0.003,-0.002,-0.006,-0.017,0.017,1.0,0.307,-0.034,-0.546
611,0.002,0.0,-0.006,-0.015,0.019,1.001,0.318,-0.031,-0.574
612,0.002,-0.001,-0.005,-0.015,0.017,1.001,0.313,-0.025,-0.553
613,0.003,-0.001,-0.005,-0.015,0.016,1.0,0.324,-0.013,-0.561
614,0.003,-0.001,-0.005,-0.014,0.014,0.999,0.325,-0.028,-0.564
615,0.002,0.0,-0.006,-0.015,0.015,0.998,0.325,-0.028,-0.564
616,0.002,0.0,-0.005,-0.015,0.016,1.001,0.313,-0.03,-0.561
617,0.002,-0.001,-0.005,-0.015,0.014,1.002,0.307,-0.039,-0.556
618,0.002,-0.002,-0.006,-0.017,0.016,1.0,0.337,-0.043,-0.561
619,0.002,-0.001,-0.005,-0.016,0.017,0.998,0.324,-0.025,-0.574
620,0.002,-0.002,-0.006,-0.015,0.017,0.998,0.306,-0.027,-0.571
621,0.002,-0.001,-0.005,-0.014,0.015,1.0,0.334,-0.025,-0.564
622,0.004,-0.001,-0.005,-0.016,0.013,1.0,0.334,-0.025,-0.564
623,0.004,-0.002,-0.005,-0.015,0.015,1.001,0.306,-0.025,-0.555
624,0.002,-0.002,-0.005,-0.014,0.016,1.002,0.316,-0.034,-0.555
625,0.002,-0.002,-0.004,-0.014,0.017,1.001,0.318,-0.039,-0.546
626,0.003,-0.004,-0.005,-0.016,0.016,1.0,0.33,-0.031,-0.571
627,0.002,-0.002,-0.005,-0.017,0.016,1.0,0.315,-0.036,-0.564
628,0.003,-0.002,-0.006,-0.017,0.016,1.0,0.315,-0.036,-0.564
629,0.002,-0.002,-0.005,-0.015,0.016,1.0,0.304,-0.039,-0.562
630,0.001,-0.006,-0.004,-0.015,0.016,1.001,0.303,-0.031,-0.549
631,0.001,-0.003,-0.005,-0.016,0.017,1.0,0.303,-0.031,-0.549
632,0.002,-0.002,-0.006,-0.016,0.016,0.998,0.319,-0.031,-0.568
633,0.002,-0.002,-0.006,-0.015,0.016,0.998,0.313,-0.028,-0.553
634,0.003,-0.001,-0.005,-0.015,0.015,0.999,0.336,-0.025,-0.54
635,0.004,-0.001,-0.005,-0.014,0.016,1.0,0.336,-0.025,-0.54
636,0.002,-0.003,-0.006,-0.014,0.017,0.999,0.318,-0.042,-0.573
637,0.002,-0.002,-0.005,-0.014,0.016,0.999,0.336,-0.039,-0.558
638,0.003,-0.002,-0.006,-0.013,0.015,0.999,0.319,-0.031,-0.567
639,0.002,-0.001,-0.006,-0.014,0.014,0.998,0.331,-0.039,-0.564
640,0.003,-0.001,-0.005,-0.014,0.013,0.998,0.33,-0.043,-0.55
641,0.002,-0.002,-0.004,-0.013,0.014,0.998,0.313,-0.031,-0.552
642,0.002,-0.002,-0.005,-0.015,0.016,0.999,0.313,-0.031,-0.552
643,0.002,-0.004,-0.005,-0.014,0.017,1.0,0.322,-0.034,-0.55
644,0.003,0.003,-0.007,-0.013,0.016,0.999,0.306,-0.03,-0.547
645,0.002,0.0,-0.005,-0.014,0.014,0.998,0.306,-0.03,-0.547
646,0.002,0.0,-0.005,-0.015,0.016,0.998,0.324,-0.042,-0.561
647,0.003,-0.001,-0.006,-0.015,0.016,0.998,0.324,-0.04,-0.562
648,0.002,-0.001,-0.006,-0.015,0.016,0.999,0.327,-0.021,-0.561
649,0.002,-0.002,-0.004,-0.015,0.014,0.999,0.327,-0.021,-0.561
650,0.002,0.0,-0.005,-0.012,0.015,0.999,0.321,-0.012,-0.565
651,0.003,0.0,-0.005,-0.013,0.016,0.999,0.327,-0.04,-0.564
652,0.003,0.0,-0.005,-0.017,0.016,0.999,0.328,-0.04,-0.561
653,0.003,-0.002,-0.005,-0.016,0.015,0.999,0.33,-0.022,-0.562
654,0.001,-0.002,-0.006,-0.014,0.015,0.999,0.322,-0.037,-0.568
655,0.002,-0.002,-0.006,-0.013,0.016,0.999,0.339,-0.03,-0.55
656,0.002,-0.002,-0.006,-0.013,0.017,0.999,0.339,-0.03,-0.55
657,0.002,-0.002,-0.005,-0.014,0.017,0.999,0.337,-0.024,-0.559
658,0.003,-0.001,-0.005,-0.014,0.015,0.998,0.328,-0.012,-0.552
659,0.001,0.0,-0.006,-0.015,0.014,0.998,0.328,-0.012,-0.552
660,0.001,-0.001,-0.006,-0.017,0.015,0.998,0.309,-0.025,-0.556
661,0.002,-0.001,-0.005,-0.015,0.017,0.997,0.322,-0.019,-0.565
662,0.002,-0.001,-0.006,-0.014,0.016,0.998,0.321,-0.031,-0.574
663,0.002,-0.002,-0.006,-0.015,0.017,0.996,0.303,-0.027,-0.564
664,0.003,-0.002,-0.006,-0.014,0.018,0.996,0.303,-0.027,-0.564
665,0.002,0.0,-0.006,-0.016,0.017,0.999,0.316,-0.039,-0.562
666,0.004,0.0,-0.006,-0.016,0.016,0.999,0.318,-0.036,-0.562
667,0.003,0.0,-0.006,-0.018,0.014,0.998,0.324,-0.028,-0.556
668,0.002,-0.002,-0.005,-0.018,0.014,0.998,0.313,-0.024,-0.564
669,0.003,-0.002,-0.005,-0.018,0.014,0.998,0.327,-0.031,-0.583
670,0.003,-0.002,-0.005,-0.016,0.014,1.0,0.334,-0.027,-0.562
671,0.003,-0.002,-0.005,-0.017,0.014,1.0,0.334,-0.027,-0.562
672,0.002,-0.002,-0.005,-0.016,0.015,0.999,0.319,-0.016,-0.546
673,0.003,-0.002,-0.005,-0.015,0.016,0.999,0.319,-0.016,-0.546
674,0.002,-0.002,-0.004,-0.014,0.018,0.999,0.339,-0.016,-0.567
675,0.002,-0.003,-0.004,-0.014,0.015,0.998,0.345,-0.018,-0.564
676,0.002,-0.001,-0.004,-0.015,0.015,0.998,0.334,-0.031,-0.55
677,0.003,0.0,-0.006,-0.015,0.015,1.0,0.334,-0.031,-0.55
678,0.002,0.0,-0.004,-0.015,0.014,0.998,0.309,-0.037,-0.574
679,0.002,-0.006,-0.004,-0.016,0.015,0.997,0.304,-0.045,-0.574
680,0.004,-0.003,-0.005,-0.016,0.017,0.998,0.304,-0.045,-0.574
681,0.002,-0.002,-0.006,-0.013,0.018,1.0,0.327,-0.012,-0.564
682,0.002,-0.001,-0.006,-0.014,0.015,1.0,0.33,-0.039,-0.565
683,0.002,-0.001,-0.006,-0.015,0.013,0.999,0.324,-0.021,-0.558
684,0.002,-0.002,-0.005,-0.012,0.016,1.0,0.318,-0.021,-0.543
685,0.004,-0.001,-0.007,-0.013,0.016,1.0,0.318,-0.021,-0.543
686,0.001,-0.002,-0.005,-0.014,0.013,1.0,0.295,-0.033,-0.54
687,0.002,-0.002,-0.005,-0.014,0.013,1.0,0.295,-0.033,-0.54
688,0.002,-0.002,-0.006,-0.015,0.015,0.999,0.312,-0.013,-0.562
689,0.002,-0.002,-0.005,-0.015,0.018,0.998,0.319,-0.022,-0.553
690,0.003,-0.003,-0.004,-0.014,0.017,0.998,0.328,-0.027,-0.576
691,0.003,-0.003,-0.004,-0.014,0.015,0.997,0.328,-0.027,-0.576
692,0.002,-0.002,-0.004,-0.014,0.015,0.999,0.319,-0.034,-0.568
693,0.002,-0.002,-0.005,-0.015,0.017,1.0,0.318,-0.039,-0.561
694,0.003,-0.002,-0.004,-0.016,0.016,0.997,0.318,-0.039,-0.561
695,0.002,-0.002,-0.005,-0.018,0.016,0.995,0.327,-0.03,-0.562
696,0.002,-0.001,-0.007,-0.016,0.018,0.997,0.312,-0.027,-0.579
697,0.002,-0.002,-0.005,-0.013,0.016,0.999,0.33,-0.031,-0.565
698,0.002,-0.002,-0.005,-0.016,0.015,1.0,0.33,-0.031,-0.565
699,0.002,-0.002,-0.006,-0.02,0.016,0.999,0.298,-0.012,-0.555
700,0.002,-0.004,-0.006,-0.016,0.014,0.998,0.313,-0.033,-0.534
701,0.002,-0.002,-0.006,-0.013,0.013,0.997,0.319,-0.015,-0.552
702,0.003,-0.001,-0.005,-0.015,0.015,0.998,0.327,-0.018,-0.567
703,0.002,-0.001,-0.004,-0.016,0.016,0.999,0.334,-0.033,-0.559
704,0.002,-0.002,-0.005,-0.018,0.017,0.999,0.327,-0.024,-0.565
705,0.002,-0.002,-0.005,-0.018,0.016,0.998,0.327,-0.024,-0.565
706,0.003,-0.004,-0.005,-0.013,0.015,0.999,0.315,-0.01,-0.546
707,0.001,-0.008,-0.004,-0.012,0.016,0.999,0.333,-0.012,-0.546
708,0.002,-0.003,-0.005,-0.012,0.016,0.999,0.333,-0.012,-0.546
709,0.003,-0.002,-0.005,-0.014,0.016,1.0,0.316,-0.01,-0.55
710,0.002,-0.002,-0.004,-0.016,0.015,1.003,0.313,-0.034,-0.529
711,0.002,-0.002,-0.004,-0.016,0.015,1.001,0.319,-0.021,-0.559
712,0.003,-0.002,-0.005,-0.015,0.015,0.998,0.319,-0.021,-0.559
713,0.002,-0.002,-0.006,-0.016,0.014,1.0,0.316,-0.003,-0.519
714,0.002,-0.004,-0.005,-0.018,0.016,1.001,0.322,-0.009,-0.552
715,0.003,-0.002,-0.006,-0.016,0.016,1.0,0.313,-0.007,-0.531
716,0.002,-0.001,-0.006,-0.015,0.014,0.997,0.31,-0.009,-0.507
717,0.002,-0.002,-0.005,-0.016,0.013,0.997,0.303,-0.012,-0.522
718,0.002,-0.004,-0.005,-0.016,0.014,0.999,0.316,-0.019,-0.525
719,0.002,-0.002,-0.005,-0.014,0.014,1.001,0.316,-0.019,-0.525
720,0.002,-0.001,-0.004,-0.015,0.016,0.999,0.322,-0.022,-0.514
721,0.001,-0.004,-0.005,-0.019,0.017,0.996,0.298,-0.004,-0.502
722,0.003,-0.004,-0.004,-0.017,0.014,0.997,0.298,-0.004,-0.502
723,0.004,-0.001,-0.005,-0.014,0.012,0.998,0.306,-0.028,-0.51
724,0.002,-0.001,-0.005,-0.017,0.016,0.999,0.325,-0.03,-0.507
725,0.003,-0.002,-0.005,-0.017,0.016,1.0,0.321,-0.021,-0.526
726,0.003,-0.001,-0.006,-0.016,0.015,1.0,0.321,-0.021,-0.526
727,0.003,-0.001,-0.006,-0.016,0.015,1.0,0.307,-0.034,-0.505
728,0.004,-0.005,-0.005,-0.014,0.015,0.998,0.303,-0.031,-0.505
729,0.002,-0.004,-0.004,-0.013,0.016,0.996,0.316,-0.024,-0.514
730,0.001,-0.001,-0.004,-0.014,0.016,0.998,0.304,-0.043,-0.505
731,0.001,-0.001,-0.004,-0.017,0.015,0.999,0.309,-0.036,-0.526
732,0.002,0.0,-0.005,-0.016,0.017,0.996,0.309,-0.036,-0.526
733,0.002,-0.002,-0.005,-0.015,0.018,0.998,0.321,-0.042,-0.523
734,0.002,-0.001,-0.005,-0.016,0.018,1.0,0.327,-0.042,-0.508
735,0.003,-0.002,-0.005,-0.015,0.016,1.0,0.303,-0.046,-0.531
736,0.002,-0.002,-0.006,-0.015,0.016,0.999,0.303,-0.046,-0.531
737,0.003,-0.002,-0.006,-0.013,0.015,0.998,0.324,-0.036,-0.544
738,0.002,-0.002,-0.005,-0.013,0.013,0.997,0.312,-0.051,-0.555
739,0.003,-0.002,-0.004,-0.013,0.015,0.998,0.322,-0.064,-0.555
740,0.002,-0.002,-0.004,-0.012,0.015,1.0,0.325,-0.055,-0.556
741,0.002,-0.002,-0.005,-0.011,0.016,1.0,0.325,-0.055,-0.556
742,0.003,-0.005,-0.004,-0.011,0.017,0.999,0.325,-0.07,-0.547
743,0.002,-0.003,-0.005,-0.011,0.015,0.998,0.31,-0.049,-0.565
744,0.003,0.0,-0.005,-0.014,0.014,1.0,0.319,-0.045,-0.55
745,0.002,-0.002,-0.005,-0.016,0.016,1.002,0.328,-0.052,-0.579
746,0.002,-0.001,-0.006,-0.016,0.016,1.002,0.324,-0.037,-0.561
747,0.002,-0.002,-0.005,-0.017,0.017,1.001,0.324,-0.019,-0.573
748,0.002,-0.002,-0.005,-0.016,0.017,0.998,0.324,-0.019,-0.573
749,0.002,-0.003,-0.004,-0.015,0.018,0.999,0.325,-0.052,-0.561
750,0.002,-0.003,-0.006,-0.016,0.015,1.0,0.325,-0.052,-0.561
751,0.002,-0.003,-0.006,-0.016,0.014,1.0,0.333,-0.042,-0.564
752,0.001,-0.002,-0.005,-0.014,0.016,1.0,0.319,-0.036,-0.576
753,0.002,-0.001,-0.005,-0.014,0.016,0.999,0.312,-0.016,-0.564
754,0.003,-0.002,-0.005,-0.014,0.014,1.0,0.312,-0.016,-0.564
755,0.004,-0.001,-0.005,-0.014,0.015,1.001,0.321,-0.028,-0.58
756,0.003,-0.005,-0.004,-0.017,0.017,0.999,0.319,-0.036,-0.553
757,0.002,-0.005,-0.004,-0.016,0.015,0.998,0.319,-0.036,-0.553
758,0.002,-0.002,-0.005,-0.014,0.015,0.998,0.315,-0.039,-0.567
759,0.003,-0.002,-0.006,-0.014,0.018,1.0,0.315,-0.024,-0.574
760,0.003,-0.002,-0.005,-0.014,0.017,1.001,0.313,-0.006,-0.567
761,0.002,0.0,-0.005,-0.015,0.015,0.999,0.313,-0.006,-0.567
762,0.002,-0.001,-0.004,-0.014,0.017,0.999,0.315,-0.025,-0.565
763,0.001,-0.006,-0.004,-0.015,0.018,1.0,0.321,-0.037,-0.553
764,0.003,-0.004,-0.005,-0.017,0.017,1.0,0.315,-0.019,-0.576
765,0.002,-0.002,-0.007,-0.017,0.017,0.999,0.319,-0.042,-0.57
766,0.003,-0.001,-0.007,-0.017,0.017,0.999,0.33,-0.024,-0.562
767,0.003,-0.001,-0.005,-0.015,0.014,0.999,0.316,-0.024,-0.558
768,0.002,-0.001,-0.006,-0.014,0.013,1.0,0.316,-0.024,-0.558
769,0.002,-0.002,-0.005,-0.014,0.015,0.999,0.339,-0.01,-0.561
770,0.002,-0.003,-0.005,-0.013,0.017,0.997,0.322,-0.042,-0.561
771,0.002,-0.003,-0.005,-0.016,0.019,0.999,0.322,-0.042,-0.561
772,0.002,-0.001,-0.006,-0.016,0.017,1.001,0.331,-0.024,-0.567
773,0.003,-0.002,-0.006,-0.014,0.015,1.0,0.334,-0.018,-0.552
774,0.002,-0.002,-0.006,-0.018,0.012,0.946,0.316,-0.021,-0.562
775,0.008,-0.014,-0.011,-0.008,-0.009,0.988,0.316,-0.021,-0.562
776,0.009,0.0,-0.01,-0.006,0.001,1.127,0.307,-0.016,-0.558
777,-0.005,0.014,0.0,-0.026,0.045,1.017,0.304,-0.034,-0.556
778,0.002,-0.012,-0.005,-0.015,0.017,0.926,0.31,-0.033,-0.582
779,0.007,-0.006,-0.009,-0.006,-0.002,1.007,0.31,-0.025,-0.556
780,0.0,0.005,-0.004,-0.022,0.027,0.999,0.312,-0.027,-0.582
781,0.001,-0.002,-0.004,-0.02,0.024,0.976,0.325,-0.01,-0.561
782,0.003,-0.007,-0.006,-0.013,0.013,0.984,0.315,-0.036,-0.573
783,0.004,-0.005,-0.007,-0.011,0.008,1.006,0.315,-0.036,-0.573
784,0.004,0.0,-0.007,-0.014,0.011,1.019,0.309,-0.012,-0.561
785,0.002,0.0,-0.004,-0.019,0.014,0.964,0.309,-0.012,-0.561
786,0.0,-0.015,-0.004,-0.019,0.014,0.964,0.298,-0.046,-0.562
787,0.018,-0.009,-0.013,-0.01,0.0,0.939,0.322,-0.018,-0.568
788,0.0,0.015,-0.001,-0.004,-0.007,1.11,0.319,-0.018,-0.568
789,-0.002,-0.003,-0.005,-0.024,0.032,1.073,0.313,-0.013,-0.571
790,-0.002,-0.003,-0.005,-0.024,0.037,0.919,0.313,-0.013,-0.571
791,0.0,-0.01,-0.007,-0.008,0.013,0.962,0.315,-0.025,-0.574
792,0.001,-0.004,-0.005,-0.013,0.017,0.982,0.334,-0.033,-0.558
793,0.002,-0.005,-0.004,-0.015,0.013,0.993,0.31,-0.027,-0.574
794,0.002,-0.003,-0.006,-0.013,0.015,0.993,0.316,-0.036,-0.562
795,0.002,-0.004,-0.006,-0.013,0.017,0.996,0.318,-0.01,-0.552
796,0.002,0.0,-0.007,-0.015,0.019,0.996,0.313,-0.045,-0.549
797,0.002,0.0,-0.005,-0.017,0.022,0.99,0.313,-0.045,-0.549
798,0.0,-0.004,-0.006,-0.015,0.016,0.997,0.304,-0.031,-0.549
799,0.002,-0.002,-0.006,-0.014,0.014,1.006,0.304,-0.031,-0.549
800,0.003,-0.001,-0.005,-0.016,0.015,1.003,0.312,-0.036,-0.568
801,0.002,-0.001,-0.005,-0.017,0.015,0.997,0.318,-0.036,-0.543
802,0.002,-0.002,-0.005,-0.018,0.015,0.999,0.322,-0.03,-0.571
803,0.002,-0.002,-0.005,-0.016,0.016,1.001,0.321,-0.034,-0.556
804,0.002,0.0,-0.005,-0.015,0.02,0.994,0.321,-0.034,-0.556
805,0.006,0.0,-0.007,-0.014,0.018,0.996,0.309,-0.027,-0.555
806,0.004,-0.002,-0.006,-0.014,0.018,0.996,0.321,-0.034,-0.546
807,0.002,-0.001,-0.005,-0.013,0.013,1.007,0.321,-0.031,-0.574
808,0.002,0.0,-0.004,-0.012,0.015,1.009,0.324,-0.012,-0.565
809,0.001,-0.002,-0.005,-0.015,0.017,1.003,0.3,-0.024,-0.547
810,0.001,-0.002,-0.005,-0.016,0.017,0.994,0.309,-0.037,-0.574
811,0.002,-0.003,-0.006,-0.014,0.015,0.997,0.309,-0.037,-0.574
812,0.003,-0.001,-0.007,-0.014,0.012,1.005,0.318,-0.03,-0.549
813,0.003,0.0,-0.004,-0.017,0.017,1.0,0.318,-0.03,-0.549
814,0.003,-0.001,-0.006,-0.016,0.017,0.996,0.294,-0.027,-0.571
815,0.003,0.0,-0.007,-0.016,0.018,0.996,0.324,-0.025,-0.568
816,0.002,-0.001,-0.006,-0.014,0.019,0.991,0.304,-0.022,-0.55
817,0.004,-0.002,-0.007,-0.013,0.016,0.998,0.334,-0.028,-0.553
818,0.003,-0.002,-0.006,-0.016,0.016,1.005,0.334,-0.028,-0.553
819,0.003,-0.008,-0.004,-0.017,0.017,1.0,0.315,-0.036,-0.561
820,0.002,-0.004,-0.004,-0.015,0.017,0.999,0.319,-0.034,-0.544
821,0.002,-0.001,-0.006,-0.013,0.017,0.997,0.306,-0.039,-0.567
822,0.002,-0.002,-0.006,-0.012,0.017,1.0,0.315,-0.039,-0.562
823,0.003,-0.003,-0.005,-0.014,0.019,1.003,0.313,-0.036,-0.582
824,0.004,-0.002,-0.006,-0.014,0.017,1.001,0.313,-0.036,-0.582
825,0.0,-0.014,0.001,-0.014,0.017,1.001,0.328,-0.03,-0.558
826,0.014,-0.007,-0.006,-0.008,0.007,1.022,0.313,-0.034,-0.553
827,0.005,0.009,-0.005,-0.005,-0.005,1.092,0.319,-0.039,-0.561
828,0.004,0.007,-0.01,-0.017,0.003,1.072,0.327,-0.028,-0.561
829,0.002,0.0,-0.008,-0.018,0.014,1.011,0.304,-0.015,-0.564
830,0.002,0.0,-0.008,-0.013,0.018,1.011,0.327,-0.037,-0.562
831,0.002,-0.002,-0.002,-0.019,0.026,0.996,0.327,-0.037,-0.562
832,0.003,-0.002,-0.004,-0.02,0.017,0.992,0.306,-0.046,-0.573
833,0.0,-0.002,-0.006,-0.016,0.011,0.978,0.306,-0.046,-0.573
834,0.002,-0.002,-0.004,-0.013,0.017,0.982,0.324,-0.03,-0.558
835,0.003,-0.002,-0.004,-0.015,0.017,1.002,0.319,-0.03,-0.567
836,0.003,-0.002,-0.004,-0.015,0.014,0.998,0.324,-0.037,-0.552
837,0.004,-0.004,-0.005,-0.014,0.013,1.0,0.303,-0.045,-0.568
838,0.002,0.0,-0.006,-0.016,0.014,1.001,0.321,-0.04,-0.564
839,0.002,-0.001,-0.005,-0.016,0.017,0.993,0.321,-0.04,-0.564
840,0.002,-0.004,-0.004,-0.013,0.015,0.997,0.301,-0.039,-0.547
841,0.002,-0.002,-0.004,-0.014,0.012,1.005,0.327,-0.037,-0.561
842,0.003,-0.002,-0.006,-0.014,0.014,1.0,0.312,-0.031,-0.558
843,0.002,-0.002,-0.005,-0.014,0.017,0.999,0.334,-0.046,-0.561
844,0.002,-0.002,-0.004,-0.015,0.016,1.002,0.318,-0.006,-0.567
845,0.002,0.0,-0.004,-0.015,0.016,1.002,0.318,-0.006,-0.567
846,0.002,-0.002,-0.005,-0.017,0.014,1.0,0.321,-0.034,-0.558
847,0.002,0.002,-0.007,-0.016,0.016,0.997,0.303,-0.03,-0.55
848,0.004,0.0,-0.005,-0.014,0.019,0.998,0.303,-0.03,-0.55
849,0.004,-0.003,-0.005,-0.014,0.02,1.0,0.313,-0.019,-0.565
850,0.004,-0.003,-0.005,-0.014,0.016,1.002,0.325,-0.042,-0.568
851,0.002,-0.001,-0.006,-0.016,0.013,1.0,0.313,-0.046,-0.568
852,0.002,0.0,-0.006,-0.017,0.014,1.0,0.313,-0.046,-0.568
853,0.003,-0.002,-0.004,-0.016,0.015,1.0,0.295,-0.037,-0.577
854,0.002,-0.002,-0.005,-0.014,0.015,0.998,0.319,-0.013,-0.559
855,0.002,-0.002,-0.005,-0.013,0.017,0.998,0.325,-0.042,-0.55
856,0.002,-0.003,-0.006,-0.015,0.018,0.998,0.325,-0.018,-0.565
857,0.003,-0.002,-0.005,-0.014,0.017,0.998,0.318,-0.033,-0.571
858,0.003,-0.001,-0.005,-0.012,0.017,0.998,0.333,-0.025,-0.564
859,0.002,-0.002,-0.004,-0.013,0.017,0.999,0.333,-0.025,-0.564
860,0.002,-0.001,-0.005,-0.015,0.016,0.998,0.334,-0.034,-0.573
861,0.0,-0.002,-0.005,-0.014,0.015,1.0,0.295,-0.021,-0.556
862,0.002,-0.002,-0.005,-0.013,0.016,1.0,0.295,-0.021,-0.556
863,0.004,-0.002,-0.004,-0.015,0.018,0.999,0.324,-0.037,-0.577
864,0.003,-0.002,-0.004,-0.015,0.018,0.999,0.324,-0.027,-0.57
865,0.002,-0.001,-0.005,-0.017,0.017,0.999,0.319,-0.034,-0.553
866,0.002,-0.001,-0.004,-0.015,0.015,1.0,0.319,-0.034,-0.553
867,0.002,-0.001,-0.004,-0.012,0.016,1.0,0.31,-0.022,-0.553
868,0.002,-0.001,-0.004,-0.013,0.018,0.999,0.312,-0.028,-0.577
869,0.001,-0.007,-0.004,-0.014,0.018,1.0,0.321,-0.039,-0.559
870,0.002,-0.004,-0.005,-0.015,0.017,0.999,0.306,-0.024,-0.564
871,0.002,-0.002,-0.005,-0.014,0.016,1.001,0.298,-0.028,-0.555
872,0.002,-0.002,-0.005,-0.015,0.016,1.0,0.322,-0.033,-0.571
873,0.002,-0.002,-0.005,-0.017,0.015,0.997,0.3,-0.042,-0.558
874,0.002,-0.002,-0.006,-0.018,0.015,0.998,0.3,-0.042,-0.558
875,0.004,-0.002,-0.007,-0.016,0.015,0.997,0.319,-0.028,-0.55
876,0.002,-0.001,-0.007,-0.016,0.015,0.997,0.319,-0.028,-0.55
877,0.004,0.0,-0.006,-0.016,0.014,0.998,0.318,-0.021,-0.562
878,0.003,-0.003,-0.005,-0.015,0.014,0.998,0.315,-0.043,-0.564
879,0.004,-0.003,-0.005,-0.015,0.015,0.998,0.325,-0.036,-0.576
880,0.002,-0.002,-0.005,-0.016,0.017,0.999,0.324,-0.022,-0.561
881,0.003,-0.002,-0.005,-0.016,0.018,1.0,0.324,-0.022,-0.561
882,0.004,0.0,-0.007,-0.015,0.018,1.0,0.319,-0.039,-0.573
883,0.003,-0.002,-0.005,-0.016,0.017,1.001,0.322,-0.019,-0.552
884,0.003,-0.002,-0.005,-0.015,0.016,1.0,0.318,-0.03,-0.57
885,0.002,-0.003,-0.005,-0.015,0.016,1.0,0.331,-0.036,-0.54
886,0.003,-0.002,-0.005,-0.013,0.017,0.998,0.319,-0.033,-0.55
887,0.004,-0.002,-0.005,-0.015,0.017,1.0,0.319,-0.033,-0.55
888,0.002,-0.001,-0.005,-0.016,0.016,1.002,0.337,-0.03,-0.558
889,0.002,-0.001,-0.005,-0.015,0.016,1.0,0.315,-0.022,-0.55
890,0.002,-0.004,-0.004,-0.015,0.016,0.998,0.315,-0.022,-0.55
891,0.003,-0.002,-0.005,-0.015,0.016,1.0,0.301,-0.036,-0.564
892,0.003,-0.001,-0.004,-0.015,0.017,0.999,0.328,-0.022,-0.577
893,0.002,-0.002,-0.005,-0.013,0.015,0.999,0.331,-0.021,-0.567
894,0.002,-0.001,-0.005,-0.013,0.015,1.0,0.3,-0.024,-0.571
895,0.002,-0.001,-0.004,-0.015,0.017,1.0,0.3,-0.024,-0.571
896,0.005,0.0,-0.006,-0.015,0.016,1.002,0.316,-0.027,-0.562
897,0.004,-0.002,-0.005,-0.017,0.017,1.002,0.316,-0.027,-0.562
898,0.001,-0.004,-0.004,-0.015,0.017,1.0,0.306,-0.042,-0.564
899,0.002,-0.004,-0.005,-0.015,0.016,1.001,0.318,-0.03,-0.573
900,0.003,-0.002,-0.005,-0.015,0.018,1.001,0.315,-0.031,-0.583
901,0.002,-0.002,-0.006,-0.015,0.017,0.999,0.315,-0.031,-0.583
902,0.002,-0.002,-0.005,-0.014,0.016,0.999,0.313,-0.03,-0.564
903,0.002,-0.005,-0.004,-0.014,0.016,0.999,0.309,-0.031,-0.558
904,0.002,-0.002,-0.004,-0.015,0.017,0.999,0.313,-0.039,-0.592
905,0.003,-0.001,-0.004,-0.015,0.018,0.999,0.33,-0.037,-0.558
906,0.002,-0.003,-0.004,-0.015,0.02,1.001,0.303,-0.033,-0.559
907,0.002,-0.003,-0.004,-0.016,0.017,1.0,0.316,-0.036,-0.562
908,0.002,-0.003,-0.004,-0.016,0.016,0.998,0.316,-0.036,-0.562
909,0.002,-0.002,-0.005,-0.014,0.016,0.999,0.318,-0.019,-0.555
910,0.002,0.0,-0.005,-0.014,0.015,0.999,0.31,-0.021,-0.567
911,0.001,-0.002,-0.006,-0.015,0.017,0.999,0.31,-0.021,-0.567
912,0.002,-0.001,-0.006,-0.016,0.017,1.001,0.31,-0.039,-0.565
913,0.002,-0.002,-0.006,-0.015,0.015,1.0,0.328,-0.03,-0.565
914,0.002,-0.001,-0.006,-0.014,0.015,0.997,0.31,-0.039,-0.562
915,0.002,-0.001,-0.006,-0.014,0.017,0.997,0.327,-0.028,-0.556
916,0.003,-0.001,-0.005,-0.015,0.015,1.001,0.327,-0.028,-0.556
917,0.005,0.005,-0.007,-0.014,0.015,1.001,0.333,-0.024,-0.57
918,0.002,0.0,-0.007,-0.012,0.016,1.001,0.304,-0.042,-0.564
919,0.002,-0.002,-0.006,-0.013,0.017,1.0,0.298,-0.037,-0.561
920,0.001,-0.002,-0.005,-0.013,0.017,1.0,0.322,-0.034,-0.561
921,0.002,-0.002,-0.005,-0.014,0.015,1.0,0.319,-0.036,-0.568
922,0.002,-0.002,-0.005,-0.014,0.014,1.0,0.319,-0.036,-0.568
923,0.002,-0.001,-0.005,-0.014,0.015,1.0,0.312,-0.031,-0.57
924,0.002,-0.002,-0.005,-0.014,0.016,1.0,0.328,-0.028,-0.54
925,0.002,0.0,-0.004,-0.014,0.016,1.0,0.328,-0.028,-0.54
926,0.002,-0.002,-0.005,-0.016,0.015,1.002,0.309,-0.045,-0.555
927,0.002,-0.002,-0.006,-0.016,0.014,1.0,0.322,-0.046,-0.549
928,0.002,-0.002,-0.006,-0.016,0.016,0.998,0.312,-0.019,-0.564
929,0.002,-0.002,-0.006,-0.017,0.016,0.998,0.312,-0.019,-0.564
930,0.002,-0.002,-0.006,-0.015,0.017,0.999,0.327,-0.024,-0.571
931,0.003,-0.003,-0.005,-0.015,0.019,0.997,0.316,-0.021,-0.571
932,0.004,-0.002,-0.006,-0.016,0.018,0.997,0.327,-0.04,-0.559
933,0.004,0.0,-0.006,-0.015,0.015,0.996,0.316,-0.043,-0.553
934,0.002,-0.001,-0.005,-0.016,0.016,0.995,0.307,-0.025,-0.565
935,0.002,-0.002,-0.005,-0.015,0.016,0.999,0.304,-0.034,-0.579
936,0.002,-0.002,-0.004,-0.015,0.016,1.001,0.321,-0.024,-0.567
937,0.002,-0.001,-0.005,-0.014,0.016,1.0,0.321,-0.024,-0.567
938,0.004,-0.009,-0.004,-0.013,0.015,0.998,0.307,-0.04,-0.541
939,0.003,-0.004,-0.005,-0.014,0.015,0.999,0.307,-0.04,-0.541
940,0.002,-0.002,-0.005,-0.013,0.015,1.0,0.342,-0.027,-0.567
941,0.002,-0.003,-0.005,-0.014,0.016,0.999,0.307,-0.04,-0.562
942,0.003,-0.002,-0.006,-0.015,0.014,0.996,0.333,-0.022,-0.571
943,0.002,-0.001,-0.005,-0.014,0.014,0.999,0.333,-0.022,-0.571
944,0.002,-0.002,-0.005,-0.014,0.014,0.999,0.3,-0.024,-0.567
945,0.003,-0.007,-0.004,-0.016,0.015,1.0,0.313,-0.031,-0.562
946,0.003,-0.004,-0.004,-0.016,0.015,0.998,0.336,-0.036,-0.567
947,0.003,-0.002,-0.004,-0.015,0.015,1.0,0.321,-0.025,-0.568
948,0.003,-0.002,-0.004,-0.013,0.015,1.001,0.339,-0.022,-0.579
949,0.003,-0.002,-0.005,-0.012,0.015,1.0,0.316,-0.03,-0.561
950,0.002,-0.002,-0.005,-0.014,0.016,0.999,0.333,-0.025,-0.565
951,0.002,-0.002,-0.004,-0.016,0.015,0.998,0.333,-0.025,-0.565
952,0.002,0.003,-0.007,-0.016,0.014,0.999,0.316,-0.028,-0.543
953,0.004,0.0,-0.006,-0.016,0.015,0.999,0.316,-0.028,-0.543
954,0.002,-0.002,-0.005,-0.015,0.015,0.999,0.31,-0.028,-0.576
955,0.003,-0.001,-0.006,-0.014,0.016,1.001,0.322,-0.013,-0.558
956,0.002,-0.002,-0.007,-0.015,0.016,1.001,0.316,-0.036,-0.588
957,0.003,-0.002,-0.007,-0.016,0.015,0.999,0.316,-0.036,-0.588
958,0.003,-0.002,-0.005,-0.017,0.015,0.998,0.321,-0.027,-0.586
959,0.002,0.002,-0.006,-0.016,0.015,0.999,0.303,-0.031,-0.55
960,0.002,-0.002,-0.005,-0.013,0.017,0.998,0.303,-0.031,-0.55
961,0.002,-0.002,-0.004,-0.012,0.017,0.997,0.313,-0.025,-0.558
962,0.003,-0.002,-0.005,-0.012,0.016,0.998,0.313,-0.03,-0.586
963,0.002,-0.002,-0.004,-0.012,0.016,0.998,0.319,-0.042,-0.561
964,0.002,-0.002,-0.006,-0.015,0.017,0.996,0.319,-0.027,-0.561
965,0.002,-0.001,-0.006,-0.017,0.017,0.997,0.319,-0.027,-0.561
966,0.003,-0.003,-0.005,-0.016,0.017,0.999,0.321,-0.037,-0.564
967,0.003,-0.004,-0.004,-0.014,0.016,0.998,0.321,-0.037,-0.564
968,0.003,-0.004,-0.004,-0.016,0.014,0.999,0.316,-0.036,-0.561
969,0.002,0.0,-0.005,-0.018,0.014,1.0,0.333,-0.028,-0.562
970,0.002,-0.002,-0.005,-0.015,0.015,1.002,0.319,-0.042,-0.556
971,0.002,-0.001,-0.006,-0.017,0.017,1.003,0.319,-0.042,-0.556
972,0.002,-0.003,-0.006,-0.018,0.017,1.0,0.327,-0.037,-0.562
973,0.002,-0.005,-0.005,-0.015,0.015,0.998,0.298,-0.036,-0.555
974,0.004,-0.003,-0.004,-0.014,0.015,0.997,0.298,-0.036,-0.555
975,0.003,-0.002,-0.004,-0.013,0.016,0.997,0.327,-0.021,-0.561
976,0.003,-0.002,-0.006,-0.015,0.015,1.0,0.309,-0.037,-0.58
977,0.003,-0.002,-0.005,-0.016,0.014,1.001,0.318,-0.04,-0.582
978,0.003,-0.002,-0.005,-0.015,0.017,1.0,0.313,-0.037,-0.553
979,0.002,-0.003,-0.004,-0.014,0.018,0.998,0.313,-0.037,-0.553
980,0.002,-0.003,-0.005,-0.014,0.016,0.999,0.304,-0.028,-0.558
981,0.002,-0.001,-0.005,-0.015,0.016,0.999,0.313,-0.048,-0.55
982,0.002,0.0,-0.006,-0.015,0.018,0.997,0.315,-0.018,-0.555
983,0.003,0.0,-0.004,-0.015,0.018,0.997,0.325,-0.034,-0.562
984,0.004,-0.002,-0.004,-0.014,0.017,0.998,0.307,-0.03,-0.564
985,0.003,-0.001,-0.005,-0.013,0.015,1.0,0.307,-0.03,-0.564
986,0.003,-0.002,-0.005,-0.014,0.016,1.0,0.309,-0.03,-0.567
987,0.002,-0.002,-0.005,-0.013,0.015,0.998,0.307,-0.034,-0.576
988,0.002,-0.002,-0.005,-0.015,0.014,0.999,0.307,-0.034,-0.576
989,0.002,-0.003,-0.004,-0.017,0.015,1.001,0.321,-0.04,-0.577
990,0.002,-0.001,-0.005,-0.016,0.016,1.001,0.309,-0.027,-0.576
991,0.002,-0.002,-0.005,-0.015,0.016,0.999,0.315,-0.031,-0.565
992,0.002,-0.002,-0.006,-0.015,0.014,0.999,0.315,-0.031,-0.565
993,0.002,-0.001,-0.005,-0.014,0.016,0.998,0.304,-0.043,-0.564
994,0.002,-0.003,-0.006,-0.014,0.017,0.996,0.313,-0.03,-0.561
995,0.003,-0.002,-0.005,-0.015,0.016,0.998,0.309,-0.039,-0.558
996,0.002,-0.004,-0.004,-0.013,0.016,0.999,0.333,-0.028,-0.564
997,0.002,-0.002,-0.005,-0.015,0.016,1.0,0.325,-0.033,-0.583
998,0.002,-0.002,-0.005,-0.017,0.014,1.0,0.322,-0.03,-0.567
999,0.003,-0.002,-0.006,-0.015,0.015,1.0,0.322,-0.03,-0.567
1000,0.002,-0.002,-0.005,-0.014,0.017,1.0,0.322,-0.022,-0.58
1001,0.003,-0.003,-0.006,-0.016,0.016,0.998,0.321,-0.039,-0.567
1002,0.002,-0.002,-0.005,-0.015,0.016,0.998,0.321,-0.039,-0.567
1003,0.002,-0.001,-0.004,-0.015,0.016,0.998,0.322,-0.024,-0.58
1004,0.003,0.0,-0.005,-0.014,0.016,0.999,0.33,-0.031,-0.562
1005,0.003,-0.002,-0.005,-0.015,0.015,1.0,0.315,-0.024,-0.564
1006,0.002,-0.002,-0.004,-0.015,0.017,0.999,0.31,-0.019,-0.565
1007,0.002,-0.002,-0.004,-0.016,0.017,0.999,0.31,-0.019,-0.565
1008,0.003,-0.001,-0.006,-0.016,0.015,0.999,0.301,-0.04,-0.559
1009,0.004,-0.003,-0.005,-0.014,0.018,0.998,0.31,-0.034,-0.588
1010,0.004,-0.002,-0.005,-0.013,0.019,0.999,0.331,-0.034,-0.556
1011,0.002,-0.002,-0.005,-0.015,0.017,1.0,0.325,-0.03,-0.574
1012,0.002,-0.002,-0.006,-0.015,0.017,1.0,0.304,-0.007,-0.552
1013,0.002,-0.002,-0.005,-0.016,0.017,0.998,0.304,-0.007,-0.552
1014,0.002,-0.002,-0.005,-0.014,0.016,0.999,0.318,-0.031,-0.577
1015,0.004,-0.001,-0.006,-0.013,0.016,0.998,0.306,-0.031,-0.577
1016,0.003,-0.001,-0.005,-0.015,0.017,0.997,0.306,-0.031,-0.577
1017,0.003,-0.002,-0.004,-0.014,0.017,0.998,0.307,-0.039,-0.556
1018,0.002,-0.002,-0.005,-0.014,0.015,0.997,0.318,-0.028,-0.573
1019,0.002,-0.002,-0.004,-0.015,0.014,0.999,0.334,-0.03,-0.558
1020,0.002,-0.002,-0.006,-0.014,0.016,1.001,0.309,-0.045,-0.573
1021,0.002,-0.003,-0.005,-0.013,0.015,0.999,0.309,-0.045,-0.573
1022,0.0,0.001,-0.005,-0.013,0.015,0.999,0.322,-0.025,-0.576
1023,0.002,0.0,-0.006,-0.015,0.016,1.0,0.301,-0.012,-0.586
1024,0.002,-0.002,-0.006,-0.014,0.017,0.999,0.315,-0.036,-0.565
1025,0.003,-0.001,-0.006,-0.015,0.017,0.997,0.324,-0.033,-0.583
1026,0.003,-0.001,-0.006,-0.016,0.016,0.998,0.313,-0.045,-0.567
1027,0.002,-0.002,-0.005,-0.013,0.015,0.997,0.313,-0.045,-0.567
1028,0.003,0.0,-0.006,-0.01,0.015,0.998,0.327,-0.031,-0.55
1029,0.002,-0.001,-0.005,-0.01,0.015,1.0,0.322,-0.036,-0.558
1030,0.002,-0.001,-0.004,-0.013,0.014,1.0,0.322,-0.036,-0.558
1031,0.003,0.0,-0.005,-0.015,0.016,1.0,0.304,-0.045,-0.588
1032,0.002,0.0,-0.006,-0.014,0.017,0.999,0.318,-0.045,-0.559
1033,0.002,-0.001,-0.007,-0.015,0.015,0.998,0.324,-0.043,-0.559
1034,0.002,-0.002,-0.005,-0.016,0.014,0.997,0.328,-0.031,-0.567
1035,0.002,-0.002,-0.005,-0.016,0.016,0.997,0.328,-0.031,-0.567
1036,0.004,0.006,-0.006,-0.015,0.016,0.999,0.325,-0.03,-0.549
1037,0.003,0.0,-0.006,-0.014,0.014,1.0,0.306,-0.024,-0.562
1038,0.002,-0.002,-0.006,-0.015,0.015,0.998,0.318,-0.04,-0.568
1039,0.002,-0.003,-0.006,-0.017,0.016,0.997,0.325,-0.039,-0.582
1040,0.002,-0.002,-0.006,-0.016,0.016,0.998,0.306,-0.04,-0.562
1041,0.003,-0.001,-0.006,-0.014,0.016,0.998,0.306,-0.04,-0.562
1042,0.002,-0.001,-0.005,-0.014,0.016,0.998,0.319,-0.021,-0.577
1043,0.001,0.0,-0.005,-0.012,0.017,0.998,0.297,-0.027,-0.555
1044,0.002,-0.004,-0.005,-0.015,0.017,0.999,0.322,-0.015,-0.574
1045,0.002,-0.002,-0.006,-0.017,0.015,0.999,0.325,-0.031,-0.576
1046,0.002,-0.002,-0.005,-0.016,0.015,0.999,0.33,-0.019,-0.564
1047,0.002,-0.002,-0.005,-0.016,0.016,1.0,0.316,-0.04,-0.562
1048,0.002,-0.001,-0.006,-0.015,0.018,1.0,0.333,-0.028,-0.573
1049,0.002,0.0,-0.006,-0.013,0.018,1.001,0.333,-0.028,-0.573
1050,0.002,0.001,-0.007,-0.012,0.016,0.999,0.313,-0.027,-0.547
1051,0.003,-0.001,-0.005,-0.014,0.018,0.998,0.313,-0.027,-0.547
1052,0.004,-0.001,-0.005,-0.015,0.018,0.999,0.325,-0.037,-0.576
1053,0.004,-0.001,-0.005,-0.016,0.017,1.0,0.333,-0.043,-0.555
1054,0.003,0.0,-0.005,-0.016,0.014,0.999,0.321,-0.031,-0.559
1055,0.002,-0.002,-0.006,-0.016,0.015,0.996,0.321,-0.031,-0.559
1056,0.002,-0.002,-0.006,-0.018,0.015,0.997,0.318,-0.039,-0.57
1057,0.003,0.0,-0.006,-0.016,0.014,0.998,0.331,-0.025,-0.552
1058,0.002,-0.002,-0.005,-0.014,0.014,0.998,0.307,-0.042,-0.576
1059,0.004,0.0,-0.005,-0.016,0.015,0.999,0.328,-0.006,-0.574
1060,0.002,-0.002,-0.006,-0.017,0.016,0.999,0.331,-0.022,-0.571
1061,0.002,-0.001,-0.004,-0.016,0.015,0.998,0.31,-0.021,-0.583
1062,0.002,-0.001,-0.005,-0.016,0.015,0.998,0.31,-0.021,-0.583
1063,0.002,-0.001,-0.006,-0.015,0.016,0.999,0.31,-0.037,-0.571
1064,0.004,0.011,-0.007,-0.012,0.019,1.0,0.312,-0.021,-0.568
1065,0.002,0.001,-0.006,-0.014,0.017,0.998,0.312,-0.021,-0.568
1066,0.002,-0.002,-0.006,-0.017,0.016,0.998,0.319,-0.024,-0.553
1067,0.002,-0.002,-0.006,-0.015,0.017,1.0,0.319,-0.034,-0.561
1068,0.002,0.0,-0.005,-0.014,0.016,0.999,0.315,-0.027,-0.58
1069,0.002,-0.002,-0.005,-0.015,0.018,0.998,0.315,-0.027,-0.58
1070,0.002,0.0,-0.006,-0.014,0.019,0.999,0.321,-0.034,-0.571
1071,0.001,-0.001,-0.005,-0.014,0.015,1.0,0.324,-0.034,-0.561
1072,0.002,-0.002,-0.005,-0.015,0.015,0.999,0.315,-0.019,-0.553
1073,0.003,0.0,-0.005,-0.014,0.015,0.999,0.312,-0.036,-0.564
1074,0.002,-0.002,-0.005,-0.013,0.015,0.999,0.318,-0.028,-0.568
1075,0.002,-0.003,-0.005,-0.014,0.016,0.997,0.316,-0.03,-0.571
1076,0.002,-0.002,-0.005,-0.015,0.017,0.997,0.316,-0.03,-0.571
1077,0.002,-0.001,-0.005,-0.014,0.016,0.998,0.324,-0.028,-0.577
1078,0.004,-0.003,-0.004,-0.015,0.016,0.998,0.324,-0.028,-0.577
1079,0.003,-0.002,-0.006,-0.016,0.018,0.998,0.31,-0.049,-0.565
1080,0.002,-0.001,-0.005,-0.016,0.016,0.997,0.325,-0.043,-0.579
1081,0.002,-0.001,-0.004,-0.014,0.016,0.998,0.327,-0.042,-0.573
1082,0.002,-0.001,-0.004,-0.014,0.016,0.998,0.31,-0.034,-0.567
1083,0.003,0.0,-0.005,-0.014,0.018,0.999,0.315,-0.034,-0.565
1084,0.002,0.0,-0.006,-0.015,0.015,0.999,0.315,-0.034,-0.565
1085,0.002,0.0,-0.006,-0.016,0.013,0.997,0.319,-0.03,-0.577
1086,0.002,0.002,-0.006,-0.016,0.015,0.999,0.316,-0.036,-0.555
1087,0.002,0.0,-0.006,-0.014,0.014,1.0,0.309,-0.036,-0.573
1088,0.002,-0.001,-0.005,-0.015,0.015,0.998,0.319,-0.031,-0.556
1089,0.002,0.0,-0.006,-0.013,0.015,1.0,0.331,-0.051,-0.576
1090,0.002,-0.002,-0.006,-0.014,0.016,1.001,0.321,-0.028,-0.55
1091,0.002,-0.002,-0.006,-0.014,0.014,0.999,0.321,-0.028,-0.55
1092,0.001,-0.007,-0.004,-0.013,0.014,0.998,0.307,-0.031,-0.562
1093,0.004,-0.004,-0.005,-0.014,0.015,0.998,0.307,-0.031,-0.562
1094,0.004,-0.001,-0.005,-0.015,0.017,0.999,0.322,-0.037,-0.57
1095,0.002,-0.002,-0.004,-0.017,0.016,0.998,0.309,-0.039,-0.565
1096,0.007,-0.002,-0.004,-0.009,0.005,1.0,0.328,-0.033,-0.55
1097,0.008,-0.004,-0.001,-0.027,0.0,1.009,0.328,-0.033,-0.55
1098,0.002,-0.021,-0.004,-0.007,-0.006,0.973,0.322,-0.027,-0.556
1099,0.021,-0.003,0.018,0.021,-0.014,0.977,0.318,-0.024,-0.552
1100,0.008,0.015,0.07,0.016,0.04,0.989,0.318,-0.024,-0.552
1101,0.009,0.004,0.102,0.016,0.132,0.958,0.316,-0.04,-0.547
1102,0.01,-0.007,0.022,-0.032,0.132,0.967,0.3,-0.025,-0.571
1103,0.016,-0.008,0.021,-0.036,0.089,0.986,0.319,-0.039,-0.577
1104,0.013,-0.004,0.012,-0.001,0.007,0.993,0.318,-0.033,-0.567
1105,0.013,-0.004,0.012,-0.016,0.009,0.983,0.318,-0.033,-0.567
1106,0.014,0.005,0.015,-0.016,0.019,0.985,0.313,-0.033,-0.559
1107,0.016,0.007,0.012,-0.015,0.016,1.003,0.313,-0.033,-0.559
1108,0.017,0.002,0.014,-0.013,0.016,1.006,0.336,-0.025,-0.558
1109,0.015,0.0,0.005,-0.03,0.025,0.996,0.304,-0.04,-0.564
1110,0.01,-0.007,-0.016,-0.031,0.017,0.995,0.334,-0.024,-0.583
1111,0.011,-0.016,-0.028,-0.022,0.015,1.0,0.334,-0.024,-0.583
1112,0.011,-0.022,-0.033,-0.027,0.008,1.013,0.322,-0.009,-0.573
1113,0.009,-0.016,-0.046,-0.008,-0.003,1.012,0.316,-0.027,-0.564
1114,0.008,-0.021,-0.049,0.005,0.002,0.992,0.316,-0.027,-0.564
1115,0.021,-0.014,-0.063,0.004,0.006,0.977,0.324,-0.031,-0.574
1116,0.023,-0.014,-0.116,0.017,-0.015,0.981,0.321,-0.04,-0.568
1117,0.014,0.0,-0.007,0.007,-0.007,0.992,0.328,-0.042,-0.555
1118,0.006,0.0,0.002,-0.01,0.015,0.993,0.328,-0.042,-0.555
1119,0.008,0.0,0.0,-0.018,0.011,0.999,0.307,-0.036,-0.558
1120,0.005,-0.007,-0.006,-0.017,0.01,0.997,0.321,-0.043,-0.565
1121,0.009,-0.007,-0.014,-0.017,0.01,0.997,0.319,-0.012,-0.562
1122,0.014,-0.002,-0.007,-0.009,0.001,0.987,0.306,-0.027,-0.555
1123,0.012,0.001,0.003,-0.013,0.011,0.969,0.324,-0.031,-0.577
1124,0.009,0.002,0.009,-0.014,0.019,0.977,0.31,-0.018,-0.553
1125,0.009,0.002,0.009,-0.018,0.011,0.999,0.319,-0.036,-0.552
1126,0.007,0.001,0.007,-0.017,0.013,0.998,0.319,-0.036,-0.552
1127,0.006,0.0,0.004,-0.012,0.013,0.997,0.316,-0.019,-0.531
1128,0.004,-0.001,0.0,-0.016,0.014,0.999,0.316,-0.019,-0.531
1129,0.007,-0.004,-0.005,-0.016,0.011,1.0,0.301,-0.033,-0.573
1130,0.008,-0.004,-0.005,-0.017,0.01,1.001,0.325,-0.03,-0.561
1131,0.007,-0.006,-0.007,-0.017,0.013,0.996,0.309,-0.031,-0.564
1132,0.005,0.0,-0.004,-0.02,0.011,0.98,0.309,-0.031,-0.564
1133,0.007,-0.001,-0.005,-0.029,0.004,0.99,0.316,-0.039,-0.553
1134,0.006,0.0,-0.004,-0.023,0.004,0.996,0.318,-0.027,-0.576
1135,0.005,-0.002,0.0,-0.008,0.014,0.986,0.319,-0.024,-0.55
1136,0.004,0.0,0.0,-0.01,0.017,0.993,0.315,-0.03,-0.574
1137,0.006,-0.002,-0.001,-0.015,0.014,0.997,0.319,-0.034,-0.558
1138,0.005,-0.001,0.0,-0.012,0.011,0.996,0.316,-0.022,-0.573
1139,0.005,0.0,0.002,-0.015,0.011,0.995,0.316,-0.022,-0.573
1140,0.004,0.0,0.003,-0.014,0.012,0.998,0.315,-0.039,-0.556
1141,0.004,0.0,0.006,-0.014,0.009,0.999,0.316,-0.024,-0.547
1142,0.002,0.0,0.007,-0.015,0.009,0.999,0.316,-0.024,-0.547
1143,0.0,0.003,0.006,-0.018,0.007,1.0,0.324,-0.027,-0.567
1144,0.0,0.002,0.007,-0.015,0.008,1.001,0.313,-0.039,-0.583
1145,0.0,0.002,0.007,-0.012,0.009,1.008,0.318,-0.037,-0.547
1146,-0.002,0.005,0.011,-0.005,0.005,1.002,0.318,-0.037,-0.547
1147,0.0,0.002,0.014,-0.005,0.006,0.996,0.325,-0.025,-0.565
1148,-0.001,0.005,0.026,-0.01,0.011,1.002,0.303,-0.03,-0.576
1149,0.0,0.006,0.03,-0.016,0.008,1.001,0.325,-0.043,-0.561
1150,0.0,0.007,0.051,-0.012,0.011,0.984,0.306,-0.027,-0.567
1151,0.0,0.01,0.053,0.0,-0.001,0.977,0.324,-0.031,-0.579
1152,-0.003,0.011,0.154,0.069,-0.005,0.978,0.327,-0.022,-0.57
1153,0.021,0.063,0.651,0.181,-0.083,0.971,0.327,-0.022,-0.57
1154,0.018,-0.04,1.236,0.199,-0.119,0.934,0.315,-0.024,-0.559
1155,0.001,-0.06,1.339,0.074,0.008,0.87,0.289,-0.027,-0.568
1156,0.011,-0.019,1.477,0.002,-0.094,1.102,0.289,-0.027,-0.568
1157,-0.044,-0.046,1.94,0.108,-0.279,1.042,0.3,-0.021,-0.568
1158,-0.034,-0.038,2.576,0.224,-0.317,0.908,0.3,0.012,-0.567
1159,-0.021,-0.009,3.101,0.224,-0.291,0.943,0.279,0.012,-0.561
1160,-0.044,0.036,3.732,0.164,-0.291,0.943,0.288,0.025,-0.565
1161,-0.051,-0.028,4.402,-0.026,-0.196,1.046,0.288,0.025,-0.565
1162,-0.012,-0.053,4.987,-0.04,-0.236,0.951,0.265,0.045,-0.573
1163,-0.06,-0.013,5.716,0.047,-0.308,1.109,0.264,0.058,-0.567
1164,-0.031,-0.078,6.521,0.048,-0.219,1.156,0.274,0.099,-0.576
1165,-0.031,-0.078,6.521,-0.034,-0.144,0.831,0.286,0.112,-0.564
1166,-0.009,-0.215,7.323,-0.126,-0.207,0.953,0.27,0.163,-0.546
1167,-0.028,-0.097,8.078,-0.353,-0.425,0.979,0.27,0.163,-0.546
1168,-0.066,-0.081,8.766,-0.452,-0.657,0.879,0.258,0.202,-0.553
1169,-0.035,-0.116,9.236,-0.321,-0.65,1.013,0.318,0.285,-0.549
1170,-0.056,-0.058,9.437,-0.301,-0.44,1.304,0.318,0.285,-0.549
1171,-0.031,-0.083,9.283,-0.3,-0.299,1.25,0.375,0.343,-0.588
1172,-0.06,-0.096,9.015,-0.424,-0.232,1.184,0.423,0.381,-0.564
1173,-0.046,-0.009,8.852,-0.562,-0.159,0.964,0.474,0.394,-0.568
1174,-0.026,-0.065,8.643,-0.58,-0.09,1.128,0.474,0.394,-0.568
1175,-0.03,-0.089,8.16,-0.757,-0.058,1.129,0.511,0.4,-0.558
1176,-0.01,-0.143,7.414,-0.884,-0.017,0.811,0.561,0.388,-0.543
1177,-0.019,-0.113,6.35,-0.776,0.066,0.765,0.561,0.388,-0.543
1178,-0.009,-0.125,4.999,-0.602,0.116,0.731,0.612,0.382,-0.54
1179,-0.016,-0.049,3.625,-0.602,0.116,0.731,0.634,0.402,-0.555
1180,-0.018,0.066,2.594,-0.415,0.147,0.814,0.652,0.399,-0.574
1181,0.003,-0.023,1.902,-0.323,0.096,0.875,0.652,0.399,-0.574
1182,-0.011,-0.013,1.32,-0.212,0.142,1.016,0.663,0.387,-0.547
1183,-0.036,0.029,0.91,-0.038,0.269,1.148,0.66,0.382,-0.552
1184,-0.019,0.012,0.608,0.071,0.306,1.211,0.684,0.364,-0.555
1185,-0.019,0.012,0.608,0.185,0.233,0.927,0.679,0.372,-0.549
1186,-0.002,0.034,0.404,0.166,0.136,0.938,0.697,0.372,-0.559
1187,-0.03,0.014,0.42,-0.017,0.171,0.764,0.681,0.375,-0.552
1188,-0.022,0.083,0.497,-0.203,0.254,0.746,0.697,0.358,-0.54
1189,0.007,-0.014,0.397,-0.214,0.199,1.126,0.697,0.358,-0.54
1190,0.002,-0.05,0.32,-0.092,0.044,1.054,0.697,0.358,-0.541
1191,0.023,-0.033,0.525,-0.018,-0.079,0.947,0.697,0.358,-0.541
1192,0.011,-0.084,0.852,0.065,-0.035,0.755,0.696,0.364,-0.558
1193,0.03,-0.031,0.935,0.054,-0.007,0.881,0.691,0.355,-0.559
1194,0.004,0.082,0.887,-0.051,-0.03,1.217,0.691,0.346,-0.547
1195,0.007,-0.008,0.855,0.005,-0.026,1.142,0.691,0.346,-0.547
1196,0.011,-0.032,0.854,0.065,-0.047,0.969,0.705,0.346,-0.54
1197,0.016,0.018,0.923,-0.053,-0.039,1.024,0.706,0.348,-0.55
1198,-0.001,0.044,0.899,-0.046,-0.055,0.986,0.691,0.348,-0.561
1199,0.0,-0.053,0.856,0.012,-0.038,0.907,0.703,0.345,-0.561
1200,-0.009,-0.021,1.001,0.012,-0.038,0.907,0.729,0.334,-0.562
1201,-0.004,-0.044,1.185,-0.039,0.019,0.965,0.72,0.349,-0.559
1202,-0.011,-0.08,1.377,-0.022,0.029,0.869,0.738,0.345,-0.552
1203,-0.011,-0.08,1.377,0.029,0.044,0.702,0.738,0.345,-0.552
1204,0.057,0.004,1.582,0.0,0.07,0.638,0.727,0.336,-0.549
1205,-0.032,-0.038,1.724,0.01,0.104,0.702,0.727,0.336,-0.549
1206,0.002,0.022,1.872,0.045,0.016,1.026,0.744,0.301,-0.576
1207,0.021,0.037,1.971,-0.019,-0.115,1.182,0.741,0.316,-0.58
1208,0.014,-0.063,1.972,-0.043,-0.049,1.0,0.759,0.312,-0.568
1209,-0.01,-0.008,1.841,-0.045,0.032,0.923,0.763,0.294,-0.556
1210,-0.025,-0.039,1.719,-0.016,0.045,0.993,0.766,0.288,-0.564
1211,-0.045,-0.014,1.561,0.052,0.103,0.896,0.766,0.288,-0.564
1212,-0.026,0.035,1.26,0.083,0.111,0.947,0.774,0.288,-0.562
1213,-0.005,-0.014,0.893,0.053,0.054,1.074,0.78,0.28,-0.565
1214,0.001,-0.055,0.632,-0.045,0.065,0.982,0.786,0.288,-0.549
1215,-0.004,-0.037,0.665,0.054,-0.006,0.944,0.766,0.279,-0.564
1216,-0.014,-0.016,0.891,0.108,-0.042,0.86,0.777,0.276,-0.57
1217,-0.018,0.008,0.861,-0.012,0.022,0.872,0.777,0.276,-0.57
1218,-0.04,0.03,0.687,-0.106,0.046,1.034,0.784,0.259,-0.546
1219,-0.014,0.004,0.493,-0.078,-0.01,1.041,0.784,0.259,-0.546
1220,0.014,-0.034,0.5,-0.078,-0.01,1.041,0.787,0.255,-0.561
1221,0.002,-0.002,0.372,0.0,0.012,0.985,0.775,0.256,-0.553
1222,-0.002,0.002,0.06,0.009,0.082,0.936,0.766,0.264,-0.553
1223,-0.002,0.002,0.06,-0.018,0.026,0.972,0.786,0.253,-0.558
1224,0.004,0.0,0.0,-0.05,0.006,1.015,0.786,0.253,-0.558
1225,0.005,-0.002,-0.007,-0.027,0.017,1.003,0.787,0.261,-0.562
1226,0.004,-0.004,-0.019,-0.009,0.009,1.0,0.802,0.241,-0.553
1227,0.007,-0.011,-0.021,-0.012,0.016,1.0,0.792,0.247,-0.552
1228,0.009,-0.029,-0.013,-0.025,0.049,0.98,0.783,0.265,-0.549
1229,0.005,-0.015,-0.016,-0.057,0.087,1.011,0.768,0.265,-0.561
1230,0.0,-0.009,-0.056,-0.075,0.102,1.019,0.792,0.256,-0.55
1231,0.0,-0.013,-0.195,-0.02,0.023,1.012,0.792,0.256,-0.55
1232,-0.004,-0.022,-0.208,0.12,-0.089,1.001,0.778,0.262,-0.562
1233,0.009,0.015,-0.014,0.061,-0.026,0.994,0.778,0.262,-0.562
1234,0.002,0.009,-0.009,-0.027,0.046,1.004,0.777,0.255,-0.555
1235,0.001,0.002,-0.025,0.008,0.018,0.989,0.787,0.244,-0.567
1236,0.001,0.0,-0.027,-0.01,0.009,0.999,0.789,0.274,-0.582
1237,0.0,-0.003,-0.03,-0.009,0.005,0.999,0.789,0.274,-0.582
1238,0.0,-0.004,-0.045,-0.01,0.0,1.004,0.795,0.271,-0.561
1239,-0.002,0.0,-0.032,-0.005,-0.001,1.002,0.759,0.27,-0.547
1240,-0.002,0.0,-0.027,-0.005,-0.001,1.002,0.759,0.27,-0.547
1241,-0.001,0.0,-0.025,-0.005,0.01,0.999,0.787,0.271,-0.57
1242,-0.001,0.0,-0.016,-0.001,0.006,1.001,0.79,0.262,-0.549
1243,-0.008,-0.001,-0.029,-0.002,0.002,1.001,0.778,0.253,-0.546
1244,-0.008,-0.001,-0.029,-0.008,0.011,0.987,0.781,0.267,-0.558
1245,-0.014,0.002,-0.057,-0.008,0.018,1.005,0.781,0.267,-0.558
1246,-0.021,0.003,-0.174,-0.021,0.015,1.005,0.786,0.25,-0.55
1247,-0.026,0.012,-0.369,-0.106,0.025,0.95,0.786,0.25,-0.55
1248,0.004,0.0,-0.59,-0.132,0.016,1.049,0.795,0.256,-0.559
1249,-0.014,-0.048,-0.683,-0.061,0.041,0.985,0.796,0.252,-0.568
1250,0.015,-0.003,-0.609,0.0,0.067,0.983,0.78,0.265,-0.544
1251,0.007,0.035,-0.519,-0.014,0.064,1.123,0.78,0.265,-0.544
1252,-0.005,-0.011,-0.485,-0.019,0.03,0.938,0.778,0.279,-0.564
1253,0.018,0.004,-0.464,-0.048,0.018,0.93,0.766,0.276,-0.525
1254,-0.026,-0.028,-0.434,0.013,0.052,0.931,0.766,0.276,-0.525
1255,0.002,0.007,-0.336,0.091,0.04,0.876,0.783,0.288,-0.568
1256,0.014,0.004,-0.274,0.02,0.037,0.982,0.757,0.274,-0.555
1257,0.0,-0.01,-0.266,0.04,0.016,0.942,0.759,0.279,-0.55
1258,0.009,-0.003,-0.177,0.041,0.02,0.921,0.759,0.279,-0.55
1259,0.006,0.025,-0.122,0.041,0.02,0.921,0.769,0.288,-0.55
1260,0.016,0.034,-0.092,-0.021,0.054,0.993,0.774,0.274,-0.547
1261,0.018,0.023,-0.061,-0.04,0.058,0.924,0.781,0.292,-0.552
1262,0.012,0.014,-0.008,0.016,-0.014,0.931,0.765,0.274,-0.546
1263,0.007,0.011,-0.002,0.023,-0.049,1.013,0.78,0.274,-0.561
1264,0.007,0.011,-0.002,-0.005,-0.005,0.994,0.775,0.294,-0.559
1265,0.005,0.02,-0.003,-0.004,0.011,0.998,0.768,0.283,-0.571
1266,0.003,0.01,-0.017,-0.006,0.005,1.008,0.768,0.283,-0.571
1267,0.007,0.009,-0.007,-0.007,-0.014,1.005,0.777,0.283,-0.556
1268,0.005,0.0,0.0,-0.008,-0.01,1.001,0.777,0.283,-0.556
1269,0.004,-0.001,-0.003,-0.004,0.005,1.0,0.781,0.292,-0.538
1270,0.003,-0.001,-0.002,-0.008,0.01,1.002,0.777,0.288,-0.576
1271,0.0,-0.002,-0.004,-0.011,0.006,1.002,0.763,0.283,-0.549
1272,-0.002,-0.002,-0.006,-0.012,0.007,1.003,0.763,0.283,-0.549
1273,-0.002,-0.004,-0.007,-0.01,0.01,1.002,0.775,0.285,-0.55
1274,-0.002,0.002,-0.009,-0.008,0.009,1.001,0.79,0.279,-0.567
1275,-0.006,0.001,-0.011,-0.015,0.01,1.006,0.781,0.271,-0.565
1276,-0.015,-0.006,-0.021,-0.019,0.014,1.002,0.781,0.294,-0.555
1277,-0.027,-0.021,-0.041,-0.04,0.01,1.019,0.774,0.276,-0.555
1278,-0.04,-0.041,-0.089,-0.071,-0.002,1.024,0.771,0.274,-0.552
1279,-0.032,-0.084,-0.212,-0.071,-0.002,1.024,0.771,0.274,-0.552
1280,-0.023,-0.107,-0.388,-0.104,-0.021,0.982,0.769,0.295,-0.549
1281,-0.034,0.048,-0.35,-0.134,-0.018,0.942,0.76,0.286,-0.541
1282,0.013,0.063,-0.248,-0.024,-0.054,0.938,0.76,0.286,-0.541
1283,0.013,0.063,-0.248,0.06,0.022,1.04,0.763,0.285,-0.57
1284,0.007,0.011,-0.106,0.085,0.111,1.062,0.771,0.297,-0.574
1285,0.002,0.021,0.023,0.062,0.032,1.02,0.766,0.306,-0.567
1286,0.003,0.005,0.008,-0.034,0.006,1.024,0.768,0.285,-0.556
1287,0.002,-0.009,-0.004,-0.012,0.021,0.993,0.768,0.285,-0.556
1288,0.001,-0.004,-0.002,-0.001,0.018,0.993,0.781,0.279,-0.565
1289,0.001,-0.002,-0.008,-0.009,0.011,0.999,0.769,0.285,-0.562
1290,0.002,-0.002,-0.005,-0.003,0.008,0.998,0.777,0.292,-0.561
1291,0.002,-0.005,-0.006,-0.011,0.014,1.0,0.766,0.28,-0.561
1292,0.002,-0.003,-0.004,-0.007,0.013,0.999,0.775,0.277,-0.555
1293,0.002,-0.002,-0.007,-0.007,0.009,1.001,0.759,0.298,-0.555
1294,0.002,-0.002,-0.005,-0.004,0.009,1.0,0.759,0.298,-0.555
1295,0.002,-0.006,-0.006,-0.004,0.011,0.999,0.763,0.291,-0.549
1296,0.002,-0.004,-0.006,-0.006,0.013,0.998,0.763,0.291,-0.549
1297,0.002,-0.003,-0.006,-0.006,0.014,0.999,0.777,0.285,-0.568
1298,0.002,-0.002,-0.005,-0.003,0.014,1.001,0.768,0.288,-0.555
1299,0.002,-0.002,-0.006,-0.003,0.014,1.001,0.757,0.292,-0.559
1300,0.002,-0.002,-0.006,-0.005,0.015,1.0,0.768,0.289,-0.547
1301,0.002,-0.002,-0.007,-0.005,0.014,0.998,0.768,0.289,-0.547
1302,0.003,-0.005,-0.006,-0.005,0.013,0.999,0.765,0.28,-0.568
1303,0.003,-0.005,-0.006,-0.005,0.012,0.999,0.763,0.28,-0.565
1304,0.002,-0.002,-0.006,-0.004,0.012,1.0,0.759,0.279,-0.577
1305,0.003,0.0,-0.005,-0.005,0.012,0.999,0.778,0.288,-0.555
1306,0.002,0.0,-0.005,-0.005,0.012,0.999,0.768,0.273,-0.567
1307,0.003,-0.003,-0.005,-0.004,0.012,0.999,0.76,0.294,-0.564
1308,0.002,-0.002,-0.006,-0.005,0.012,0.999,0.76,0.294,-0.564
1309,0.0,-0.003,-0.005,-0.005,0.01,0.999,0.76,0.286,-0.553
1310,0.001,-0.002,-0.006,-0.003,0.011,1.009,0.76,0.286,-0.553
1311,0.001,-0.002,-0.007,-0.002,0.015,1.006,0.769,0.303,-0.559
1312,0.002,-0.002,-0.006,-0.004,0.013,0.996,0.781,0.283,-0.567
1313,0.002,-0.002,-0.006,-0.006,0.01,1.0,0.771,0.282,-0.556
1314,0.002,-0.002,-0.006,-0.006,0.013,1.001,0.765,0.27,-0.568
1315,0.002,-0.002,-0.007,-0.005,0.015,1.0,0.765,0.27,-0.568
1316,0.002,-0.002,-0.006,-0.005,0.014,0.998,0.778,0.298,-0.555
1317,0.003,-0.001,-0.006,-0.003,0.012,0.996,0.751,0.267,-0.553
1318,0.003,-0.002,-0.006,-0.003,0.012,0.996,0.792,0.279,-0.55
1319,0.002,-0.003,-0.006,-0.003,0.01,0.998,0.766,0.28,-0.556
1320,0.002,-0.003,-0.006,-0.004,0.012,1.0,0.771,0.298,-0.562
1321,0.002,0.0,-0.006,-0.007,0.012,0.999,0.771,0.298,-0.562
1322,0.002,-0.001,-0.005,-0.006,0.01,0.999,0.766,0.288,-0.558
1323,0.002,0.0,-0.006,-0.006,0.011,0.998,0.768,0.289,-0.546
1324,0.002,-0.001,-0.005,-0.006,0.014,0.999,0.775,0.282,-0.559
1325,0.003,-0.001,-0.005,-0.005,0.015,0.998,0.774,0.277,-0.562
1326,0.003,-0.001,-0.006,-0.004,0.013,0.999,0.76,0.288,-0.567
1327,0.003,-0.002,-0.005,-0.006,0.013,1.0,0.777,0.288,-0.571
1328,0.002,0.0,-0.005,-0.007,0.014,1.0,0.777,0.288,-0.571
1329,0.002,-0.001,-0.006,-0.007,0.014,1.0,0.772,0.283,-0.57
1330,0.0,-0.001,-0.006,-0.005,0.012,1.001,0.768,0.286,-0.543
1331,0.002,-0.002,-0.006,-0.004,0.012,1.0,0.768,0.286,-0.543
1332,0.002,-0.002,-0.006,-0.006,0.011,1.0,0.784,0.304,-0.571
1333,0.002,-0.001,-0.006,-0.007,0.01,0.999,0.757,0.289,-0.544
1334,0.002,-0.002,-0.006,-0.006,0.012,0.997,0.771,0.306,-0.565
1335,0.002,-0.002,-0.005,-0.005,0.013,0.999,0.771,0.306,-0.565
1336,0.002,-0.002,-0.004,-0.003,0.015,1.0,0.76,0.277,-0.544
1337,0.002,-0.006,-0.005,-0.005,0.014,0.999,0.762,0.292,-0.564
1338,0.004,-0.004,-0.005,-0.005,0.014,0.999,0.772,0.286,-0.552
1339,0.003,-0.002,-0.005,-0.006,0.011,0.999,0.766,0.286,-0.561
1340,0.002,-0.001,-0.005,-0.005,0.01,0.999,0.763,0.276,-0.571
1341,0.002,-0.003,-0.005,-0.003,0.011,0.999,0.774,0.273,-0.558
1342,0.002,-0.003,-0.005,-0.005,0.014,0.996,0.774,0.273,-0.558
1343,0.002,-0.002,-0.006,-0.006,0.014,0.998,0.768,0.297,-0.558
1344,0.003,-0.003,-0.005,-0.005,0.012,1.001,0.763,0.279,-0.555
1345,0.001,-0.001,-0.005,-0.004,0.011,1.001,0.763,0.279,-0.555
1346,0.002,-0.002,-0.004,-0.006,0.01,1.0,0.777,0.291,-0.568
1347,0.004,-0.003,-0.006,-0.007,0.011,0.998,0.768,0.291,-0.556
1348,0.003,-0.002,-0.005,-0.005,0.013,0.998,0.778,0.282,-0.558
1349,0.002,-0.001,-0.006,-0.004,0.013,0.999,0.768,0.294,-0.561
1350,0.002,-0.003,-0.005,-0.006,0.013,0.999,0.768,0.294,-0.561
1351,0.002,-0.008,-0.004,-0.006,0.013,1.0,0.792,0.298,-0.555
1352,0.004,-0.004,-0.004,-0.005,0.013,1.001,0.772,0.298,-0.544
1353,0.004,0.0,-0.005,-0.005,0.013,0.999,0.769,0.288,-0.54
1354,0.003,-0.002,-0.005,-0.004,0.013,0.998,0.772,0.289,-0.565
1355,0.002,-0.002,-0.005,-0.004,0.013,0.998,0.759,0.277,-0.573
1356,0.003,-0.002,-0.006,-0.006,0.012,0.999,0.759,0.277,-0.573
1357,0.002,-0.002,-0.005,-0.006,0.012,0.999,0.76,0.297,-0.561
1358,0.0,-0.007,-0.004,-0.004,0.012,0.999,0.762,0.277,-0.54
1359,0.001,-0.004,-0.006,-0.005,0.013,0.998,0.762,0.277,-0.54
1360,0.003,-0.002,-0.007,-0.007,0.012,0.998,0.769,0.294,-0.543
1361,0.003,-0.002,-0.007,-0.006,0.014,0.998,0.766,0.289,-0.552
1362,0.002,-0.002,-0.006,-0.005,0.013,0.998,0.76,0.28,-0.552
1363,0.002,-0.002,-0.005,-0.007,0.012,0.999,0.762,0.294,-0.55
1364,0.002,-0.002,-0.005,-0.008,0.014,0.998,0.762,0.294,-0.55
1365,0.002,-0.004,-0.005,-0.005,0.012,0.999,0.756,0.294,-0.546
1366,0.003,-0.002,-0.007,-0.005,0.013,0.999,0.781,0.295,-0.546
1367,-0.001,-0.003,-0.006,-0.009,0.019,1.003,0.769,0.298,-0.549
1368,0.002,-0.001,-0.007,-0.006,0.019,1.005,0.778,0.289,-0.561
1369,0.002,0.0,-0.004,-0.002,0.014,1.001,0.778,0.282,-0.558
1370,0.002,-0.002,-0.004,-0.002,0.011,0.998,0.778,0.282,-0.558
1371,0.002,-0.002,-0.004,-0.004,0.011,0.998,0.75,0.297,-0.561
1372,0.002,0.0,-0.006,-0.005,0.013,1.0,0.757,0.279,-0.546
1373,0.002,0.0,-0.006,-0.004,0.014,0.999,0.757,0.279,-0.546
1374,0.002,-0.003,-0.004,-0.003,0.012,0.997,0.778,0.277,-0.571
1375,0.002,-0.001,-0.006,-0.005,0.01,0.998,0.751,0.291,-0.568
1376,0.003,-0.001,-0.006,-0.005,0.01,0.998,0.757,0.295,-0.576
1377,0.003,-0.002,-0.006,-0.005,0.009,0.999,0.772,0.301,-0.547
1378,0.003,-0.003,-0.006,-0.008,0.01,0.999,0.772,0.301,-0.547
1379,0.001,-0.006,-0.005,-0.009,0.013,0.998,0.775,0.3,-0.559
1380,0.002,-0.003,-0.005,-0.006,0.014,0.998,0.775,0.286,-0.553
1381,0.002,-0.003,-0.005,-0.006,0.011,0.999,0.771,0.286,-0.555
1382,0.002,-0.002,-0.006,-0.005,0.011,0.997,0.775,0.283,-0.567
1383,0.002,-0.002,-0.005,-0.004,0.011,0.998,0.769,0.282,-0.568
1384,0.002,-0.001,-0.006,-0.005,0.011,0.999,0.769,0.282,-0.568
1385,0.002,-0.002,-0.004,-0.006,0.012,1.0,0.775,0.285,-0.564
1386,0.002,0.0,-0.006,-0.005,0.012,0.999,0.763,0.291,-0.543
1387,0.002,0.0,-0.005,-0.005,0.012,0.997,0.763,0.291,-0.552
1388,0.003,-0.001,-0.005,-0.007,0.012,0.997,0.762,0.285,-0.546
1389,0.003,-0.002,-0.006,-0.005,0.013,0.997,0.784,0.313,-0.553
1390,0.002,0.0,-0.004,-0.001,0.014,1.0,0.768,0.291,-0.564
1391,0.002,-0.002,-0.006,-0.002,0.014,1.002,0.768,0.291,-0.564
1392,0.002,-0.002,-0.005,-0.003,0.014,0.999,0.766,0.274,-0.565
1393,0.003,0.004,-0.007,-0.005,0.013,0.998,0.759,0.273,-0.565
1394,0.003,0.0,-0.005,-0.006,0.011,0.999,0.759,0.273,-0.565
1395,0.002,-0.002,-0.005,-0.006,0.01,1.0,0.769,0.285,-0.552
1396,0.002,-0.001,-0.005,-0.006,0.01,1.0,0.772,0.282,-0.556
1397,0.004,-0.001,-0.006,-0.006,0.01,1.001,0.766,0.285,-0.552
1398,0.002,-0.003,-0.005,-0.005,0.01,1.002,0.775,0.288,-0.564
1399,0.002,-0.002,-0.006,-0.006,0.01,1.001,0.775,0.288,-0.564
1400,0.002,-0.002,-0.005,-0.007,0.01,0.998,0.766,0.295,-0.546
1401,0.002,-0.002,-0.005,-0.007,0.012,0.997,0.766,0.295,-0.562
1402,0.002,-0.001,-0.004,-0.006,0.014,0.999,0.781,0.291,-0.552
1403,0.002,-0.002,-0.004,-0.005,0.014,1.001,0.78,0.286,-0.558
1404,0.002,-0.003,-0.004,-0.006,0.015,1.0,0.757,0.289,-0.562
1405,0.002,-0.003,-0.005,-0.006,0.012,0.999,0.76,0.295,-0.553
1406,0.002,-0.001,-0.006,-0.004,0.011,0.999,0.76,0.295,-0.553
1407,0.003,-0.003,-0.005,-0.005,0.012,0.997,0.747,0.295,-0.546
1408,0.002,-0.002,-0.005,-0.006,0.012,0.997,0.747,0.295,-0.546
1409,0.002,0.0,-0.006,-0.006,0.011,0.998,0.774,0.277,-0.555
1410,0.002,-0.001,-0.006,-0.006,0.012,0.999,0.774,0.3,-0.565
1411,0.001,-0.001,-0.006,-0.006,0.013,1.001,0.769,0.273,-0.558
1412,0.002,-0.003,-0.006,-0.005,0.011,1.001,0.769,0.273,-0.558
1413,0.002,-0.002,-0.005,-0.006,0.01,0.999,0.766,0.292,-0.561
1414,0.001,-0.003,-0.004,-0.005,0.011,0.998,0.759,0.301,-0.555
1415,0.002,-0.002,-0.004,-0.006,0.012,0.999,0.772,0.288,-0.543
1416,0.002,-0.002,-0.004,-0.006,0.012,0.999,0.784,0.274,-0.543
1417,0.003,-0.002,-0.005,-0.007,0.013,0.999,0.747,0.285,-0.565
1418,0.003,0.0,-0.006,-0.006,0.012,0.997,0.766,0.273,-0.559
1419,0.003,0.0,-0.006,-0.005,0.012,0.997,0.775,0.279,-0.55
1420,0.003,0.0,-0.006,-0.006,0.011,0.998,0.775,0.279,-0.55
1421,0.002,-0.001,-0.006,-0.004,0.013,0.999,0.753,0.292,-0.547
1422,0.003,-0.002,-0.006,-0.003,0.014,0.998,0.753,0.292,-0.547
1423,0.003,-0.002,-0.006,-0.004,0.015,0.997,0.79,0.283,-0.564
1424,0.004,-0.002,-0.005,-0.007,0.013,0.998,0.757,0.273,-0.562
1425,0.004,-0.001,-0.006,-0.007,0.013,0.998,0.778,0.28,-0.547
1426,0.004,-0.001,-0.006,-0.006,0.014,0.997,0.778,0.28,-0.547
1427,0.003,-0.002,-0.007,-0.007,0.013,1.0,0.766,0.289,-0.555
1428,0.004,-0.001,-0.006,-0.008,0.015,1.002,0.769,0.279,-0.564
1429,0.003,-0.002,-0.006,-0.005,0.015,1.001,0.769,0.295,-0.55
1430,0.002,-0.003,-0.005,-0.005,0.014,0.999,0.762,0.297,-0.546
1431,0.002,-0.002,-0.005,-0.009,0.013,0.998,0.765,0.294,-0.565
1432,0.003,-0.002,-0.006,-0.007,0.011,1.0,0.762,0.289,-0.573
1433,0.003,-0.001,-0.007,-0.004,0.011,0.999,0.762,0.289,-0.573
1434,0.002,-0.002,-0.006,-0.004,0.012,0.997,0.763,0.294,-0.562
1435,0.002,-0.004,-0.005,-0.003,0.014,1.0,0.763,0.276,-0.553
1436,0.002,-0.002,-0.006,-0.003,0.014,1.0,0.763,0.276,-0.553
1437,0.003,0.0,-0.006,-0.004,0.014,1.0,0.747,0.289,-0.574
1438,0.003,-0.001,-0.005,-0.007,0.013,0.999,0.777,0.279,-0.558
1439,0.003,-0.001,-0.005,-0.006,0.015,1.0,0.771,0.283,-0.561
1440,0.003,-0.001,-0.006,-0.005,0.015,0.998,0.771,0.283,-0.561
1441,0.002,-0.002,-0.006,-0.006,0.011,0.997,0.769,0.276,-0.55
1442,0.002,0.0,-0.005,-0.004,0.011,0.999,0.765,0.291,-0.555
1443,0.003,-0.003,-0.004,-0.003,0.01,0.999,0.786,0.285,-0.561
1444,0.002,-0.002,-0.004,-0.005,0.01,0.996,0.762,0.288,-0.55
1445,0.002,0.0,-0.005,-0.006,0.012,0.998,0.76,0.277,-0.553
1446,0.004,-0.004,-0.005,-0.007,0.012,0.999,0.762,0.283,-0.546
1447,0.003,-0.002,-0.004,-0.005,0.014,0.999,0.762,0.283,-0.546
1448,0.002,-0.001,-0.005,-0.005,0.015,1.0,0.763,0.297,-0.559
1449,0.005,0.007,-0.007,-0.007,0.014,1.001,0.751,0.277,-0.543
1450,0.005,0.0,-0.005,-0.006,0.012,1.001,0.751,0.277,-0.543
1451,0.002,-0.001,-0.005,-0.004,0.011,1.0,0.76,0.28,-0.553
1452,0.002,-0.002,-0.006,-0.006,0.012,1.0,0.781,0.303,-0.559
1453,0.002,-0.002,-0.006,-0.006,0.012,0.999,0.781,0.303,-0.564
1454,0.002,-0.002,-0.006,-0.004,0.012,0.999,0.771,0.276,-0.558
1455,0.003,-0.004,-0.005,-0.004,0.013,1.001,0.771,0.276,-0.558
1456,0.005,0.004,-0.006,-0.005,0.013,1.001,0.769,0.285,-0.553
1457,0.003,0.002,-0.006,-0.008,0.013,0.999,0.76,0.277,-0.538
1458,0.003,-0.001,-0.006,-0.008,0.013,0.996,0.783,0.3,-0.543
1459,0.004,-0.001,-0.006,-0.007,0.012,0.996,0.759,0.289,-0.556
1460,0.004,-0.001,-0.006,-0.008,0.013,0.998,0.772,0.3,-0.562
1461,0.002,-0.002,-0.004,-0.007,0.013,0.999,0.771,0.304,-0.541
1462,0.002,-0.002,-0.005,-0.005,0.011,0.999,0.771,0.304,-0.541
1463,0.002,-0.001,-0.006,-0.004,0.01,1.0,0.765,0.301,-0.54
1464,0.002,-0.001,-0.005,-0.004,0.011,1.0,0.774,0.289,-0.55
1465,0.002,-0.001,-0.005,-0.006,0.013,0.999,0.789,0.303,-0.55
1466,0.003,-0.001,-0.007,-0.006,0.012,1.0,0.781,0.298,-0.562
1467,0.003,-0.002,-0.006,-0.008,0.012,0.999,0.771,0.285,-0.552
1468,0.002,-0.002,-0.006,-0.007,0.011,1.0,0.771,0.285,-0.552
1469,0.002,-0.001,-0.006,-0.005,0.011,1.002,0.775,0.289,-0.552
1470,0.003,-0.002,-0.005,-0.007,0.014,1.001,0.766,0.294,-0.549
1471,0.003,-0.001,-0.005,-0.006,0.013,1.0,0.766,0.294,-0.549
1472,0.002,-0.002,-0.005,-0.003,0.012,0.998,0.784,0.291,-0.565
1473,0.002,-0.002,-0.005,-0.004,0.014,1.0,0.768,0.304,-0.555
1474,0.002,-0.002,-0.005,-0.004,0.014,1.0,0.792,0.265,-0.573
1475,0.002,-0.002,-0.005,-0.005,0.013,1.0,0.765,0.301,-0.547
1476,0.002,-0.002,-0.006,-0.005,0.011,0.998,0.765,0.301,-0.547
1477,0.002,0.0,-0.006,-0.006,0.01,0.998,0.768,0.289,-0.544
1478,0.002,-0.002,-0.005,-0.008,0.012,0.999,0.768,0.294,-0.556
1479,0.002,-0.002,-0.004,-0.007,0.013,0.999,0.774,0.312,-0.549
1480,0.002,-0.002,-0.004,-0.006,0.013,0.999,0.756,0.298,-0.556
1481,0.003,-0.002,-0.005,-0.007,0.011,0.999,0.769,0.277,-0.561
1482,0.002,-0.002,-0.005,-0.008,0.013,0.998,0.769,0.277,-0.561
1483,0.002,-0.002,-0.005,-0.006,0.014,0.998,0.766,0.298,-0.564
1484,0.004,0.0,-0.006,-0.003,0.014,1.0,0.766,0.286,-0.547
1485,0.004,-0.002,-0.007,-0.006,0.014,0.999,0.766,0.286,-0.547
1486,0.002,-0.002,-0.005,-0.006,0.013,0.998,0.765,0.291,-0.576
1487,0.002,-0.002,-0.006,-0.004,0.014,0.998,0.774,0.28,-0.565
1488,0.003,-0.001,-0.006,-0.002,0.013,0.999,0.775,0.286,-0.543
1489,0.003,-0.002,-0.006,-0.003,0.012,1.0,0.766,0.289,-0.553
1490,0.002,-0.002,-0.005,-0.004,0.014,0.999,0.766,0.289,-0.553
1491,0.0,-0.011,-0.004,-0.005,0.014,0.999,0.762,0.294,-0.541
1492,0.002,-0.004,-0.004,-0.004,0.013,0.999,0.759,0.285,-0.544
1493,0.003,-0.003,-0.005,-0.005,0.013,0.998,0.757,0.297,-0.552
1494,0.002,-0.001,-0.006,-0.006,0.012,0.999,0.781,0.294,-0.564
1495,0.002,-0.001,-0.005,-0.006,0.012,0.999,0.775,0.309,-0.555
1496,0.003,-0.001,-0.004,-0.006,0.013,1.0,0.763,0.292,-0.549
1497,0.003,-0.003,-0.005,-0.007,0.015,1.0,0.763,0.292,-0.549
1498,0.004,-0.002,-0.006,-0.006,0.014,1.0,0.763,0.277,-0.54
1499,0.004,-0.002,-0.006,-0.006,0.012,1.0,0.763,0.277,-0.54
1500,0.002,-0.003,-0.006,-0.007,0.013,0.998,0.763,0.279,-0.555
1501,0.002,-0.002,-0.007,-0.007,0.012,0.997,0.759,0.282,-0.577
1502,0.003,-0.002,-0.006,-0.005,0.013,0.996,0.775,0.298,-0.559
1503,0.002,-0.002,-0.005,-0.003,0.016,0.997,0.757,0.289,-0.549
1504,0.002,-0.002,-0.005,-0.005,0.013,1.0,0.757,0.289,-0.549
1505,0.004,-0.004,-0.005,-0.007,0.011,0.999,0.778,0.273,-0.556
1506,0.003,-0.003,-0.005,-0.007,0.011,0.998,0.762,0.277,-0.556
1507,0.002,-0.002,-0.005,-0.007,0.011,0.999,0.76,0.279,-0.583
1508,0.003,-0.002,-0.006,-0.006,0.013,0.998,0.766,0.276,-0.558
1509,0.003,-0.002,-0.005,-0.005,0.014,0.999,0.771,0.322,-0.57
1510,0.002,-0.001,-0.005,-0.004,0.013,1.001,0.771,0.322,-0.57
1511,0.002,0.0,-0.005,-0.002,0.011,0.999,0.783,0.297,-0.552
1512,0.002,-0.002,-0.004,-0.003,0.011,0.999,0.76,0.279,-0.546
1513,0.002,-0.001,-0.006,-0.002,0.015,1.001,0.76,0.279,-0.546
1514,0.002,-0.001,-0.005,-0.003,0.013,1.0,0.778,0.292,-0.561
1515,0.003,0.0,-0.006,-0.003,0.013,1.0,0.748,0.28,-0.549
1516,0.002,-0.002,-0.005,-0.005,0.011,1.0,0.777,0.294,-0.564
1517,0.003,-0.001,-0.005,-0.006,0.014,0.999,0.777,0.294,-0.564
1518,0.003,-0.002,-0.005,-0.006,0.013,0.999,0.763,0.297,-0.546
1519,0.003,-0.002,-0.005,-0.004,0.011,1.0,0.769,0.28,-0.558
1520,0.0,-0.004,-0.006,-0.004,0.011,0.998,0.775,0.286,-0.559
1521,0.002,-0.002,-0.005,-0.004,0.013,0.997,0.769,0.28,-0.555
1522,0.002,-0.002,-0.006,-0.005,0.015,1.001,0.775,0.291,-0.565
1523,0.002,-0.002,-0.005,-0.005,0.015,1.001,0.772,0.28,-0.544
1524,0.002,-0.002,-0.005,-0.005,0.013,0.999,0.772,0.28,-0.544
1525,0.002,-0.002,-0.004,-0.006,0.013,1.0,0.75,0.291,-0.55
1526,0.0,-0.009,-0.004,-0.004,0.014,1.0,0.757,0.286,-0.553
1527,0.002,-0.004,-0.004,-0.005,0.012,0.999,0.757,0.286,-0.553
1528,0.003,-0.001,-0.006,-0.005,0.011,0.998,0.769,0.298,-0.55
1529,0.003,-0.002,-0.006,-0.007,0.011,0.999,0.783,0.279,-0.571
1530,0.002,-0.001,-0.006,-0.006,0.012,1.0,0.772,0.288,-0.537
1531,0.002,-0.001,-0.006,-0.007,0.013,0.999,0.777,0.294,-0.558
1532,0.003,-0.002,-0.006,-0.008,0.012,0.997,0.777,0.294,-0.558
1533,0.002,-0.004,-0.005,-0.006,0.012,1.0,0.757,0.288,-0.552
1534,0.003,-0.001,-0.005,-0.006,0.012,1.0,0.765,0.289,-0.552
1535,0.002,-0.001,-0.005,-0.006,0.013,1.0,0.768,0.276,-0.561
1536,0.002,-0.001,-0.005,-0.007,0.012,0.999,0.766,0.295,-0.541
1537,0.002,-0.003,-0.004,-0.008,0.012,0.999,0.762,0.283,-0.549
1538,0.002,-0.003,-0.004,-0.007,0.011,0.998,0.762,0.283,-0.549
1539,0.003,-0.002,-0.005,-0.006,0.013,0.998,0.787,0.297,-0.559
1540,0.004,-0.002,-0.005,-0.006,0.014,0.998,0.768,0.28,-0.553
1541,0.002,0.0,-0.005,-0.004,0.014,0.998,0.769,0.309,-0.549
1542,0.002,-0.001,-0.004,-0.004,0.013,0.999,0.763,0.298,-0.535
1543,0.002,-0.003,-0.005,-0.004,0.012,0.999,0.772,0.285,-0.54
1544,0.003,-0.002,-0.006,-0.003,0.014,1.0,0.778,0.279,-0.55
1545,0.003,0.0,-0.006,-0.003,0.015,1.001,0.762,0.286,-0.55
1546,0.003,0.0,-0.004,-0.004,0.012,1.0,0.762,0.286,-0.55
1547,0.004,0.0,-0.006,-0.006,0.015,1.0,0.744,0.289,-0.561
1548,0.003,-0.004,-0.004,-0.006,0.014,1.0,0.775,0.276,-0.547
1549,0.002,-0.002,-0.004,-0.006,0.012,1.001,0.766,0.289,-0.553
1550,0.002,-0.004,-0.005,-0.005,0.01,1.0,0.778,0.282,-0.562
1551,0.003,-0.004,-0.005,-0.005,0.01,0.999,0.771,0.28,-0.565
1552,0.003,-0.002,-0.006,-0.004,0.01,0.999,0.771,0.28,-0.565
1553,0.003,-0.002,-0.005,-0.004,0.01,0.999,0.778,0.295,-0.553
1554,0.004,0.003,-0.006,-0.003,0.014,1.0,0.759,0.283,-0.535
1555,0.003,0.001,-0.006,-0.006,0.014,0.999,0.762,0.292,-0.558
1556,0.001,-0.002,-0.004,-0.005,0.012,0.998,0.76,0.283,-0.573
1557,0.001,-0.004,-0.005,-0.004,0.014,0.999,0.777,0.295,-0.576
1558,0.001,-0.004,-0.005,-0.005,0.014,1.001,0.768,0.298,-0.547
1559,0.002,-0.002,-0.005,-0.005,0.011,1.0,0.768,0.298,-0.547
1560,0.001,-0.003,-0.005,-0.005,0.011,0.999,0.762,0.289,-0.549
1561,0.003,-0.003,-0.005,-0.006,0.012,1.0,0.762,0.289,-0.549
1562,0.002,-0.002,-0.005,-0.005,0.01,0.999,0.762,0.279,-0.547
1563,0.002,-0.001,-0.006,-0.006,0.011,0.999,0.763,0.273,-0.568
1564,0.002,-0.001,-0.006,-0.006,0.013,0.999,0.772,0.289,-0.553
1565,0.002,-0.002,-0.007,-0.007,0.011,0.999,0.748,0.28,-0.555
1566,0.003,-0.002,-0.006,-0.007,0.013,1.0,0.769,0.295,-0.567
1567,0.002,0.0,-0.006,-0.007,0.015,1.0,0.769,0.295,-0.567
1568,0.002,-0.002,-0.006,-0.007,0.013,0.998,0.738,0.294,-0.546
1569,0.002,-0.002,-0.005,-0.006,0.012,0.998,0.765,0.292,-0.532
1570,0.003,-0.001,-0.006,-0.008,0.012,0.998,0.771,0.297,-0.553
1571,0.002,-0.002,-0.004,-0.006,0.013,0.999,0.774,0.292,-0.534
1572,0.002,-0.002,-0.005,-0.006,0.013,0.999,0.771,0.291,-0.552
1573,0.002,-0.003,-0.005,-0.004,0.015,1.001,0.771,0.291,-0.552
1574,0.002,-0.001,-0.005,-0.005,0.015,1.0,0.766,0.285,-0.562
1575,0.003,-0.01,-0.004,-0.004,0.012,1.0,0.759,0.283,-0.549
1576,0.003,-0.004,-0.005,-0.005,0.013,1.0,0.759,0.283,-0.549
1577,0.003,-0.004,-0.005,-0.004,0.013,1.001,0.768,0.271,-0.571
1578,0.002,-0.002,-0.006,-0.003,0.013,1.002,0.769,0.303,-0.537
1579,0.002,-0.002,-0.006,-0.004,0.013,1.001,0.769,0.288,-0.57
1580,0.002,-0.003,-0.005,-0.004,0.011,1.0,0.769,0.288,-0.57
1581,0.002,-0.002,-0.005,-0.004,0.012,1.001,0.757,0.289,-0.54
1582,0.003,-0.003,-0.006,-0.006,0.013,1.002,0.765,0.282,-0.567
1583,0.003,-0.002,-0.006,-0.006,0.012,1.001,0.756,0.289,-0.574
1584,0.002,-0.004,-0.006,-0.005,0.011,1.0,0.762,0.285,-0.547
1585,0.002,-0.003,-0.005,-0.006,0.012,0.999,0.753,0.3,-0.558
1586,0.002,-0.002,-0.006,-0.005,0.011,0.999,0.774,0.294,-0.549
1587,0.003,-0.002,-0.005,-0.004,0.01,0.999,0.774,0.294,-0.549
1588,0.002,-0.001,-0.005,-0.004,0.011,0.998,0.763,0.298,-0.573
1589,0.002,-0.004,-0.005,-0.004,0.012,0.999,0.748,0.288,-0.543
1590,0.002,-0.003,-0.006,-0.005,0.01,0.999,0.748,0.288,-0.543
1591,0.003,0.0,-0.006,-0.006,0.01,0.999,0.777,0.292,-0.543
1592,0.003,0.0,-0.005,-0.006,0.01,0.999,0.78,0.28,-0.556
1593,0.003,-0.001,-0.005,-0.004,0.013,0.998,0.759,0.282,-0.568
1594,0.002,0.0,-0.006,-0.004,0.014,0.999,0.759,0.282,-0.568
1595,0.003,0.0,-0.006,-0.005,0.014,1.0,0.775,0.274,-0.555
1596,0.003,0.0,-0.006,-0.004,0.012,0.999,0.75,0.291,-0.558
1597,0.003,-0.002,-0.006,-0.006,0.013,0.997,0.745,0.288,-0.55
1598,0.003,-0.001,-0.005,-0.008,0.014,1.0,0.756,0.304,-0.552
1599,0.003,0.0,-0.005,-0.007,0.012,1.0,0.778,0.276,-0.552
1600,0.002,-0.002,-0.005,-0.005,0.012,0.998,0.769,0.297,-0.556
1601,0.002,-0.001,-0.006,-0.003,0.011,0.997,0.763,0.274,-0.553
1602,0.003,0.0,-0.006,-0.004,0.011,0.998,0.763,0.274,-0.553
1603,0.004,0.0,-0.005,-0.004,0.014,0.999,0.763,0.289,-0.52
1604,0.002,-0.002,-0.006,-0.004,0.011,0.998,0.763,0.289,-0.52
1605,0.002,-0.003,-0.005,-0.005,0.01,0.999,0.772,0.294,-0.535
1606,0.003,-0.002,-0.007,-0.006,0.012,0.998,0.775,0.282,-0.553
1607,0.002,-0.002,-0.004,-0.003,0.013,0.997,0.765,0.3,-0.552
1608,0.002,-0.002,-0.004,-0.004,0.012,1.0,0.778,0.288,-0.559
1609,0.003,0.0,-0.006,-0.006,0.01,1.0,0.778,0.288,-0.559
1610,0.004,0.0,-0.006,-0.005,0.012,0.999,0.753,0.291,-0.544
1611,0.003,-0.004,-0.005,-0.004,0.012,1.0,0.753,0.283,-0.54
1612,0.002,-0.004,-0.005,-0.004,0.012,1.0,0.783,0.289,-0.561
1613,0.002,-0.003,-0.004,-0.005,0.013,1.0,0.754,0.274,-0.57
1614,0.002,-0.002,-0.006,-0.005,0.014,1.0,0.762,0.28,-0.553
1615,0.002,0.0,-0.005,-0.004,0.012,1.0,0.762,0.28,-0.553
1616,0.003,0.0,-0.006,-0.004,0.011,1.0,0.751,0.279,-0.549
1617,0.003,0.0,-0.006,-0.004,0.013,1.002,0.769,0.292,-0.531
1618,0.002,0.0,-0.006,-0.004,0.014,1.001,0.768,0.306,-0.544
1619,0.002,0.0,-0.005,-0.005,0.013,0.998,0.75,0.276,-0.559
1620,0.002,-0.001,-0.005,-0.006,0.012,1.0,0.759,0.282,-0.562
1621,0.002,-0.003,-0.005,-0.005,0.013,1.0,0.762,0.301,-0.565
1622,0.002,-0.003,-0.004,-0.003,0.012,0.998,0.762,0.301,-0.565
1623,0.004,-0.004,-0.005,-0.002,0.012,0.999,0.772,0.279,-0.564
1624,0.001,-0.005,-0.004,-0.005,0.015,0.999,0.748,0.283,-0.532
1625,0.002,-0.002,-0.004,-0.004,0.015,0.999,0.748,0.283,-0.532
1626,0.002,-0.001,-0.004,-0.006,0.013,1.0,0.771,0.291,-0.552
1627,0.003,-0.002,-0.006,-0.006,0.013,0.999,0.771,0.286,-0.555
1628,0.002,0.0,-0.006,-0.005,0.013,0.998,0.768,0.283,-0.549
1629,0.003,-0.002,-0.005,-0.006,0.011,0.999,0.768,0.283,-0.549
1630,0.002,-0.001,-0.006,-0.005,0.012,0.999,0.754,0.301,-0.558
1631,0.002,0.0,-0.005,-0.005,0.012,0.998,0.787,0.297,-0.549
1632,0.004,0.0,-0.007,-0.005,0.012,0.998,0.766,0.298,-0.561
1633,0.003,-0.001,-0.006,-0.005,0.012,0.998,0.766,0.295,-0.555
1634,0.003,-0.001,-0.006,-0.005,0.012,0.997,0.762,0.291,-0.57
1635,0.004,-0.002,-0.006,-0.006,0.012,0.998,0.756,0.268,-0.561
1636,0.004,-0.002,-0.006,-0.005,0.013,0.998,0.78,0.279,-0.553
1637,0.003,-0.001,-0.006,-0.006,0.012,0.999,0.78,0.279,-0.553
1638,0.002,-0.004,-0.005,-0.005,0.013,0.998,0.753,0.297,-0.558
1639,0.001,-0.002,-0.004,-0.005,0.012,0.997,0.753,0.297,-0.558
1640,0.002,-0.002,-0.005,-0.004,0.011,1.0,0.766,0.277,-0.555
1641,0.004,0.0,-0.005,-0.002,0.01,1.0,0.768,0.289,-0.544
1642,0.003,0.0,-0.006,-0.003,0.012,1.0,0.765,0.288,-0.546
1643,0.002,0.0,-0.006,-0.006,0.015,1.0,0.754,0.285,-0.541
1644,0.002,-0.001,-0.006,-0.006,0.013,0.999,0.754,0.285,-0.541
1645,0.003,-0.004,-0.004,-0.005,0.013,0.998,0.769,0.288,-0.562
1646,0.002,-0.003,-0.005,-0.005,0.013,0.998,0.76,0.292,-0.553
1647,0.003,-0.002,-0.006,-0.006,0.012,0.998,0.768,0.292,-0.555
1648,0.003,-0.001,-0.005,-0.007,0.013,0.998,0.751,0.28,-0.544
1649,0.002,-0.002,-0.005,-0.006,0.014,1.0,0.789,0.282,-0.57
1650,0.002,-0.003,-0.005,-0.004,0.014,1.0,0.78,0.301,-0.568
1651,0.003,-0.002,-0.006,-0.007,0.012,0.999,0.78,0.301,-0.568
1652,0.004,0.002,-0.007,-0.007,0.012,0.999,0.753,0.285,-0.546
1653,0.003,0.0,-0.005,-0.007,0.013,0.999,0.753,0.285,-0.546
1654,0.002,-0.001,-0.006,-0.005,0.013,0.999,0.769,0.273,-0.541
1655,0.002,-0.002,-0.005,-0.005,0.013,0.999,0.778,0.282,-0.538
1656,0.002,-0.002,-0.005,-0.007,0.013,0.999,0.787,0.282,-0.567
1657,0.002,-0.002,-0.006,-0.007,0.014,0.998,0.787,0.282,-0.567
1658,0.003,-0.001,-0.004,-0.005,0.015,1.0,0.766,0.274,-0.558
1659,0.002,0.0,-0.006,-0.005,0.013,1.001,0.766,0.277,-0.564
1660,0.003,-0.001,-0.006,-0.005,0.014,1.001,0.777,0.286,-0.558
1661,0.003,-0.003,-0.006,-0.002,0.016,1.0,0.777,0.289,-0.553
1662,0.002,-0.002,-0.005,-0.004,0.014,0.997,0.78,0.292,-0.559
1663,0.002,-0.004,-0.005,-0.005,0.012,0.998,0.763,0.276,-0.573
1664,0.002,-0.002,-0.005,-0.003,0.012,0.999,0.763,0.276,-0.573
1665,0.002,-0.002,-0.006,-0.002,0.012,0.998,0.778,0.28,-0.558
1666,0.005,0.0,-0.006,-0.004,0.012,1.0,0.765,0.297,-0.547
1667,0.003,-0.001,-0.006,-0.005,0.013,1.001,0.765,0.297,-0.547
1668,0.002,-0.001,-0.006,-0.006,0.014,1.001,0.777,0.286,-0.571
1669,0.003,-0.002,-0.005,-0.005,0.012,1.0,0.768,0.288,-0.55
1670,0.003,-0.001,-0.006,-0.005,0.012,1.0,0.763,0.294,-0.556
1671,0.004,0.0,-0.006,-0.004,0.011,0.997,0.784,0.285,-0.561
1672,0.004,-0.001,-0.006,-0.005,0.013,0.999,0.784,0.285,-0.561
1673,0.003,0.0,-0.006,-0.007,0.013,1.0,0.787,0.292,-0.556
1674,0.004,0.0,-0.006,-0.006,0.011,0.999,0.757,0.276,-0.553
1675,0.003,-0.002,-0.005,-0.005,0.012,0.999,0.789,0.288,-0.562
1676,0.003,-0.002,-0.005,-0.007,0.012,0.998,0.751,0.297,-0.556
1677,0.002,-0.002,-0.005,-0.008,0.011,0.997,0.756,0.286,-0.559
1678,0.002,-0.002,-0.004,-0.008,0.011,0.999,0.772,0.288,-0.541
1679,0.003,0.0,-0.005,-0.007,0.014,1.0,0.772,0.288,-0.541
1680,0.001,0.0,-0.005,-0.006,0.015,1.001,0.762,0.291,-0.537
1681,0.002,-0.001,-0.005,-0.007,0.014,1.0,0.775,0.304,-0.555
1682,0.002,-0.002,-0.005,-0.006,0.013,0.998,0.783,0.298,-0.544
1683,0.003,-0.002,-0.005,-0.005,0.013,0.999,0.766,0.277,-0.55
1684,0.002,-0.002,-0.006,-0.004,0.015,1.001,0.777,0.291,-0.561
1685,0.002,-0.001,-0.005,-0.006,0.016,1.0,0.777,0.291,-0.561
1686,0.002,-0.002,-0.005,-0.007,0.014,0.999,0.769,0.294,-0.547
1687,0.005,0.003,-0.007,-0.006,0.012,0.997,0.757,0.295,-0.535
1688,0.004,0.0,-0.007,-0.006,0.013,0.998,0.757,0.295,-0.535
1689,0.002,-0.003,-0.005,-0.005,0.012,0.998,0.783,0.286,-0.546
1690,0.002,-0.002,-0.006,-0.005,0.012,0.998,0.765,0.295,-0.565
1691,0.003,0.0,-0.006,-0.004,0.012,0.997,0.781,0.3,-0.57
1692,0.003,0.0,-0.007,-0.006,0.012,0.998,0.781,0.3,-0.57
1693,0.003,0.0,-0.007,-0.007,0.011,1.0,0.778,0.288,-0.562
1694,0.002,-0.001,-0.004,-0.004,0.012,0.999,0.75,0.28,-0.541
1695,0.004,-0.002,-0.005,-0.003,0.015,0.998,0.772,0.288,-0.553
1696,0.004,-0.002,-0.005,-0.007,0.013,0.997,0.777,0.279,-0.553
1697,0.003,-0.001,-0.006,-0.006,0.011,0.999,0.774,0.264,-0.544
1698,0.002,-0.002,-0.004,-0.003,0.011,1.0,0.754,0.283,-0.558
1699,0.003,-0.001,-0.006,-0.003,0.01,0.999,0.754,0.283,-0.558
1700,0.003,-0.002,-0.006,-0.003,0.014,1.001,0.793,0.273,-0.561
1701,0.004,-0.004,-0.005,-0.004,0.014,1.0,0.76,0.304,-0.556
1702,0.003,-0.002,-0.005,-0.006,0.012,0.998,0.76,0.304,-0.556
1703,0.002,0.0,-0.005,-0.005,0.015,0.999,0.765,0.289,-0.553
1704,0.002,-0.001,-0.006,-0.004,0.014,0.999,0.762,0.292,-0.564
1705,0.002,-0.001,-0.006,-0.004,0.013,0.999,0.769,0.28,-0.559
1706,0.002,-0.001,-0.006,-0.004,0.012,1.0,0.769,0.28,-0.559
1707,0.002,-0.001,-0.005,-0.006,0.012,1.001,0.771,0.298,-0.55
1708,0.002,0.0,-0.005,-0.005,0.012,1.0,0.769,0.283,-0.574
1709,0.003,0.0,-0.004,-0.003,0.012,0.999,0.772,0.297,-0.555
1710,0.002,-0.001,-0.005,-0.005,0.011,1.0,0.774,0.286,-0.544
1711,0.002,-0.002,-0.005,-0.005,0.011,1.0,0.769,0.303,-0.549
1712,0.002,-0.003,-0.004,-0.004,0.012,1.0,0.772,0.294,-0.549
1713,0.002,-0.004,-0.005,-0.003,0.013,0.999,0.774,0.285,-0.552
1714,0.002,-0.004,-0.005,-0.002,0.013,0.997,0.774,0.285,-0.552
1715,0.002,-0.001,-0.005,-0.002,0.014,0.996,0.789,0.291,-0.546
1716,0.003,-0.001,-0.005,-0.003,0.013,0.997,0.789,0.291,-0.546
1717,0.002,-0.002,-0.005,-0.002,0.011,0.998,0.766,0.28,-0.559
1718,0.002,-0.002,-0.006,-0.003,0.012,0.999,0.777,0.288,-0.567
1719,0.001,-0.002,-0.005,-0.006,0.013,0.998,0.765,0.286,-0.555
1720,0.002,-0.001,-0.005,-0.008,0.012,0.999,0.763,0.286,-0.559
1721,0.002,-0.002,-0.006,-0.009,0.014,1.0,0.763,0.286,-0.559
1722,0.005,0.004,-0.007,-0.005,0.015,0.998,0.759,0.292,-0.547
1723,0.004,0.0,-0.006,-0.003,0.014,0.999,0.777,0.307,-0.556
1724,0.002,0.0,-0.006,-0.007,0.013,0.999,0.769,0.285,-0.552
1725,0.001,-0.001,-0.005,-0.008,0.012,0.998,0.784,0.301,-0.559
1726,0.002,-0.002,-0.006,-0.005,0.011,0.998,0.765,0.295,-0.55
1727,0.004,-0.002,-0.005,-0.004,0.012,1.0,0.762,0.294,-0.546
1728,0.002,-0.001,-0.004,-0.004,0.012,0.999,0.762,0.294,-0.546
1729,0.002,-0.003,-0.005,-0.006,0.013,0.998,0.765,0.309,-0.549
1730,0.003,-0.001,-0.006,-0.005,0.014,0.999,0.765,0.309,-0.549
1731,0.002,-0.002,-0.006,-0.005,0.014,0.999,0.763,0.274,-0.547
1732,0.002,-0.001,-0.006,-0.004,0.012,0.999,0.774,0.292,-0.547
1733,0.003,0.0,-0.005,-0.007,0.012,1.001,0.765,0.289,-0.57
1734,0.003,0.0,-0.005,-0.006,0.013,1.001,0.775,0.286,-0.556
1735,0.002,-0.002,-0.005,-0.006,0.013,0.999,0.775,0.286,-0.556
1736,0.002,-0.002,-0.004,-0.005,0.014,0.998,0.747,0.297,-0.556
1737,0.002,-0.002,-0.004,-0.005,0.013,1.0,0.759,0.277,-0.549
1738,0.002,-0.001,-0.004,-0.006,0.014,1.002,0.76,0.286,-0.553
1739,0.002,-0.001,-0.004,-0.006,0.014,1.0,0.762,0.283,-0.553
1740,0.002,-0.003,-0.005,-0.004,0.012,0.999,0.783,0.286,-0.558
1741,0.002,-0.001,-0.006,-0.003,0.012,0.999,0.771,0.285,-0.549
1742,0.002,-0.002,-0.006,-0.005,0.014,0.999,0.771,0.285,-0.549
1743,0.005,0.004,-0.007,-0.006,0.014,1.001,0.756,0.297,-0.564
1744,0.002,0.0,-0.006,-0.006,0.013,1.0,0.756,0.297,-0.564
1745,0.002,-0.002,-0.005,-0.006,0.012,0.999,0.76,0.273,-0.573
1746,0.003,-0.002,-0.006,-0.004,0.012,0.998,0.78,0.298,-0.562
1747,0.002,-0.002,-0.005,-0.005,0.011,0.996,0.777,0.288,-0.559
1748,0.002,-0.001,-0.006,-0.006,0.011,0.996,0.766,0.304,-0.552
1749,0.003,0.0,-0.005,-0.005,0.014,0.999,0.766,0.304,-0.552
1750,0.004,0.004,-0.007,-0.005,0.014,0.999,0.762,0.289,-0.568
1751,0.003,0.0,-0.005,-0.005,0.015,1.0,0.775,0.307,-0.541
1752,0.002,-0.003,-0.005,-0.006,0.015,0.999,0.765,0.289,-0.577
1753,0.002,0.0,-0.006,-0.006,0.014,0.998,0.783,0.282,-0.564
1754,0.002,0.0,-0.006,-0.005,0.012,0.997,0.76,0.291,-0.553
1755,0.002,0.0,-0.006,-0.005,0.011,0.998,0.76,0.291,-0.553
1756,0.002,-0.002,-0.005,-0.006,0.012,0.998,0.765,0.3,-0.55
1757,0.002,-0.001,-0.005,-0.007,0.014,0.998,0.763,0.286,-0.538
1758,0.001,-0.001,-0.005,-0.006,0.013,0.997,0.775,0.292,-0.562
1759,0.002,-0.001,-0.006,-0.005,0.011,0.997,0.784,0.285,-0.544
1760,0.002,-0.001,-0.007,-0.005,0.012,0.998,0.771,0.277,-0.564
1761,0.002,-0.001,-0.005,-0.006,0.015,0.999,0.771,0.27,-0.538
1762,0.003,-0.001,-0.005,-0.006,0.013,0.999,0.771,0.27,-0.538
1763,0.003,-0.002,-0.005,-0.007,0.012,0.999,0.756,0.285,-0.571
1764,0.002,0.0,-0.006,-0.004,0.012,0.998,0.772,0.309,-0.556
1765,0.002,0.0,-0.006,-0.003,0.011,0.998,0.772,0.309,-0.556
1766,0.002,0.0,-0.004,-0.005,0.012,0.999,0.772,0.271,-0.54
1767,0.003,-0.001,-0.005,-0.006,0.015,0.999,0.772,0.288,-0.559
1768,0.002,-0.002,-0.004,-0.006,0.013,0.999,0.766,0.277,-0.541
1769,0.002,-0.002,-0.004,-0.006,0.011,0.998,0.766,0.277,-0.541
1770,0.002,0.0,-0.006,-0.006,0.011,0.998,0.765,0.288,-0.559
1771,0.003,0.002,-0.007,-0.007,0.011,0.998,0.781,0.297,-0.561
1772,0.002,0.0,-0.006,-0.006,0.012,0.999,0.763,0.273,-0.553
1773,0.002,-0.003,-0.006,-0.005,0.013,0.998,0.766,0.276,-0.549
1774,0.002,-0.003,-0.005,-0.005,0.014,0.998,0.75,0.295,-0.558
1775,0.002,-0.002,-0.005,-0.006,0.013,0.999,0.768,0.288,-0.567
1776,0.002,-0.002,-0.006,-0.007,0.012,1.0,0.768,0.288,-0.567
1777,0.003,0.0,-0.005,-0.006,0.012,1.0,0.769,0.271,-0.555
1778,0.005,0.0,-0.005,-0.005,0.012,1.0,0.763,0.303,-0.537
1779,0.004,-0.002,-0.005,-0.005,0.011,0.999,0.763,0.303,-0.537
1780,0.002,-0.001,-0.006,-0.004,0.012,0.997,0.771,0.307,-0.555
1781,0.002,-0.001,-0.006,-0.005,0.014,0.999,0.769,0.3,-0.577
1782,0.001,-0.002,-0.005,-0.006,0.015,1.0,1.152,0.283,-0.555
1783,0.002,-0.002,-0.004,-0.005,0.014,0.999,0.774,0.285,-0.552
1784,0.002,-0.003,-0.004,-0.005,0.014,0.998,0.774,0.285,-0.552
1785,0.002,0.0,-0.007,-0.004,0.013,1.001,0.757,0.289,-0.553
1786,0.002,-0.001,-0.006,-0.002,0.014,1.0,0.781,0.286,-0.555
1787,0.002,-0.002,-0.005,-0.002,0.012,0.996,0.79,0.291,-0.552
1788,0.003,0.0,-0.005,-0.003,0.013,0.998,0.754,0.295,-0.558
1789,0.002,-0.001,-0.006,-0.003,0.013,0.998,0.778,0.291,-0.546
1790,0.002,-0.002,-0.004,-0.004,0.013,1.002,0.763,0.291,-0.561
1791,0.002,-0.003,-0.004,-0.005,0.011,1.0,0.763,0.291,-0.561
1792,0.002,-0.001,-0.005,-0.005,0.011,0.998,0.762,0.304,-0.568
1793,0.002,-0.001,-0.004,-0.005,0.013,1.0,0.762,0.304,-0.568
1794,0.002,-0.001,-0.004,-0.005,0.014,1.001,0.76,0.285,-0.549
1795,0.002,-0.002,-0.005,-0.006,0.014,0.999,0.771,0.303,-0.547
1796,0.003,-0.001,-0.004,-0.006,0.012,0.998,0.763,0.291,-0.565
1797,0.002,-0.002,-0.004,-0.007,0.012,0.999,0.763,0.291,-0.565
1798,0.003,-0.001,-0.005,-0.007,0.013,0.998,0.769,0.309,-0.541
1799,0.001,0.0,-0.005,-0.005,0.014,0.997,0.766,0.292,-0.541
1800,0.001,0.0,-0.006,-0.006,0.013,0.999,0.763,0.292,-0.541
1801,0.001,-0.002,-0.005,-0.007,0.013,1.0,0.759,0.289,-0.552
1802,0.002,-0.002,-0.006,-0.005,0.014,1.001,0.762,0.289,-0.552
1803,0.002,-0.003,-0.005,-0.005,0.012,1.0,0.768,0.276,-0.562
1804,0.002,-0.002,-0.005,-0.007,0.011,0.999,0.76,0.294,-0.546
1805,0.002,-0.002,-0.005,-0.007,0.011,0.999,0.76,0.294,-0.546
1806,0.0,0.0,-0.006,-0.007,0.011,0.999,0.763,0.291,-0.552
1807,0.0,0.0,-0.006,-0.006,0.013,0.999,0.763,0.291,-0.552
1808,0.002,0.0,-0.005,-0.006,0.013,0.999,0.766,0.283,-0.559
1809,0.002,-0.002,-0.004,-0.006,0.013,1.0,0.777,0.283,-0.564
1810,0.004,0.0,-0.006,-0.006,0.013,1.0,0.781,0.294,-0.558
1811,0.004,-0.001,-0.007,-0.005,0.014,1.001,0.802,0.288,-0.559
1812,0.003,-0.002,-0.006,-0.003,0.012,1.0,0.802,0.288,-0.559
1813,0.002,-0.007,-0.004,-0.003,0.01,0.999,0.751,0.286,-0.538
1814,0.002,-0.007,-0.004,-0.005,0.011,0.999,0.751,0.286,-0.538
1815,0.002,-0.002,-0.005,-0.006,0.011,0.998,0.751,0.277,-0.565
1816,0.002,-0.002,-0.005,-0.006,0.012,1.0,0.777,0.289,-0.567
1817,0.002,-0.002,-0.006,-0.006,0.015,1.0,0.759,0.295,-0.535
1818,0.002,-0.003,-0.006,-0.004,0.014,1.0,0.778,0.279,-0.562
1819,0.002,-0.002,-0.006,-0.004,0.012,1.001,0.778,0.279,-0.562
1820,0.002,-0.004,-0.004,-0.004,0.012,1.001,0.768,0.3,-0.553
1821,0.003,-0.002,-0.006,-0.006,0.01,1.001,0.771,0.285,-0.553
1822,0.002,-0.003,-0.006,-0.008,0.011,1.0,0.792,0.291,-0.574
1823,0.002,-0.002,-0.005,-0.005,0.015,0.998,0.765,0.286,-0.571
1824,0.003,-0.002,-0.006,-0.003,0.013,0.998,0.778,0.31,-0.555
1825,0.003,-0.001,-0.005,-0.004,0.012,1.0,0.771,0.292,-0.562
1826,0.002,-0.002,-0.006,-0.005,0.012,0.999,0.771,0.292,-0.562
1827,0.002,-0.004,-0.005,-0.006,0.012,0.999,0.765,0.298,-0.534
1828,0.002,0.0,-0.005,-0.004,0.011,1.0,0.765,0.298,-0.534
1829,0.002,-0.002,-0.004,-0.004,0.011,1.0,0.759,0.301,-0.555
1830,0.002,-0.002,-0.004,-0.006,0.011,1.0,0.768,0.297,-0.558
1831,0.002,0.0,-0.005,-0.006,0.014,0.999,0.781,0.289,-0.544
1832,0.002,0.0,-0.005,-0.005,0.013,0.999,0.781,0.289,-0.544
1833,0.003,0.0,-0.005,-0.005,0.013,1.0,0.78,0.288,-0.547
1834,0.003,0.0,-0.005,-0.004,0.012,1.001,0.772,0.276,-0.544
1835,0.002,0.0,-0.005,-0.005,0.012,1.0,0.759,0.285,-0.568
1836,0.002,0.0,-0.005,-0.005,0.015,0.998,0.772,0.295,-0.553
1837,0.002,-0.002,-0.004,-0.007,0.014,0.999,0.775,0.289,-0.576
1838,0.002,-0.002,-0.004,-0.008,0.013,1.001,0.792,0.286,-0.562
1839,0.002,-0.001,-0.005,-0.004,0.014,1.001,0.769,0.301,-0.556
1840,0.003,-0.002,-0.006,0.0,0.014,0.999,0.769,0.301,-0.556
1841,0.003,-0.001,-0.005,-0.003,0.011,0.998,0.778,0.285,-0.541
1842,0.002,0.0,-0.006,-0.006,0.011,0.998,0.778,0.285,-0.541
1843,0.003,-0.001,-0.005,-0.003,0.012,0.998,0.771,0.288,-0.558
1844,0.002,-0.001,-0.005,-0.003,0.012,0.999,0.772,0.285,-0.555
1845,0.002,-0.001,-0.005,-0.003,0.013,0.999,0.748,0.297,-0.571
1846,0.002,-0.001,-0.005,-0.004,0.014,0.999,0.748,0.297,-0.571
1847,0.002,-0.001,-0.006,-0.004,0.012,1.0,0.766,0.288,-0.547
1848,0.002,0.0,-0.005,-0.004,0.013,0.998,0.762,0.277,-0.564
1849,0.002,0.0,-0.005,-0.004,0.013,0.998,0.742,0.285,-0.546
1850,0.002,0.0,-0.006,-0.007,0.015,0.999,0.753,0.288,-0.559
1851,0.003,-0.002,-0.005,-0.006,0.014,1.0,0.769,0.292,-0.552
1852,0.003,-0.002,-0.005,-0.004,0.013,0.998,0.775,0.294,-0.55
1853,0.003,-0.002,-0.005,-0.005,0.013,0.999,0.75,0.291,-0.567
1854,0.003,0.0,-0.005,-0.005,0.012,0.998,0.75,0.291,-0.567
1855,0.003,0.001,-0.005,-0.004,0.012,0.999,0.754,0.304,-0.555
1856,0.003,0.0,-0.006,-0.005,0.013,1.001,0.754,0.304,-0.555
1857,0.003,0.0,-0.007,-0.004,0.013,1.001,0.772,0.289,-0.558
1858,0.002,-0.001,-0.005,-0.003,0.011,1.0,0.762,0.307,-0.561
1859,0.002,-0.002,-0.004,-0.003,0.011,1.0,0.793,0.28,-0.561
1860,0.002,-0.002,-0.006,-0.004,0.012,0.999,0.763,0.291,-0.543
1861,0.002,-0.002,-0.006,-0.005,0.013,0.999,0.757,0.306,-0.546
1862,0.0,-0.007,-0.004,-0.005,0.014,1.001,0.757,0.306,-0.546
1863,0.002,-0.004,-0.004,-0.006,0.013,1.0,0.76,0.279,-0.546
1864,0.002,0.0,-0.005,-0.004,0.01,0.999,0.79,0.3,-0.561
1865,0.002,-0.001,-0.005,-0.002,0.011,0.999,0.792,0.294,-0.562
1866,0.002,-0.002,-0.004,-0.004,0.014,0.997,0.769,0.291,-0.544
1867,0.002,-0.002,-0.005,-0.005,0.013,0.999,0.769,0.292,-0.562
1868,0.003,-0.001,-0.005,-0.005,0.011,1.001,0.769,0.292,-0.562
1869,0.004,0.004,-0.007,-0.005,0.011,1.001,0.751,0.268,-0.546
1870,0.003,0.001,-0.005,-0.004,0.013,0.999,0.751,0.268,-0.546
1871,0.002,-0.002,-0.006,-0.003,0.013,1.0,0.771,0.289,-0.57
1872,0.002,-0.001,-0.006,-0.005,0.011,0.999,0.762,0.283,-0.568
1873,0.002,-0.001,-0.006,-0.005,0.013,0.998,0.771,0.3,-0.535
1874,0.002,0.0,-0.005,-0.004,0.014,0.998,0.771,0.3,-0.535
1875,0.003,0.0,-0.005,-0.005,0.012,0.999,0.772,0.288,-0.552
1876,0.004,-0.002,-0.005,-0.005,0.013,1.0,0.741,0.282,-0.561
1877,0.002,-0.002,-0.005,-0.003,0.013,1.0,0.741,0.282,-0.561
1878,0.002,-0.003,-0.005,-0.003,0.012,0.999,0.78,0.286,-0.564
1879,0.002,-0.003,-0.004,-0.004,0.013,0.999,0.769,0.262,-0.555
1880,0.002,0.0,-0.005,-0.005,0.013,0.999,0.783,0.283,-0.562
1881,0.002,-0.002,-0.006,-0.006,0.012,0.999,0.759,0.277,-0.553
1882,0.002,-0.002,-0.004,-0.006,0.012,0.998,0.759,0.277,-0.553
1883,0.0,-0.002,-0.005,-0.008,0.015,0.997,0.751,0.276,-0.534
1884,0.002,-0.001,-0.006,-0.008,0.014,0.998,0.783,0.297,-0.549
1885,0.002,-0.002,-0.006,-0.005,0.013,1.0,0.76,0.277,-0.567
1886,0.002,-0.002,-0.006,-0.005,0.013,1.0,0.744,0.283,-0.57
1887,0.002,-0.003,-0.004,-0.007,0.011,0.998,0.783,0.294,-0.567
1888,0.002,-0.002,-0.005,-0.007,0.011,0.998,0.783,0.294,-0.567
1889,0.002,-0.001,-0.005,-0.006,0.012,0.999,0.771,0.28,-0.568
1890,0.003,-0.01,-0.005,-0.006,0.013,0.999,0.778,0.3,-0.528
1891,0.002,-0.003,-0.005,-0.005,0.015,1.0,0.778,0.3,-0.528
1892,0.002,-0.002,-0.004,-0.004,0.015,1.0,0.76,0.306,-0.546
1893,0.002,-0.002,-0.004,-0.006,0.012,0.998,0.771,0.3,-0.546
1894,0.002,-0.002,-0.007,-0.006,0.012,0.998,0.768,0.283,-0.556
1895,0.002,-0.002,-0.006,-0.006,0.013,1.0,0.778,0.285,-0.547
1896,0.002,-0.002,-0.005,-0.006,0.014,1.0,0.778,0.285,-0.547
1897,0.002,-0.002,-0.005,-0.006,0.014,0.998,0.756,0.28,-0.547
1898,0.002,-0.001,-0.005,-0.004,0.015,0.998,0.774,0.285,-0.538
1899,0.003,-0.002,-0.006,-0.004,0.015,0.998,0.757,0.288,-0.576
1900,0.003,-0.002,-0.005,-0.004,0.015,0.999,0.768,0.3,-0.558
1901,0.004,0.0,-0.005,-0.004,0.016,0.999,0.774,0.298,-0.561
1902,0.003,0.0,-0.006,-0.005,0.013,1.0,0.774,0.298,-0.561
1903,0.002,-0.002,-0.005,-0.005,0.012,0.999,0.759,0.291,-0.562
1904,0.002,0.001,-0.007,-0.006,0.012,0.998,0.762,0.294,-0.541
1905,0.002,0.0,-0.006,-0.006,0.012,0.999,0.762,0.294,-0.541
1906,0.002,-0.001,-0.006,-0.004,0.013,0.999,0.766,0.295,-0.552
1907,0.002,0.0,-0.006,-0.004,0.012,0.999,0.775,0.294,-0.571
1908,0.002,0.0,-0.006,-0.004,0.012,0.999,0.765,0.282,-0.561
1909,0.002,-0.002,-0.005,-0.005,0.011,0.999,0.771,0.303,-0.562
1910,0.002,-0.001,-0.005,-0.007,0.013,0.999,0.771,0.303,-0.562
1911,0.003,0.0,-0.007,-0.008,0.012,1.0,0.772,0.288,-0.547
1912,0.002,-0.002,-0.005,-0.005,0.01,1.001,0.772,0.292,-0.546
1913,0.002,-0.002,-0.005,-0.005,0.013,1.0,0.774,0.303,-0.556
1914,0.002,-0.003,-0.004,-0.006,0.013,0.999,0.763,0.276,-0.562
1915,0.002,-0.001,-0.004,-0.007,0.013,1.0,0.772,0.291,-0.562
1916,0.002,0.0,-0.005,-0.006,0.012,1.0,0.765,0.3,-0.564
1917,0.002,-0.003,-0.006,-0.004,0.01,0.997,0.765,0.3,-0.564
1918,0.001,-0.004,-0.005,-0.004,0.013,1.0,0.739,0.307,-0.565
1919,0.002,-0.002,-0.005,-0.004,0.013,1.0,0.739,0.307,-0.565
1920,0.003,-0.002,-0.007,-0.004,0.014,0.999,0.748,0.291,-0.556
1921,0.002,-0.002,-0.006,-0.005,0.014,0.999,0.771,0.277,-0.568
1922,0.002,-0.001,-0.005,-0.006,0.013,0.998,0.762,0.282,-0.559
1923,0.002,-0.001,-0.005,-0.005,0.013,1.0,0.762,0.282,-0.559
1924,0.002,-0.003,-0.006,-0.005,0.014,1.001,0.765,0.292,-0.541
1925,0.002,-0.001,-0.006,-0.006,0.016,1.0,0.765,0.292,-0.541
1926,0.002,-0.001,-0.006,-0.005,0.015,0.997,0.756,0.273,-0.55
1927,0.002,-0.002,-0.005,-0.004,0.014,0.998,0.771,0.297,-0.561
1928,0.002,-0.002,-0.006,-0.004,0.014,0.998,0.775,0.303,-0.528
1929,0.002,-0.001,-0.005,-0.004,0.014,0.999,0.751,0.283,-0.556
1930,0.002,-0.002,-0.004,-0.005,0.013,0.997,0.751,0.283,-0.556
1931,0.002,-0.002,-0.005,-0.006,0.013,0.997,0.781,0.303,-0.558
1932,0.002,-0.002,-0.005,-0.006,0.012,1.003,0.768,0.291,-0.54
1933,0.003,-0.002,-0.004,-0.003,0.011,1.004,0.768,0.291,-0.54
1934,0.003,-0.001,-0.004,-0.004,0.012,0.999,0.78,0.283,-0.54
1935,0.002,-0.001,-0.004,-0.006,0.012,0.998,0.766,0.28,-0.561
1936,0.002,-0.001,-0.005,-0.005,0.013,0.999,0.763,0.289,-0.574
1937,0.002,-0.002,-0.006,-0.003,0.014,1.0,0.763,0.289,-0.574
1938,0.002,-0.002,-0.004,-0.003,0.013,1.0,0.762,0.297,-0.571
1939,0.002,-0.007,-0.005,-0.006,0.011,0.999,0.754,0.291,-0.541
1940,0.002,-0.003,-0.005,-0.006,0.012,0.999,0.754,0.291,-0.541
1941,0.003,-0.001,-0.006,-0.005,0.013,0.999,0.751,0.298,-0.556
