,Gyroscope X (deg/s),Gyroscope Y (deg/s),Gyroscope Z (deg/s),Accelerometer X (g),Accelerometer Y (g),Accelerometer Z (g),Magnetometer X (G),Magnetometer Y (G),Magnetometer Z (G)
1,37.0,120.0,-577.0,-0.0002,0.0,0.0,0.073,0.156,0.162
2,36.0,103.0,-577.0,-0.0001,0.0,-0.0001,0.07,0.154,0.166
3,36.0,117.0,-583.0,-0.0002,0.0,-0.0001,0.079,0.15,0.157
4,36.0,111.0,-579.0,-0.0002,0.0,-0.0002,0.075,0.162,0.163
5,48.0,111.0,-576.0,-0.0005,0.0,-0.0002,0.076,0.156,0.157
6,34.0,117.0,-579.0,-0.0011,0.0002,-0.0003,0.076,0.165,0.162
7,39.0,109.0,-576.0,-0.0018,0.0002,-0.0004,0.075,0.153,0.148
8,39.0,109.0,-574.0,-0.0018,0.0,-0.0004,0.082,0.145,0.162
9,40.0,111.0,-571.0,-0.0014,0.0,-0.0004,0.072,0.157,0.162
10,37.0,109.0,-582.0,-0.0016,0.0002,-0.0004,0.076,0.157,0.159
11,34.0,123.0,-574.0,-0.0023,0.0006,-0.0004,0.069,0.151,0.16
12,31.0,117.0,-576.0,-0.0025,0.0007,-0.0004,0.067,0.145,0.162
13,30.0,103.0,-574.0,-0.0023,0.0004,-0.0004,0.07,0.159,0.154
14,28.0,118.0,-585.0,-0.0018,0.0004,-0.0003,0.069,0.144,0.165
15,34.0,120.0,-574.0,-0.0003,0.0002,-0.0001,0.07,0.15,0.166
16,27.0,114.0,-568.0,0.0007,-0.0005,0.0,0.075,0.157,0.154
17,28.0,109.0,-568.0,-0.0002,-0.0002,0.0,0.076,0.157,0.156
18,28.0,108.0,-571.0,-0.0001,0.0,0.0,0.078,0.15,0.16
19,33.0,114.0,-582.0,-0.0001,-0.0002,0.0,0.082,0.157,0.159
20,27.0,112.0,-583.0,0.0,-0.0003,0.0,0.072,0.165,0.162
21,31.0,106.0,-579.0,0.0,-0.0002,0.0,0.075,0.147,0.163
22,37.0,108.0,-573.0,0.0,-0.0001,0.0,0.073,0.147,0.162
23,33.0,111.0,-573.0,0.0,0.0,0.0,0.067,0.148,0.166
24,31.0,114.0,-564.0,-0.0001,0.0,-0.0001,0.072,0.154,0.157
25,34.0,112.0,-582.0,-0.0002,0.0,-0.0002,0.078,0.145,0.16
26,31.0,109.0,-577.0,-0.0004,-0.0002,-0.0002,0.073,0.162,0.156
27,34.0,109.0,-573.0,-0.0004,-0.0004,-0.0003,0.07,0.151,0.162
28,34.0,111.0,-571.0,-0.0002,-0.0003,-0.0002,0.078,0.153,0.16
29,22.0,121.0,-577.0,-0.0002,-0.0002,-0.0002,0.076,0.157,0.16
30,34.0,112.0,-580.0,-0.0003,-0.0001,-0.0002,0.076,0.159,0.156
31,30.0,111.0,-582.0,-0.0004,-0.0002,-0.0002,0.069,0.151,0.165
32,34.0,114.0,-577.0,-0.0004,-0.0002,-0.0002,0.079,0.154,0.157
33,33.0,102.0,-579.0,-0.0004,-0.0002,-0.0001,0.078,0.16,0.171
34,34.0,106.0,-586.0,-0.0002,-0.0001,0.0,0.076,0.151,0.171
35,34.0,112.0,-571.0,0.0,-0.0001,0.0,0.076,0.151,0.16
36,31.0,102.0,-570.0,0.0,0.0,0.0,0.078,0.153,0.159
37,37.0,111.0,-568.0,0.0001,-0.0002,0.0,0.072,0.154,0.16
38,28.0,115.0,-573.0,0.0,-0.0001,0.0,0.07,0.157,0.157
39,34.0,111.0,-570.0,0.0,0.0,0.0,0.072,0.154,0.157
40,34.0,118.0,-570.0,0.0,0.0,0.0,0.078,0.156,0.163
41,36.0,120.0,-576.0,0.0001,-0.0002,0.0,0.076,0.157,0.156
42,40.0,115.0,-582.0,0.0001,-0.0002,0.0,0.075,0.154,0.154
43,34.0,120.0,-576.0,-0.0001,-0.0001,-0.0001,0.072,0.162,0.159
44,31.0,117.0,-576.0,-0.0001,-0.0002,0.0,0.078,0.142,0.157
45,33.0,115.0,-570.0,-0.0001,-0.0004,0.0,0.073,0.157,0.166
46,45.0,117.0,-570.0,-0.0002,-0.0004,-0.0001,0.075,0.156,0.162
47,28.0,115.0,-577.0,-0.0001,-0.0004,-0.0001,0.07,0.16,0.159
48,36.0,112.0,-573.0,-0.0007,-0.0004,-0.0003,0.069,0.157,0.172
49,31.0,117.0,-570.0,-0.0008,-0.0001,-0.0004,0.076,0.151,0.153
50,30.0,115.0,-573.0,-0.0007,0.0,-0.0004,0.07,0.147,0.162
51,39.0,109.0,-573.0,-0.0004,0.0,-0.0003,0.075,0.156,0.163
52,33.0,114.0,-582.0,0.0,-0.0001,0.0,0.075,0.154,0.168
53,34.0,106.0,-580.0,0.0002,-0.0002,0.0,0.07,0.153,0.159
54,37.0,103.0,-583.0,0.0004,-0.0004,0.0002,0.078,0.15,0.168
55,34.0,114.0,-576.0,0.0002,-0.0003,0.0,0.076,0.157,0.162
56,27.0,111.0,-573.0,0.0002,-0.0002,0.0,0.076,0.148,0.159
57,37.0,106.0,-570.0,0.0002,0.0,0.0,0.087,0.156,0.162
58,36.0,106.0,-580.0,0.0002,0.0,0.0,0.078,0.154,0.16
59,31.0,114.0,-564.0,0.0,-0.0002,0.0,0.075,0.159,0.163
60,37.0,111.0,-576.0,0.0002,-0.0002,0.0,0.076,0.151,0.165
61,33.0,117.0,-576.0,0.0007,-0.0003,0.0001,0.073,0.159,0.168
62,37.0,108.0,-582.0,0.0005,-0.0002,0.0001,0.072,0.154,0.154
63,39.0,121.0,-583.0,0.0004,-0.0001,0.0,0.069,0.15,0.159
64,42.0,117.0,-570.0,0.0,-0.0001,0.0,0.072,0.156,0.169
65,36.0,114.0,-577.0,0.0,-0.0001,0.0,0.078,0.154,0.159
66,34.0,114.0,-576.0,0.0001,-0.0002,0.0,0.078,0.153,0.159
67,36.0,111.0,-579.0,0.0001,-0.0002,0.0,0.076,0.159,0.159
68,33.0,115.0,-577.0,0.0002,-0.0001,0.0,0.076,0.154,0.162
69,37.0,105.0,-576.0,0.0002,-0.0003,0.0,0.073,0.151,0.162
70,31.0,108.0,-576.0,-0.0001,-0.0002,-0.0001,0.069,0.153,0.163
71,33.0,106.0,-580.0,0.0,-0.0001,-0.0002,0.069,0.147,0.16
72,34.0,109.0,-568.0,-0.0005,0.0,-0.0003,0.072,0.15,0.159
73,27.0,115.0,-580.0,-0.0005,0.0,-0.0002,0.079,0.148,0.154
74,33.0,115.0,-580.0,0.0007,0.0,0.0002,0.064,0.154,0.16
75,31.0,112.0,-568.0,0.0005,-0.0002,0.0,0.078,0.154,0.163
76,36.0,115.0,-574.0,0.0,-0.0004,-0.0002,0.072,0.159,0.16
77,28.0,118.0,-564.0,-0.0007,-0.0002,-0.0004,0.076,0.16,0.166
78,27.0,117.0,-565.0,-0.0004,-0.0005,-0.0002,0.067,0.162,0.163
79,39.0,121.0,-567.0,-0.0001,-0.0004,-0.0001,0.076,0.153,0.165
80,28.0,120.0,-565.0,-0.0004,0.0,-0.0002,0.07,0.154,0.168
81,21.0,123.0,-561.0,-0.0009,0.0001,-0.0002,0.07,0.153,0.165
82,28.0,123.0,-571.0,-0.0008,0.0004,-0.0002,0.063,0.16,0.168
83,31.0,120.0,-577.0,-0.0004,0.0,-0.0001,0.078,0.154,0.154
84,22.0,120.0,-562.0,-0.0004,-0.0002,-0.0001,0.076,0.16,0.162
85,24.0,117.0,-579.0,0.0006,-0.0007,0.0002,0.07,0.153,0.162
86,28.0,120.0,-571.0,0.0007,-0.0006,0.0002,0.073,0.148,0.16
87,21.0,117.0,-580.0,0.0,-0.0004,0.0,0.078,0.151,0.162
88,18.0,120.0,-580.0,0.0,-0.0002,-0.0001,0.073,0.159,0.165
89,21.0,114.0,-592.0,0.0002,-0.0003,-0.0001,0.076,0.153,0.154
90,24.0,112.0,-571.0,0.0004,-0.0002,-0.0002,0.067,0.159,0.168
91,13.0,123.0,-571.0,0.0007,-0.0005,-0.0002,0.076,0.153,0.153
92,16.0,103.0,-574.0,0.0012,-0.0009,0.0,0.07,0.156,0.159
93,31.0,106.0,-579.0,0.0009,-0.0004,0.0001,0.073,0.162,0.159
94,33.0,112.0,-573.0,0.0004,0.0,0.0,0.069,0.148,0.165
95,34.0,115.0,-580.0,0.0003,0.0,0.0,0.069,0.15,0.16
96,34.0,117.0,-567.0,0.0009,-0.0002,0.0,0.082,0.163,0.169
97,37.0,108.0,-576.0,0.0009,-0.0002,0.0002,0.075,0.156,0.162
98,33.0,108.0,-571.0,0.0003,0.0004,0.0001,0.079,0.154,0.16
99,37.0,111.0,-579.0,-0.0002,0.0009,0.0,0.081,0.162,0.169
100,25.0,103.0,-571.0,-0.0008,0.001,-0.0002,0.081,0.156,0.165
101,33.0,114.0,-574.0,-0.0018,0.0007,-0.0006,0.069,0.147,0.157
102,37.0,96.0,-573.0,-0.0021000000000000003,0.0002,-0.0008,0.072,0.153,0.157
103,36.0,103.0,-567.0,-0.0013,0.0,-0.0006,0.076,0.153,0.163
104,37.0,106.0,-580.0,-0.0005,0.0002,-0.0004,0.075,0.154,0.154
105,37.0,112.0,-585.0,0.0,0.0006,-0.0002,0.076,0.15,0.157
106,40.0,91.0,-577.0,-0.0004,0.0006,-0.0005,0.063,0.148,0.153
107,39.0,103.0,-583.0,-0.0009,0.0008,-0.0012,0.088,0.154,0.162
108,31.0,112.0,-585.0,0.0006,0.0018,-0.0275,0.084,0.156,0.157
109,34.0,105.0,-574.0,0.0003,0.0001,-0.0055,0.07,0.151,0.159
110,39.0,100.0,-576.0,-0.0027,0.0072,-0.0056,0.072,0.162,0.159
111,37.0,108.0,-571.0,-0.0024,0.004200000000000001,-0.0018,0.075,0.151,0.162
112,30.0,103.0,-577.0,-0.0019,0.0023,0.0011,0.067,0.163,0.159
113,30.0,103.0,-574.0,-0.0032,0.0043,0.0012,0.069,0.15,0.16
114,34.0,106.0,-580.0,-0.0038,0.0056,0.0017,0.075,0.159,0.157
115,31.0,106.0,-571.0,-0.0063,0.008400000000000001,-0.0040999999999999995,0.075,0.154,0.151
116,40.0,114.0,-574.0,-0.0056,0.0079,-0.004200000000000001,0.085,0.163,0.168
117,39.0,105.0,-574.0,-0.0053,0.0075,0.0091,0.076,0.151,0.168
118,43.0,109.0,-568.0,-0.0004,0.0017,0.0006,0.064,0.154,0.159
119,30.0,97.0,-577.0,-0.003,0.0050999999999999995,0.0022,0.072,0.151,0.157
120,34.0,100.0,-576.0,0.0014,0.0023,0.013699999999999999,0.073,0.162,0.157
121,37.0,108.0,-580.0,0.0046,-0.0055,0.0014,0.066,0.151,0.162
122,39.0,94.0,-583.0,0.004200000000000001,-0.0050999999999999995,-0.0022,0.067,0.153,0.16
123,28.0,102.0,-573.0,0.0007,0.0018,-0.0007,0.073,0.16,0.16
124,28.0,111.0,-573.0,-0.0096,0.0052,0.0028,0.072,0.157,0.165
125,36.0,108.0,-582.0,0.0023,-0.0017,0.0027,0.067,0.157,0.159
126,40.0,108.0,-571.0,0.003,-0.0005,0.0063,0.076,0.16,0.163
127,36.0,108.0,-577.0,0.0033,0.0060999999999999995,0.0012,0.063,0.148,0.159
128,31.0,108.0,-577.0,0.004900000000000001,-0.0048,-0.0060999999999999995,0.07,0.154,0.159
129,36.0,109.0,-576.0,0.0074,0.0004,-0.018600000000000002,0.075,0.145,0.163
130,36.0,105.0,-577.0,0.0032,-0.0088,-0.010199999999999999,0.076,0.144,0.163
131,34.0,102.0,-579.0,0.0081,-0.001,-0.001,0.069,0.148,0.162
132,36.0,100.0,-571.0,0.0077,-0.0011,-0.002,0.076,0.159,0.154
133,40.0,102.0,-577.0,0.0074,0.0,0.0014,0.072,0.154,0.169
134,33.0,96.0,-579.0,0.0072,-0.0024,0.0032,0.066,0.15,0.165
135,39.0,112.0,-583.0,0.0129,0.0,0.005,0.07,0.157,0.151
136,37.0,108.0,-574.0,0.0087,-0.0111,0.0007,0.072,0.154,0.154
137,34.0,100.0,-573.0,0.009,0.0032,0.0002,0.073,0.154,0.156
138,37.0,102.0,-576.0,0.012199999999999999,-0.0014,-0.0014,0.076,0.148,0.165
139,40.0,109.0,-576.0,0.0143,0.0044,0.0015,0.066,0.148,0.163
140,39.0,102.0,-577.0,0.0134,0.006,-0.0031,0.064,0.154,0.162
141,34.0,102.0,-573.0,0.0064,0.0024,0.0003,0.075,0.154,0.16
142,28.0,99.0,-586.0,0.0065,-0.0014,0.0053,0.073,0.154,0.171
143,39.0,112.0,-573.0,0.0014,0.0,0.001,0.069,0.15,0.163
144,30.0,106.0,-574.0,-0.0001,-0.0035,0.0014,0.067,0.154,0.165
145,39.0,108.0,-579.0,0.0031,0.0011,-0.0008,0.073,0.159,0.154
146,43.0,106.0,-582.0,0.0046,-0.0134,-0.0002,0.07,0.156,0.159
147,42.0,99.0,-580.0,0.0067,-0.0143,0.0028,0.07,0.156,0.159
148,34.0,112.0,-573.0,0.0058,-0.005900000000000001,0.0065,0.075,0.144,0.16
149,33.0,112.0,-571.0,0.0039,-0.0052,0.0043,0.07,0.156,0.162
150,37.0,114.0,-574.0,0.013300000000000001,0.0008,0.0002,0.072,0.151,0.159
151,42.0,114.0,-580.0,0.0047,-0.0062,0.0058,0.072,0.151,0.159
152,37.0,114.0,-565.0,0.0018,-0.0033,0.0018,0.072,0.15,0.159
153,31.0,96.0,-589.0,0.008199999999999999,-0.0068,-0.0005,0.069,0.15,0.163
154,33.0,105.0,-576.0,-0.0115,0.0065,0.0072,0.079,0.148,0.16
155,34.0,99.0,-574.0,-0.0025,-0.0007,0.0015,0.079,0.148,0.16
156,39.0,105.0,-576.0,-0.0028,0.0058,0.0018,0.078,0.151,0.162
157,28.0,106.0,-586.0,0.0018,-0.0014,-0.0013,0.07,0.16,0.165
158,36.0,112.0,-580.0,0.0018,-0.0027,-0.001,0.076,0.157,0.153
159,34.0,100.0,-574.0,-0.0013,-0.0011,-0.0005,0.076,0.157,0.153
160,40.0,106.0,-580.0,-0.0050999999999999995,0.003,-0.0007,0.067,0.15,0.153
161,34.0,102.0,-574.0,-0.0058,0.0015,-0.0002,0.078,0.162,0.157
162,39.0,102.0,-570.0,-0.0007,-0.0004,0.0002,0.072,0.153,0.159
163,39.0,114.0,-571.0,0.0,-0.0008,0.0001,0.076,0.16,0.156
164,28.0,103.0,-573.0,0.0,-0.0007,0.0,0.076,0.16,0.156
165,34.0,105.0,-567.0,0.0,-0.0009,0.0001,0.079,0.151,0.163
166,33.0,108.0,-577.0,-0.0002,-0.0009,0.0,0.075,0.15,0.165
167,27.0,102.0,-568.0,-0.0001,-0.0012,0.0,0.079,0.157,0.168
168,36.0,106.0,-574.0,0.0,-0.0011,0.0,0.079,0.157,0.168
169,36.0,108.0,-574.0,0.0,-0.001,-0.0001,0.078,0.159,0.172
170,28.0,105.0,-571.0,-0.0002,-0.001,-0.0002,0.072,0.159,0.154
171,28.0,103.0,-580.0,-0.0003,-0.0011,-0.0002,0.076,0.16,0.166
172,33.0,109.0,-574.0,-0.0002,-0.0009,-0.0002,0.079,0.151,0.163
173,33.0,102.0,-570.0,-0.0002,-0.0008,-0.0001,0.073,0.151,0.159
174,40.0,105.0,-570.0,-0.0001,-0.0008,-0.0001,0.079,0.15,0.163
175,34.0,106.0,-570.0,-0.0002,-0.0005,-0.0002,0.069,0.156,0.168
176,36.0,108.0,-583.0,-0.0002,-0.0007,0.0,0.072,0.156,0.157
177,37.0,109.0,-582.0,-0.0002,-0.0007,0.0,0.075,0.151,0.154
178,34.0,106.0,-580.0,0.0,-0.0009,0.0,0.066,0.154,0.159
179,34.0,103.0,-568.0,0.0003,-0.0011,0.0001,0.067,0.151,0.16
180,34.0,109.0,-573.0,0.0004,-0.001,0.0001,0.085,0.144,0.157
181,36.0,100.0,-577.0,0.0003,-0.0006,0.0,0.081,0.156,0.154
182,33.0,106.0,-576.0,0.0002,-0.0005,0.0,0.075,0.151,0.159
183,39.0,106.0,-577.0,0.0,-0.0004,0.0,0.075,0.145,0.162
184,40.0,105.0,-579.0,0.0,-0.0002,0.0,0.079,0.157,0.163
185,21.0,112.0,-570.0,-0.0004,0.0002,0.0,0.073,0.156,0.159
186,36.0,102.0,-577.0,-0.0004,0.0,0.0,0.076,0.147,0.163
187,31.0,103.0,-576.0,-0.0002,-0.0002,0.0,0.081,0.166,0.159
188,33.0,103.0,-571.0,-0.0001,-0.0002,0.0,0.073,0.15,0.163
189,30.0,103.0,-579.0,0.0,-0.0003,0.0,0.073,0.154,0.16
190,25.0,112.0,-573.0,0.0,-0.0006,0.0,0.066,0.153,0.163
191,40.0,105.0,-583.0,0.0,-0.0005,0.0,0.076,0.154,0.163
192,31.0,105.0,-576.0,-0.0002,-0.0001,0.0,0.075,0.148,0.165
193,40.0,97.0,-580.0,-0.0003,0.0,-0.0001,0.073,0.15,0.159
194,30.0,100.0,-565.0,-0.0004,0.0002,0.0,0.073,0.157,0.16
195,33.0,112.0,-573.0,-0.0002,0.0,0.0,0.081,0.156,0.171
196,31.0,102.0,-570.0,-0.0001,-0.0002,0.0,0.07,0.141,0.165
197,36.0,105.0,-574.0,-0.0002,0.0,0.0,0.07,0.147,0.169
198,28.0,102.0,-582.0,-0.0004,0.0002,0.0,0.072,0.148,0.165
199,40.0,103.0,-576.0,-0.0004,0.0003,0.0,0.066,0.157,0.163
200,39.0,108.0,-576.0,-0.0004,0.0001,0.0,0.063,0.159,0.168
201,33.0,106.0,-577.0,-0.0002,-0.0001,0.0,0.066,0.156,0.168
202,33.0,109.0,-573.0,0.0,-0.0002,0.0,0.073,0.156,0.16
203,31.0,114.0,-573.0,0.0,-0.0003,0.0,0.073,0.153,0.162
204,31.0,108.0,-573.0,0.0,-0.0002,0.0,0.063,0.151,0.165
205,30.0,105.0,-565.0,-0.0002,0.0001,0.0,0.073,0.142,0.168
206,33.0,106.0,-568.0,-0.0004,0.0004,0.0,0.067,0.15,0.162
207,34.0,105.0,-579.0,-0.0002,0.0001,0.0,0.072,0.144,0.165
208,37.0,105.0,-579.0,-0.0001,0.0,0.0,0.067,0.154,0.16
209,31.0,103.0,-580.0,-0.0002,0.0,0.0,0.072,0.157,0.163
210,31.0,112.0,-570.0,-0.0004,0.0002,-0.0001,0.072,0.154,0.169
211,34.0,103.0,-573.0,-0.0003,0.0001,0.0,0.073,0.151,0.169
212,25.0,109.0,-579.0,-0.0002,-0.0001,0.0,0.078,0.153,0.162
213,33.0,97.0,-580.0,0.0,-0.0004,0.0,0.076,0.15,0.157
214,36.0,102.0,-589.0,0.0,-0.0004,0.0,0.076,0.157,0.16
215,43.0,106.0,-571.0,-0.0001,0.0,0.0,0.075,0.154,0.16
216,25.0,111.0,-585.0,-0.0003,0.0002,-0.0001,0.079,0.159,0.163
217,36.0,105.0,-567.0,-0.0004,0.0,-0.0001,0.073,0.153,0.166
218,40.0,111.0,-574.0,0.0,-0.0005,0.0,0.078,0.157,0.162
219,34.0,117.0,-577.0,0.0001,-0.0009,0.0,0.081,0.151,0.163
220,34.0,106.0,-573.0,0.0,-0.0004,-0.0001,0.078,0.162,0.157
221,33.0,111.0,-561.0,-0.0001,-0.0002,0.0,0.073,0.153,0.16
222,36.0,105.0,-573.0,0.0,-0.0003,0.0,0.076,0.156,0.16
223,27.0,99.0,-580.0,0.0,-0.0002,0.0,0.064,0.151,0.157
224,33.0,100.0,-573.0,0.0,-0.0002,0.0,0.073,0.159,0.157
225,37.0,109.0,-579.0,0.0,-0.0004,0.0,0.073,0.163,0.165
226,33.0,109.0,-571.0,-0.0001,-0.0003,0.0,0.076,0.16,0.16
227,34.0,112.0,-571.0,-0.0002,-0.0002,0.0,0.067,0.162,0.163
228,33.0,106.0,-579.0,0.0,-0.0003,0.0,0.069,0.16,0.162
229,30.0,114.0,-571.0,0.0,-0.0004,-0.0001,0.079,0.165,0.162
230,39.0,109.0,-582.0,0.0001,-0.0006,0.0,0.072,0.163,0.154
231,31.0,111.0,-568.0,0.0,-0.0005,0.0,0.067,0.16,0.166
232,30.0,108.0,-577.0,0.0,-0.0004,0.0,0.057,0.172,0.154
233,39.0,106.0,-568.0,0.0,-0.0002,-0.0001,0.064,0.165,0.159
234,36.0,97.0,-580.0,0.0,-0.0002,-0.0002,0.058,0.16,0.145
235,40.0,114.0,-577.0,0.0,-0.0002,0.0,0.069,0.175,0.154
236,39.0,106.0,-576.0,0.0,-0.0002,0.0,0.066,0.175,0.153
237,39.0,100.0,-573.0,0.0,-0.0002,0.0,0.063,0.181,0.148
238,42.0,106.0,-574.0,-0.0001,0.0,0.0,0.073,0.178,0.139
239,40.0,106.0,-577.0,-0.0002,0.0,0.0,0.07,0.187,0.153
240,30.0,112.0,-574.0,-0.0003,0.0003,0.0,0.081,0.184,0.138
241,30.0,106.0,-576.0,-0.0004,0.0004,0.0,0.072,0.187,0.135
242,28.0,109.0,-574.0,-0.0002,0.0,0.0,0.073,0.195,0.135
243,37.0,105.0,-580.0,-0.0001,-0.0001,0.0,0.082,0.196,0.142
244,34.0,103.0,-571.0,-0.0001,0.0,0.0,0.069,0.192,0.13
245,42.0,117.0,-577.0,0.0,-0.0001,0.0,0.079,0.184,0.132
246,30.0,102.0,-573.0,0.0,0.0,0.0,0.082,0.204,0.133
247,40.0,102.0,-579.0,0.0,0.0,0.0,0.091,0.204,0.135
248,30.0,108.0,-580.0,-0.0001,0.0001,0.0,0.084,0.192,0.13
249,36.0,112.0,-559.0,-0.0001,0.0004,0.0,0.084,0.21,0.118
250,42.0,105.0,-574.0,-0.0003,0.0011,-0.0001,0.079,0.21,0.123
251,43.0,114.0,-565.0,-0.0019,0.0019,-0.0003,0.087,0.222,0.12
252,37.0,105.0,-576.0,-0.0037,0.0023,-0.0005,0.076,0.21,0.12
253,39.0,103.0,-574.0,-0.0038,0.002,-0.0006,0.078,0.213,0.118
254,36.0,105.0,-570.0,-0.0037,0.0021000000000000003,-0.0007,0.084,0.211,0.123
255,36.0,109.0,-585.0,-0.0035,0.0015,-0.0007,0.079,0.223,0.127
256,31.0,108.0,-574.0,-0.0027,0.0009,-0.0005,0.084,0.216,0.126
257,31.0,112.0,-573.0,-0.0016,0.0004,-0.0002,0.09,0.214,0.124
258,36.0,99.0,-574.0,-0.0008,0.0002,0.0,0.091,0.208,0.136
259,39.0,111.0,-570.0,-0.0002,0.0,0.0,0.096,0.205,0.13
260,37.0,103.0,-576.0,0.0,-0.0003,0.0,0.091,0.207,0.13
261,36.0,103.0,-577.0,0.0,-0.0003,0.0,0.087,0.202,0.129
262,34.0,102.0,-574.0,0.0,-0.0004,0.0,0.096,0.195,0.129
263,37.0,99.0,-568.0,0.0,-0.0004,0.0,0.093,0.198,0.127
264,36.0,103.0,-568.0,0.0,-0.0003,0.0001,0.106,0.199,0.12
265,33.0,109.0,-571.0,0.0,-0.0002,0.0001,0.087,0.204,0.124
266,34.0,106.0,-573.0,-0.0001,-0.0001,0.0001,0.094,0.198,0.126
267,34.0,109.0,-568.0,0.0,-0.0002,0.0001,0.103,0.202,0.132
268,34.0,103.0,-562.0,0.0,-0.0001,0.0002,0.088,0.201,0.136
269,37.0,105.0,-568.0,0.0,-0.0002,0.0004,0.093,0.201,0.133
270,33.0,94.0,-571.0,0.0004,-0.0004,0.0004,0.094,0.21,0.132
271,27.0,103.0,-573.0,0.0007,-0.0006,0.0004,0.097,0.199,0.136
272,31.0,111.0,-567.0,0.0004,-0.0007,0.0002,0.102,0.205,0.124
273,34.0,108.0,-567.0,0.0,-0.0005,0.0001,0.085,0.21,0.129
274,27.0,103.0,-571.0,0.0,-0.0003,0.0001,0.091,0.207,0.13
275,39.0,105.0,-571.0,0.0,-0.0004,0.0001,0.087,0.193,0.127
276,34.0,90.0,-577.0,0.0,-0.0004,0.0002,0.082,0.207,0.126
277,33.0,100.0,-573.0,0.0002,-0.0006,0.0002,0.097,0.202,0.139
278,31.0,114.0,-571.0,0.0001,-0.0006,0.0,0.097,0.199,0.124
279,36.0,114.0,-571.0,0.0,-0.0009,0.0,0.09,0.198,0.129
280,34.0,109.0,-571.0,0.0001,-0.0012,-0.0001,0.094,0.198,0.133
281,39.0,105.0,-573.0,0.0005,-0.0012,0.0,0.09,0.205,0.136
282,33.0,106.0,-570.0,0.0004,-0.0009,0.0,0.091,0.195,0.144
283,31.0,106.0,-580.0,0.0,-0.0004,0.0,0.085,0.196,0.139
284,25.0,114.0,-580.0,0.0,-0.0002,0.0,0.087,0.207,0.126
285,31.0,100.0,-571.0,0.0,-0.0002,0.0,0.09,0.205,0.132
286,27.0,102.0,-562.0,0.0,-0.0004,0.0,0.087,0.196,0.13
287,31.0,106.0,-577.0,0.0,-0.0005,0.0,0.09,0.208,0.13
288,28.0,102.0,-586.0,0.0,-0.0004,0.0,0.091,0.199,0.127
289,37.0,123.0,-567.0,0.0001,-0.0003,0.0,0.088,0.193,0.13
290,34.0,106.0,-564.0,0.0001,-0.0004,0.0,0.088,0.202,0.142
291,33.0,111.0,-576.0,0.0,-0.0003,0.0,0.079,0.202,0.135
292,34.0,106.0,-574.0,0.0,0.0,0.0,0.088,0.199,0.138
293,39.0,103.0,-568.0,-0.0001,0.0,0.0,0.084,0.205,0.136
294,37.0,106.0,-571.0,-0.0001,0.0,0.0,0.087,0.202,0.13
295,40.0,103.0,-571.0,0.0,-0.0004,0.0,0.085,0.202,0.138
296,39.0,99.0,-564.0,0.0004,-0.0005,0.0,0.079,0.199,0.136
297,36.0,102.0,-565.0,0.0002,-0.0005,-0.0002,0.082,0.198,0.133
298,42.0,112.0,-571.0,0.0003,-0.0007,-0.0002,0.076,0.198,0.13
299,39.0,103.0,-573.0,0.0004,-0.0006,-0.0002,0.073,0.195,0.132
300,37.0,99.0,-571.0,0.0002,-0.0007,0.0,0.066,0.205,0.135
301,37.0,108.0,-568.0,0.0,-0.0002,0.0,0.078,0.207,0.139
302,37.0,102.0,-576.0,-0.0002,0.0002,0.0,0.073,0.205,0.135
303,33.0,102.0,-564.0,-0.0003,0.0004,0.0,0.072,0.21,0.144
304,,,,-0.0003,0.0003,0.0,0.081,0.208,0.132
305,,,,-0.0004,0.0002,0.0,0.073,0.201,0.13
306,,,,-0.0002,-0.0001,0.0,0.064,0.195,0.135
307,,,,-0.0001,-0.0002,0.0,0.081,0.207,0.133
308,,,,-0.0001,-0.0001,0.0,0.078,0.21,0.13
309,,,,0.0,-0.0002,-0.0001,0.069,0.21,0.144
310,,,,0.0,-0.0002,-0.0001,0.067,0.207,0.121
311,,,,-0.0001,0.0,-0.0001,0.069,0.204,0.132
312,,,,-0.0001,-0.0002,0.0,0.069,0.204,0.135
313,,,,-0.0002,0.0,0.0,0.057,0.199,0.141
314,,,,-0.0003,0.0002,0.0,0.07,0.202,0.127
315,,,,-0.0005,0.0005,0.0,0.076,0.208,0.133
316,,,,-0.0004,0.0003,-0.0001,0.066,0.199,0.129
317,,,,-0.0001,-0.0001,-0.0001,0.066,0.192,0.123
318,,,,-0.0002,-0.0002,-0.0002,0.073,0.207,0.139
319,,,,-0.0007,0.0002,-0.0001,0.07,0.207,0.129
320,,,,-0.0004,0.0,-0.0002,0.072,0.207,0.126
321,,,,-0.0002,0.0,-0.0001,0.069,0.196,0.133
322,,,,-0.0002,0.0,0.0,0.066,0.204,0.136
323,,,,0.0,-0.0001,-0.0001,0.069,0.204,0.127
324,,,,0.0,-0.0003,0.0,0.073,0.195,0.132
325,,,,0.0,-0.0002,0.0,0.066,0.201,0.127
326,,,,0.0,-0.0004,0.0,0.06,0.208,0.139
327,,,,-0.0002,-0.0004,0.0,0.073,0.201,0.132
328,,,,-0.0002,0.0,0.0,0.073,0.208,0.126
329,,,,-0.0002,0.0,-0.0001,0.075,0.207,0.135
330,,,,-0.0005,0.0,-0.0002,0.066,0.201,0.138
331,,,,-0.0011,0.0005,-0.0002,0.072,0.21,0.139
332,,,,-0.0009,0.0003,-0.0001,0.067,0.193,0.138
333,,,,-0.0002,-0.0002,-0.0002,0.069,0.199,0.136
334,,,,0.0002,-0.0004,-0.0001,0.075,0.193,0.129
335,,,,0.0002,-0.0003,0.0,0.075,0.205,0.13
336,,,,0.0,0.0,0.0,0.069,0.207,0.132
337,,,,-0.0001,0.0,0.0,0.072,0.201,0.121
338,,,,-0.0002,0.0,0.0,0.07,0.204,0.13
339,,,,-0.0003,0.0002,0.0,0.082,0.21,0.135
340,,,,-0.0002,0.0001,0.0,0.076,0.216,0.124
341,,,,-0.0001,0.0,0.0,0.064,0.201,0.132
342,,,,0.0,-0.0002,0.0,0.073,0.207,0.133
343,,,,0.0,-0.0002,0.0,0.067,0.205,0.124
344,,,,-0.0001,-0.0001,0.0,0.066,0.211,0.141
345,,,,-0.0001,-0.0002,0.0,0.066,0.208,0.126
346,,,,-0.0001,-0.0002,0.0,0.075,0.201,0.132
347,,,,0.0,-0.0002,0.0,0.07,0.211,0.132
348,,,,0.0,-0.0003,-0.0001,0.07,0.211,0.133
349,,,,-0.0001,-0.0003,-0.0001,0.073,0.205,0.132
350,,,,-0.0002,0.0,-0.0002,0.075,0.21,0.145
351,,,,0.0,-0.0001,-0.0001,0.066,0.202,0.133
352,,,,-0.0001,-0.0002,0.0,0.073,0.208,0.133
353,,,,-0.0002,-0.0001,0.0,0.067,0.204,0.129
354,,,,-0.0002,0.0,0.0,0.063,0.198,0.135
355,,,,-0.0001,-0.0002,0.0,0.07,0.214,0.132
356,,,,0.0,-0.0002,0.0,0.081,0.207,0.132
357,,,,0.0,-0.0002,-0.0001,0.064,0.202,0.13
358,,,,-0.0002,0.0,0.0,0.061,0.208,0.133
359,,,,-0.0002,0.0,0.0,0.07,0.202,0.141
360,,,,-0.0002,0.0,0.0,0.064,0.207,0.132
361,,,,-0.0002,0.0001,-0.0001,0.067,0.21,0.129
362,,,,-0.0002,0.0,0.0,0.069,0.199,0.139
363,,,,0.0,-0.0002,0.0,0.064,0.201,0.141
364,,,,0.0002,-0.0005,0.0,0.07,0.21,0.129
365,,,,0.0006,-0.0009,0.0,0.075,0.201,0.135
366,,,,0.0006,-0.0009,0.0,0.075,0.204,0.13
367,,,,0.0004,-0.0007,0.0,0.073,0.207,0.132
368,,,,0.0004,-0.0007,0.0,0.072,0.207,0.136
369,,,,-0.0001,-0.0002,-0.0001,0.07,0.21,0.126
370,,,,-0.0003,0.0,-0.0002,0.063,0.211,0.135
371,,,,-0.0005,0.0003,-0.0001,0.076,0.21,0.139
372,,,,-0.0004,0.0,-0.0002,0.063,0.207,0.127
373,,,,-0.0004,0.0,-0.0002,0.072,0.204,0.133
374,,,,-0.0003,-0.0001,-0.0002,0.07,0.195,0.13
375,,,,-0.0001,-0.0001,0.0,0.069,0.201,0.133
376,,,,-0.0001,-0.0001,0.0,0.07,0.205,0.136
377,,,,-0.0002,0.0,0.0,0.07,0.201,0.135
378,,,,-0.0002,0.0,0.0,0.066,0.205,0.13
379,,,,-0.0001,-0.0001,0.0,0.073,0.201,0.136
380,,,,0.0,-0.0002,0.0,0.069,0.207,0.141
381,,,,0.0,-0.0003,0.0,0.072,0.204,0.133
382,,,,0.0,-0.0003,0.0,0.075,0.213,0.127
383,,,,0.0001,-0.0004,0.0,0.079,0.205,0.136
384,,,,0.0001,-0.0004,0.0,0.064,0.202,0.133
385,,,,0.0,-0.0004,0.0,0.07,0.21,0.123
386,,,,0.0,-0.0002,0.0,0.072,0.204,0.132
387,,,,-0.0001,0.0,0.0,0.081,0.205,0.126
388,,,,-0.0003,0.0002,0.0,0.07,0.207,0.13
389,,,,-0.0003,0.0001,0.0001,0.067,0.202,0.135
390,,,,-0.0002,0.0,0.0,0.06,0.204,0.133
391,,,,-0.0001,-0.0002,-0.0001,0.069,0.208,0.132
392,,,,-0.0001,-0.0002,0.0,0.066,0.216,0.129
393,,,,0.0,-0.0002,-0.0001,0.066,0.205,0.126
394,,,,0.0,-0.0002,0.0,0.075,0.199,0.132
395,,,,0.0,-0.0002,0.0,0.075,0.207,0.135
396,,,,0.0,-0.0003,0.0,0.075,0.205,0.139
397,,,,-0.0002,-0.0001,0.0,0.063,0.204,0.135
398,,,,-0.0003,0.0,-0.0001,0.067,0.208,0.13
399,,,,-0.0003,0.0001,0.0,0.067,0.211,0.136
400,,,,-0.0002,0.0,0.0,0.069,0.204,0.132
401,,,,-0.0002,0.0,0.0,0.07,0.21,0.129
402,,,,-0.0001,-0.0002,0.0,0.058,0.204,0.133
403,,,,0.0,-0.0002,0.0,0.066,0.202,0.13
404,,,,0.0001,-0.0004,0.0,0.07,0.216,0.132
405,,,,0.0001,-0.0003,0.0,0.075,0.208,0.135
406,,,,0.0001,-0.0002,0.0,0.066,0.202,0.136
407,,,,0.0,-0.0002,0.0,0.063,0.208,0.132
408,,,,-0.0002,0.0,0.0,0.073,0.21,0.127
409,,,,-0.0002,0.0002,0.0,0.073,0.205,0.133
410,,,,-0.0002,0.0,0.0,0.072,0.207,0.136
411,,,,-0.0001,-0.0002,-0.0001,0.073,0.21,0.126
412,,,,0.0,-0.0004,-0.0002,0.069,0.21,0.136
413,,,,0.0,-0.0004,-0.0001,0.073,0.202,0.127
414,,,,0.0,-0.0004,0.0,0.07,0.207,0.135
415,,,,0.0,-0.0004,0.0,0.063,0.211,0.135
416,,,,0.0,-0.0003,-0.0001,0.072,0.202,0.135
417,,,,0.0,-0.0003,0.0,0.07,0.207,0.126
418,,,,-0.0002,0.0,0.0,0.07,0.196,0.13
419,,,,-0.0002,0.0,0.0,0.067,0.198,0.133
420,,,,-0.0002,0.0,0.0,0.066,0.208,0.133
421,,,,-0.0003,0.0002,0.0,0.07,0.21,0.138
422,,,,-0.0002,0.0001,0.0001,0.06,0.205,0.133
423,,,,-0.0001,0.0,0.0,0.063,0.198,0.132
424,,,,-0.0001,0.0,0.0,0.07,0.207,0.133
425,,,,-0.0002,0.0,0.0,0.069,0.201,0.13
426,,,,-0.0002,0.0,0.0,0.066,0.21,0.135
427,,,,-0.0002,0.0,0.0,0.067,0.205,0.132
428,,,,-0.0002,0.0,0.0,0.066,0.204,0.124
429,,,,-0.0002,-0.0002,0.0,0.064,0.202,0.133
430,,,,-0.0002,-0.0001,-0.0001,0.072,0.205,0.141
431,,,,-0.0003,0.0,-0.0001,0.072,0.208,0.126
432,,,,-0.0003,0.0,-0.0001,0.07,0.201,0.138
433,,,,-0.0003,0.0,0.0,0.064,0.205,0.136
434,,,,-0.0002,-0.0002,0.0,0.076,0.21,0.141
435,,,,0.0,-0.0003,0.0,0.076,0.213,0.135
436,,,,-0.0001,-0.0001,-0.0001,0.064,0.207,0.133
437,,,,-0.0002,0.0002,0.0,0.061,0.21,0.13
438,,,,-0.0002,0.0002,0.0,0.064,0.205,0.126
439,,,,0.0,-0.0001,0.0,0.064,0.201,0.129
440,,,,0.0002,-0.0002,0.0,0.073,0.202,0.136
441,,,,0.0004,-0.0002,0.0,0.07,0.204,0.124
442,,,,0.0004,0.0,0.0,0.069,0.201,0.135
443,,,,0.0007,0.0,0.0002,0.06,0.198,0.136
444,,,,0.0006,0.0,0.0002,0.066,0.204,0.139
445,,,,-0.0002,0.0004,0.0,0.064,0.213,0.133
446,,,,-0.0002,0.0007,-0.0001,0.07,0.201,0.127
447,,,,,,,0.069,0.202,0.135
448,,,,,,,0.07,0.199,0.133
449,,,,,,,0.064,0.214,0.145
450,,,,,,,0.07,0.21,0.129
451,,,,,,,0.063,0.208,0.133
452,,,,,,,0.064,0.217,0.13
453,,,,,,,0.055,0.208,0.138
454,,,,,,,0.067,0.202,0.127
455,,,,,,,0.063,0.208,0.138
456,,,,,,,0.058,0.205,0.13
457,,,,,,,0.067,0.207,0.13
458,,,,,,,0.064,0.205,0.135
459,,,,,,,0.064,0.205,0.139
460,,,,,,,0.072,0.205,0.141
461,,,,,,,0.069,0.198,0.132
462,,,,,,,0.061,0.217,0.138
463,,,,,,,0.072,0.204,0.127
464,,,,,,,0.066,0.198,0.133
465,,,,,,,0.061,0.207,0.129
466,,,,,,,0.069,0.204,0.132
467,,,,,,,0.07,0.208,0.136
468,,,,,,,0.072,0.205,0.132
469,,,,,,,0.072,0.21,0.133
470,,,,,,,0.07,0.202,0.129
471,,,,,,,0.063,0.204,0.138
472,,,,,,,0.058,0.202,0.133
473,,,,,,,0.067,0.204,0.135
474,,,,,,,0.066,0.202,0.133
475,,,,,,,0.073,0.205,0.127
476,,,,,,,0.064,0.208,0.132
477,,,,,,,0.066,0.204,0.136
478,,,,,,,0.064,0.204,0.13
479,,,,,,,0.067,0.208,0.135
480,,,,,,,0.072,0.213,0.142
481,,,,,,,0.067,0.205,0.132
482,,,,,,,0.063,0.205,0.139
483,,,,,,,0.069,0.208,0.124
484,,,,,,,0.067,0.204,0.13
485,,,,,,,0.064,0.192,0.136
486,,,,,,,0.072,0.208,0.123
487,,,,,,,0.067,0.205,0.136
488,,,,,,,0.067,0.199,0.127
489,,,,,,,0.066,0.202,0.133
490,,,,,,,0.069,0.201,0.127
491,,,,,,,0.07,0.207,0.133
492,,,,,,,0.067,0.201,0.133
493,,,,,,,0.066,0.204,0.135
494,,,,,,,0.06,0.204,0.126
495,,,,,,,0.07,0.193,0.13
496,,,,,,,0.064,0.196,0.138
497,,,,,,,0.079,0.204,0.132
498,,,,,,,0.063,0.199,0.129
499,,,,,,,0.067,0.208,0.142
500,,,,,,,0.067,0.207,0.133
501,,,,,,,0.069,0.205,0.129
502,,,,,,,0.069,0.198,0.126
503,,,,,,,0.063,0.213,0.136
504,,,,,,,0.069,0.195,0.127
505,,,,,,,0.064,0.207,0.126
506,,,,,,,0.069,0.208,0.141
507,,,,,,,0.064,0.213,0.135
508,,,,,,,0.067,0.207,0.136
509,,,,,,,0.069,0.199,0.135
510,,,,,,,0.07,0.201,0.132
511,,,,,,,0.066,0.202,0.123
512,,,,,,,0.069,0.216,0.141
513,,,,,,,0.07,0.196,0.126
514,,,,,,,0.064,0.205,0.136
515,,,,,,,0.06,0.202,0.138
516,,,,,,,0.07,0.199,0.13
517,,,,,,,0.066,0.208,0.13
518,,,,,,,0.07,0.204,0.127
519,,,,,,,0.069,0.198,0.13
520,,,,,,,0.06,0.201,0.133
521,,,,,,,0.067,0.201,0.13
522,,,,,,,0.078,0.205,0.138
523,,,,,,,0.058,0.202,0.129
524,,,,,,,0.069,0.198,0.138
525,,,,,,,0.07,0.199,0.136
526,,,,,,,0.064,0.195,0.133
527,,,,,,,0.072,0.204,0.151
528,,,,,,,0.067,0.193,0.127
529,,,,,,,0.067,0.207,0.127
530,,,,,,,0.069,0.204,0.139
531,,,,,,,0.066,0.211,0.132
532,,,,,,,0.073,0.205,0.136
533,,,,,,,0.069,0.195,0.138
534,,,,,,,0.06,0.201,0.124
535,,,,,,,0.07,0.207,0.136
536,,,,,,,0.069,0.21,0.138
537,,,,,,,0.07,0.202,0.136
538,,,,,,,0.06,0.21,0.138
539,,,,,,,0.072,0.202,0.132
540,,,,,,,0.066,0.202,0.121
541,,,,,,,0.063,0.199,0.13
542,,,,,,,0.069,0.202,0.136
543,,,,,,,0.067,0.208,0.139
544,,,,,,,0.07,0.205,0.139
545,,,,,,,0.067,0.216,0.13
546,,,,,,,0.075,0.207,0.127
547,,,,,,,0.06,0.208,0.132
548,,,,,,,0.075,0.202,0.124
