magX[mG],magY[mG],magZ[mG],gyroX[mdps],gyroY[mdps],gyroZ[mdps],accX[mg],accY[mg],accZ[mg],hh:mm:ss.ms
364,-183,-477,0,-11,-19,129,-972,68,0:53:22
364,-183,-477,0,-11,-19,129,-972,68,0:53:22
364,-183,-477,0,-11,-19,129,-972,68,0:53:22
364,-183,-477,0,-11,-19,129,-972,68,0:53:22
364,-183,-477,0,-11,-19,129,-972,68,0:53:22
364,-183,-477,0,-11,-19,129,-972,68,0:53:22
364,-183,-477,0,-11,-19,129,-972,68,0:53:22
364,-183,-477,0,-11,-19,129,-972,68,0:53:22
364,-183,-477,0,-11,-19,129,-972,68,0:53:22
364,-183,-477,0,-11,-19,129,-972,68,0:53:22
364,-183,-477,0,-11,-19,129,-972,68,0:53:22
364,-183,-477,0,-11,-19,129,-972,68,0:53:22
364,-183,-477,0,-11,-19,129,-972,68,0:53:22
364,-183,-477,0,-11,-19,129,-972,68,0:53:22
364,-183,-477,0,-11,-19,129,-972,68,0:53:22
364,-183,-477,0,-11,-19,129,-972,68,0:53:22
364,-183,-477,0,-11,-19,129,-972,68,0:53:22
364,-183,-477,0,-11,-19,129,-972,68,0:53:22
364,-183,-477,0,-11,-19,129,-972,68,0:53:22
364,-183,-477,0,-11,-19,129,-972,68,0:53:22
364,-183,-477,0,-11,-19,129,-972,68,0:53:22
364,-183,-477,0,-11,-19,129,-972,68,0:53:22
364,-183,-477,0,-11,-19,129,-972,68,0:53:22
364,-183,-477,0,-11,-19,129,-972,68,0:53:22
364,-183,-477,0,-11,-19,129,-972,68,0:53:22
364,-183,-477,0,-11,-19,129,-972,68,0:53:22
364,-183,-477,0,-11,-19,129,-972,68,0:53:22
364,-183,-477,0,-11,-19,129,-972,68,0:53:22
364,-183,-477,0,-11,-19,129,-972,68,0:53:22
364,-183,-477,0,-11,-19,129,-972,68,0:53:22
364,-183,-477,0,-11,-19,129,-972,68,0:53:22
364,-183,-477,0,-11,-19,129,-972,68,0:53:22
364,-183,-477,0,-11,-19,129,-972,68,0:53:22
364,-183,-477,0,-11,-19,129,-972,68,0:53:22
364,-183,-477,0,-11,-19,129,-972,68,0:53:22
364,-183,-477,0,-11,-19,129,-972,68,0:53:22
364,-183,-477,0,-11,-19,129,-972,68,0:53:22
364,-183,-477,0,-11,-19,129,-972,68,0:53:22
364,-183,-477,0,-11,-19,129,-972,68,0:53:22
364,-183,-477,0,-11,-19,129,-972,68,0:53:22
364,-183,-477,0,-11,-19,129,-972,68,0:53:22
364,-183,-477,0,-11,-19,129,-972,68,0:53:22
364,-183,-477,0,-11,-19,129,-972,68,0:53:22
364,-183,-477,0,-11,-19,129,-972,68,0:53:22
364,-183,-477,0,-11,-19,129,-972,68,0:53:22
364,-183,-477,0,-11,-19,129,-972,68,0:53:22
364,-183,-477,0,-11,-19,129,-972,68,0:53:22
364,-183,-477,0,-11,-19,129,-972,68,0:53:22
364,-183,-477,0,-11,-19,129,-972,68,0:53:22
364,-183,-477,0,-11,-19,129,-972,68,0:53:22
364,-183,-477,0,-11,-19,129,-972,68,0:53:22
364,-183,-477,0,-11,-19,129,-972,68,0:53:22
364,-183,-477,0,-11,-19,129,-972,68,0:53:22
364,-183,-477,0,-11,-17,126,-974,73,0:53:22
369,-202,-475,1,-16,-16,126,-974,73,0:53:22
375,-198,-460,1,-14,-16,125,-972,75,0:53:22
370,-201,-486,3,-16,-17,131,-971,70,0:53:22
351,-213,-474,4,-19,-14,131,-971,73,0:53:22
381,-198,-477,5,-28,-12,134,-975,74,0:53:22
381,-198,-477,5,-20,-13,133,-977,69,0:53:22
369,-214,-474,0,-19,-15,129,-975,67,0:53:22
351,-192,-472,0,-21,-16,130,-971,68,0:53:22
351,-192,-472,0,-20,-14,133,-972,68,0:53:22
372,-199,-487,-3,-25,-13,130,-972,70,0:53:22
372,-202,-487,-2,-28,-10,131,-972,70,0:53:22
373,-196,-466,-1,-20,-12,133,-974,68,0:53:22
378,-195,-498,-2,-18,-15,135,-976,68,0:53:22
351,-202,-486,0,-15,-16,136,-973,70,0:53:22
355,-213,-472,0,-14,-13,131,-971,67,0:53:22
381,-198,-472,2,-21,-11,131,-969,66,0:53:22
378,-211,-472,3,-18,-14,131,-972,67,0:53:22
360,-205,-480,-1,-16,-14,132,-975,69,0:53:22
363,-199,-480,-2,-18,-11,136,-975,71,0:53:22
364,-189,-478,-4,-15,-11,133,-974,69,0:53:22
355,-216,-480,-4,-11,-14,133,-974,69,0:53:22
364,-193,-450,-4,-14,-15,133,-976,69,0:53:22
373,-202,-475,0,-14,-14,131,-977,68,0:53:22
373,-202,-475,4,-16,-13,127,-973,66,0:53:22
375,-184,-475,7,-22,-9,128,-972,68,0:53:22
360,-195,-478,7,-23,-9,134,-974,70,0:53:22
381,-210,-481,2,-16,-12,134,-971,64,0:53:22
364,-189,-489,0,-15,-11,134,-972,63,0:53:22
361,-205,-459,0,-9,-10,134,-973,68,0:53:22
372,-195,-484,2,-7,-11,133,-972,70,0:53:22
370,-214,-481,3,-7,-11,137,-972,71,0:53:22
349,-184,-478,4,-3,-11,138,-972,67,0:53:22
360,-192,-459,4,7,-11,136,-969,63,0:53:23
357,-204,-478,5,9,-11,135,-969,63,0:53:23
360,-177,-463,4,4,-10,132,-973,67,0:53:23
346,-198,-477,3,1,-10,128,-975,71,0:53:23
367,-199,-481,2,4,-9,128,-970,63,0:53:23
366,-204,-490,1,9,-9,128,-970,63,0:53:23
366,-204,-490,2,4,-9,129,-970,65,0:53:23
369,-211,-471,2,2,-10,128,-970,65,0:53:23
367,-202,-486,2,8,-12,129,-973,63,0:53:23
364,-208,-480,2,7,-13,128,-973,63,0:53:23
361,-189,-477,2,2,-12,130,-972,68,0:53:23
366,-210,-468,2,4,-11,128,-973,64,0:53:23
361,-190,-462,2,7,-11,127,-974,63,0:53:23
366,-196,-477,0,6,-12,131,-972,68,0:53:23
378,-201,-483,0,11,-14,133,-970,64,0:53:23
366,-190,-471,1,9,-14,132,-972,62,0:53:23
364,-208,-472,1,7,-14,130,-973,67,0:53:23
373,-205,-483,1,4,-11,132,-973,70,0:53:23
391,-205,-475,1,2,-11,135,-974,71,0:53:23
376,-199,-454,0,2,-11,134,-976,68,0:53:23
367,-189,-481,-2,7,-12,133,-974,66,0:53:23
360,-196,-478,-6,7,-13,134,-968,69,0:53:23
363,-204,-474,-4,3,-14,134,-975,74,0:53:23
361,-196,-475,-2,-2,-13,134,-975,74,0:53:23
361,-196,-475,-2,-4,-11,132,-973,76,0:53:23
363,-216,-486,-2,-7,-10,136,-968,79,0:53:23
376,-217,-465,0,-5,-9,138,-968,82,0:53:23
373,-181,-453,2,-7,-8,138,-971,82,0:53:23
361,-202,-489,1,-6,-8,139,-972,77,0:53:23
354,-198,-504,-2,-2,-8,139,-971,74,0:53:23
376,-211,-477,-1,2,-10,137,-967,76,0:53:23
384,-216,-492,0,4,-10,135,-970,75,0:53:23
382,-195,-466,0,-5,-9,136,-973,74,0:53:23
366,-213,-501,-1,-10,-9,136,-973,76,0:53:23
382,-207,-493,-2,-14,-7,131,-974,73,0:53:23
375,-199,-475,-4,-18,-7,126,-973,76,0:53:23
361,-208,-484,-11,-59,-9,130,-971,86,0:53:23
360,-201,-484,-4,-6,-9,137,-970,92,0:53:23
355,-204,-469,0,-1,-9,140,-966,84,0:53:23
355,-204,-469,-1,2,-10,147,-968,71,0:53:23
361,-198,-475,0,5,-9,144,-971,76,0:53:23
375,-208,-478,3,4,-9,144,-971,76,0:53:23
372,-195,-478,0,-10,-14,140,-973,77,0:53:23
367,-204,-477,-8,-45,-19,138,-968,73,0:53:23
354,-193,-490,-6,-38,-17,129,-967,82,0:53:23
354,-205,-475,2,-9,-14,127,-975,69,0:53:23
354,-207,-463,6,20,-15,137,-976,51,0:53:23
357,-199,-480,3,37,-17,140,-975,57,0:53:23
373,-207,-468,1,36,-17,139,-974,68,0:53:23
357,-204,-474,2,30,-14,137,-969,81,0:53:23
363,-190,-487,3,32,-9,131,-970,86,0:53:23
373,-220,-480,7,39,-4,124,-977,84,0:53:24
346,-198,-496,8,40,-4,123,-982,73,0:53:24
376,-201,-489,9,46,-7,119,-977,62,0:53:24
376,-201,-489,5,44,-11,109,-967,61,0:53:24
373,-195,-495,8,24,-10,97,-969,67,0:53:24
370,-195,-478,11,-14,-9,86,-982,67,0:53:24
366,-201,-480,12,-53,-11,84,-982,64,0:53:24
372,-196,-483,9,-68,-23,106,-973,65,0:53:24
373,-199,-493,7,-70,-32,106,-973,65,0:53:24
370,-214,-474,14,-74,-35,134,-971,67,0:53:24
384,-201,-481,11,-84,-31,153,-971,70,0:53:24
378,-193,-478,11,-81,-22,162,-968,75,0:53:24
376,-207,-469,9,-58,-11,178,-961,81,0:53:24
352,-207,-486,6,-17,-4,201,-956,84,0:53:24
364,-204,-463,-2,23,-4,206,-956,75,0:53:24
373,-181,-462,-12,39,-5,189,-966,75,0:53:24
352,-205,-466,-13,33,-7,163,-976,81,0:53:24
361,-198,-454,-10,27,-11,137,-977,79,0:53:24
379,-207,-460,-2,30,-17,119,-969,77,0:53:24
355,-187,-474,0,10,-23,115,-966,52,0:53:24
361,-198,-478,4,-22,-19,97,-970,76,0:53:24
369,-204,-477,9,-52,-17,86,-978,110,0:53:24
363,-210,-490,6,-64,-18,99,-983,84,0:53:24
363,-210,-490,3,-68,-18,111,-982,76,0:53:24
358,-204,-468,-2,-65,-17,133,-972,72,0:53:24
364,-192,-477,-8,-61,-18,139,-972,70,0:53:24
363,-217,-478,-7,-51,-20,139,-972,70,0:53:24
367,-199,-477,2,-38,-22,147,-974,72,0:53:24
376,-195,-486,11,-28,-22,149,-966,76,0:53:24
366,-193,-475,18,-23,-20,150,-957,71,0:53:24
366,-193,-475,23,-20,-18,154,-960,67,0:53:24
366,-196,-471,25,-10,-18,155,-968,65,0:53:24
351,-187,-498,24,6,-21,153,-970,67,0:53:24
367,-214,-462,26,19,-26,147,-971,72,0:53:24
363,-207,-472,28,27,-29,143,-970,73,0:53:24
354,-193,-459,34,25,-24,140,-968,77,0:53:24
367,-202,-465,37,18,-18,134,-967,80,0:53:24
346,-202,-466,37,16,-14,132,-968,80,0:53:24
346,-202,-466,30,14,-11,128,-975,77,0:53:24
379,-199,-468,23,14,-11,125,-979,76,0:53:24
375,-198,-471,16,24,-11,128,-978,73,0:53:24
357,-205,-468,14,36,-9,138,-971,67,0:53:24
370,-193,-462,16,51,-4,134,-971,60,0:53:24
370,-193,-462,19,33,4,134,-971,60,0:53:24
351,-196,-477,18,-2,7,114,-978,76,0:53:24
357,-208,-472,7,24,2,111,-975,66,0:53:24
348,-210,-472,3,127,0,125,-975,27,0:53:24
364,-199,-469,9,142,0,123,-984,8,0:53:24
361,-211,-472,12,87,2,107,-983,22,0:53:24
373,-204,-474,11,3,4,82,-983,54,0:53:24
360,-196,-472,9,-36,2,79,-981,58,0:53:25
360,-196,-472,11,-32,0,99,-972,43,0:53:25
382,-213,-472,9,-12,-4,120,-971,30,0:53:25
379,-199,-477,7,-11,-5,133,-976,27,0:53:25
397,-208,-472,2,-23,-4,138,-975,41,0:53:25
384,-189,-490,3,-20,-4,142,-973,62,0:53:25
367,-211,-484,2,0,-6,140,-973,61,0:53:25
366,-189,-472,1,4,-7,140,-972,54,0:53:25
372,-201,-477,2,1,-6,143,-973,53,0:53:25
355,-196,-477,4,-9,-4,129,-972,60,0:53:25
360,-195,-481,0,-11,-7,129,-972,60,0:53:25
370,-198,-474,0,-15,-11,123,-973,58,0:53:25
366,-187,-478,2,-21,-10,127,-978,53,0:53:25
352,-199,-474,4,-25,-9,134,-977,52,0:53:25
355,-211,-466,6,-25,-7,136,-971,57,0:53:25
369,-193,-462,8,-29,-7,135,-970,61,0:53:25
369,-193,-462,8,-27,-7,133,-971,59,0:53:25
370,-202,-475,4,-19,-7,138,-969,59,0:53:25
370,-204,-457,4,-8,-7,145,-968,63,0:53:25
357,-193,-457,8,-2,-5,147,-968,64,0:53:25
360,-213,-468,11,7,-5,146,-965,62,0:53:25
367,-214,-468,14,14,-4,143,-964,65,0:53:25
367,-219,-468,16,13,-1,142,-970,70,0:53:25
367,-192,-468,18,13,-1,141,-975,65,0:53:25
367,-199,-499,21,11,-1,136,-973,61,0:53:25
388,-201,-462,26,7,-1,132,-971,62,0:53:25
363,-208,-475,23,8,-1,141,-975,63,0:53:25
355,-189,-459,23,11,1,141,-975,63,0:53:25
363,-192,-475,31,8,5,139,-965,58,0:53:25
363,-192,-475,35,11,7,136,-965,54,0:53:25
360,-202,-471,32,25,10,130,-967,53,0:53:25
360,-217,-477,31,25,12,122,-962,54,0:53:25
358,-192,-465,21,28,13,119,-957,53,0:53:25
378,-207,-495,10,26,17,120,-959,55,0:53:25
372,-193,-478,58,44,26,122,-970,67,0:53:25
369,-201,-460,29,-4,32,92,-950,101,0:53:25
363,-204,-454,16,-23,32,95,-953,92,0:53:25
358,-205,-462,13,-17,28,118,-981,53,0:53:25
355,-198,-484,23,-18,25,108,-967,45,0:53:25
360,-198,-462,32,-42,30,111,-955,47,0:53:25
351,-195,-459,39,-61,33,115,-955,56,0:53:25
366,-195,-471,42,-76,37,115,-958,62,0:53:25
340,-223,-436,38,-85,40,120,-957,64,0:53:25
351,-195,-466,31,-85,47,128,-956,69,0:53:25
366,-201,-468,39,-96,55,142,-988,78,0:53:25
340,-204,-447,51,-123,61,142,-988,78,0:53:25
340,-204,-447,58,-142,62,141,-984,71,0:53:25
358,-213,-453,58,-148,60,137,-963,57,0:53:25
354,-193,-430,51,-165,56,138,-953,55,0:53:25
354,-193,-430,61,-187,63,147,-946,49,0:53:25
357,-222,-465,67,-219,76,171,-945,32,0:53:25
358,-190,-456,66,-228,77,178,-954,17,0:53:26
324,-201,-457,32,-240,53,173,-972,21,0:53:26
333,-208,-456,-7,-266,39,177,-963,49,0:53:26
330,-204,-421,-22,-322,49,203,-956,64,0:53:26
324,-193,-450,3,-367,77,254,-974,56,0:53:26
330,-201,-438,54,-296,78,283,-983,42,0:53:26
325,-189,-433,34,-337,84,238,-989,133,0:53:26
316,-180,-438,-11,-392,59,234,-971,156,0:53:26
351,-205,-432,-9,-322,35,272,-947,77,0:53:26
307,-210,-423,28,-209,30,276,-939,54,0:53:26
319,-186,-429,44,-163,37,280,-929,42,0:53:26
319,-204,-406,53,-154,49,295,-932,65,0:53:26
319,-204,-406,26,-147,56,306,-978,101,0:53:26
316,-201,-412,29,-122,61,323,-990,96,0:53:26
318,-189,-402,44,-70,42,331,-933,50,0:53:26
313,-177,-421,32,-81,13,286,-887,39,0:53:26
310,-189,-379,45,-116,-9,240,-897,57,0:53:26
324,-181,-423,21,-143,-5,214,-904,60,0:53:26
324,-193,-415,56,-133,-14,237,-910,48,0:53:26
325,-198,-418,100,-130,-18,272,-920,57,0:53:26
313,-198,-409,100,-147,-35,279,-902,75,0:53:26
312,-216,-399,147,-149,-55,308,-949,84,0:53:26
312,-207,-396,184,-128,-74,315,-983,71,0:53:26
303,-199,-412,205,-152,-95,295,-956,66,0:53:26
303,-199,-412,255,-189,-123,284,-947,80,0:53:26
324,-210,-384,193,-187,-147,294,-698,-153,0:53:26
330,-204,-388,206,-177,-170,303,-677,-198,0:53:26
316,-207,-391,207,-158,-195,311,-933,42,0:53:26
319,-202,-381,215,-117,-219,386,-989,81,0:53:26
324,-198,-375,199,-84,-240,390,-984,61,0:53:26
313,-214,-391,142,-7,-249,390,-984,61,0:53:26
313,-216,-364,174,-3,-254,375,-966,28,0:53:26
333,-231,-366,100,-63,-254,339,-969,59,0:53:26
343,-211,-369,86,-154,-305,324,-1030,131,0:53:26
348,-228,-349,134,-175,-389,318,-1088,210,0:53:26
351,-228,-358,-44,-94,-371,303,-1035,276,0:53:26
351,-228,-358,-214,-50,-361,329,-1000,286,0:53:26
342,-262,-343,-393,112,-266,379,-1028,188,0:53:26
358,-231,-345,-544,387,-151,395,-1074,-17,0:53:26
348,-244,-381,-737,639,-76,361,-1120,-135,0:53:26
361,-225,-400,-881,810,25,274,-1151,-120,0:53:26
379,-247,-397,-1024,812,133,143,-1136,-58,0:53:26
357,-220,-417,-1156,522,250,67,-1132,-10,0:53:26
366,-220,-450,-1124,161,301,20,-1190,32,0:53:26
358,-226,-478,-1080,-151,283,-66,-1234,78,0:53:26
363,-211,-462,-1048,-429,344,-165,-1188,112,0:53:26
372,-198,-489,-1090,-241,290,34,-1048,-38,0:53:26
354,-178,-495,-937,265,219,34,-1048,-38,0:53:26
355,-175,-501,-898,893,301,232,-1023,-151,0:53:26
381,-171,-550,-963,1366,330,355,-1030,-73,0:53:26
381,-171,-550,-882,1465,265,326,-994,35,0:53:26
387,-160,-546,-747,1386,216,189,-958,159,0:53:27
399,-142,-573,-707,1437,191,48,-948,239,0:53:27
393,-130,-612,-603,1370,101,-45,-876,173,0:53:27
424,-123,-634,-532,1145,21,-106,-771,176,0:53:27
432,-132,-624,-280,867,32,-134,-712,273,0:53:27
457,-112,-642,-7,627,63,-102,-683,272,0:53:27
460,-105,-654,133,480,72,-38,-676,248,0:53:27
471,-102,-651,272,363,66,30,-709,311,0:53:27
462,-115,-634,385,280,57,37,-655,348,0:53:27
466,-112,-655,456,219,45,30,-584,369,0:53:27
477,-115,-651,516,171,25,36,-589,414,0:53:27
459,-139,-612,493,114,63,26,-613,463,0:53:27
484,-142,-624,499,67,125,53,-727,554,0:53:27
484,-142,-624,526,37,198,51,-783,554,0:53:27
468,-150,-627,482,117,234,51,-783,554,0:53:27
468,-178,-639,305,129,211,79,-921,619,0:53:27
460,-172,-613,187,-44,231,121,-1095,697,0:53:27
492,-172,-609,247,9,226,134,-1220,648,0:53:27
480,-193,-619,52,602,43,127,-1095,603,0:53:27
474,-186,-618,119,763,-81,27,-608,727,0:53:27
495,-183,-619,71,354,23,-98,-294,674,0:53:27
504,-183,-627,163,-689,107,-168,-744,336,0:53:27
492,-171,-613,-92,-251,67,-232,-1598,29,0:53:27
493,-196,-609,-344,111,191,149,-1995,179,0:53:27
498,-168,-636,84,-683,-95,116,-1008,272,0:53:27
507,-199,-621,-506,-165,-317,-288,-106,5,0:53:27
504,-177,-627,-72,-757,-71,-2,-429,-5,0:53:27
477,-186,-616,809,-1444,53,315,-766,-110,0:53:27
477,-186,-616,634,-578,231,466,-1231,-307,0:53:27
490,-193,-633,296,-397,263,100,-1069,351,0:53:27
475,-217,-621,200,-732,65,-240,-668,290,0:53:27
463,-208,-606,242,-913,-81,-81,-738,80,0:53:27
444,-204,-597,340,-1025,-47,-81,-738,80,0:53:27
438,-216,-586,426,-1079,72,235,-943,6,0:53:27
438,-235,-595,542,-1076,149,424,-969,3,0:53:27
426,-213,-568,585,-863,128,380,-837,5,0:53:27
424,-243,-553,562,-643,88,333,-795,-34,0:53:27
414,-249,-538,500,-490,9,301,-833,0,0:53:27
400,-247,-547,429,-395,-55,251,-852,22,0:53:27
388,-258,-520,382,-390,-107,224,-846,46,0:53:27
382,-265,-507,354,-378,-130,228,-875,97,0:53:27
405,-273,-499,375,-336,-147,282,-928,51,0:53:27
372,-274,-508,441,-262,-165,279,-929,-5,0:53:27
390,-294,-463,490,-258,-202,206,-887,31,0:53:27
379,-291,-469,527,-269,-244,145,-816,64,0:53:27
394,-280,-466,544,-310,-284,128,-784,66,0:53:27
397,-298,-444,524,-371,-312,157,-825,93,0:53:27
397,-301,-447,457,-443,-322,208,-895,126,0:53:27
397,-301,-447,408,-443,-317,308,-976,44,0:53:27
418,-319,-427,354,-412,-289,308,-976,44,0:53:27
399,-310,-408,270,-352,-239,296,-1040,52,0:53:27
406,-303,-400,261,-196,-186,326,-1080,75,0:53:28
406,-307,-403,287,-69,-172,400,-1012,56,0:53:28
418,-304,-400,217,-58,-172,399,-1015,113,0:53:28
411,-309,-388,15,-96,-133,363,-1154,193,0:53:28
424,-300,-360,-178,-9,-24,392,-1273,162,0:53:28
412,-303,-382,-485,241,-7,452,-1319,51,0:53:28
406,-291,-370,-899,460,-11,368,-1313,-52,0:53:28
408,-304,-379,-1092,655,66,179,-1272,-137,0:53:28
423,-295,-394,-1155,917,149,42,-1196,-171,0:53:28
414,-255,-436,-1250,832,205,-4,-1193,-64,0:53:28
421,-246,-475,-1384,434,228,21,-1222,86,0:53:28
436,-262,-504,-1441,50,151,11,-1218,133,0:53:28
436,-262,-504,-1413,-298,46,-73,-1191,136,0:53:28
438,-225,-463,-1130,43,-36,-57,-1109,22,0:53:28
411,-225,-502,-1171,701,71,284,-1102,-103,0:53:28
438,-223,-523,-1212,985,198,283,-1035,51,0:53:28
436,-204,-519,-1108,1183,135,283,-1035,51,0:53:28
430,-195,-568,-917,1281,99,127,-937,83,0:53:28
447,-183,-564,-725,1241,131,43,-883,155,0:53:28
469,-171,-570,-591,1207,112,13,-844,193,0:53:28
471,-144,-580,-451,1171,27,-55,-784,181,0:53:28
492,-154,-592,-276,1005,-42,-134,-658,178,0:53:28
492,-141,-582,23,674,-31,-136,-585,155,0:53:28
525,-156,-592,305,343,21,-83,-589,188,0:53:28
520,-129,-592,448,196,59,-36,-607,258,0:53:28
523,-154,-589,472,194,82,-24,-572,317,0:53:28
517,-159,-583,512,224,88,-23,-517,392,0:53:28
517,-151,-568,613,217,56,8,-498,391,0:53:28
525,-147,-574,662,162,79,49,-557,412,0:53:28
520,-186,-567,625,120,184,74,-697,511,0:53:28
514,-163,-549,524,153,289,63,-824,630,0:53:28
508,-181,-547,271,216,289,70,-956,770,0:53:28
508,-181,-547,58,49,353,149,-1293,665,0:53:28
480,-190,-538,96,172,294,149,-1293,665,0:53:28
480,-190,-538,-51,774,16,73,-1096,607,0:53:28
489,-180,-549,33,977,-162,-91,-556,707,0:53:28
499,-189,-517,-110,439,-18,-195,-327,669,0:53:28
519,-174,-547,89,-558,64,-215,-965,369,0:53:28
508,-169,-544,-385,156,32,-265,-1755,6,0:53:28
492,-172,-538,-84,-66,45,13,-1681,216,0:53:28
511,-187,-556,-233,-256,-203,-82,-701,190,0:53:28
496,-171,-565,-367,-235,-119,-253,-310,-15,0:53:28
504,-166,-535,584,-1488,98,140,-689,80,0:53:28
484,-159,-535,816,-1267,160,288,-938,-235,0:53:28
465,-180,-541,464,-436,321,409,-1388,-235,0:53:28
477,-199,-541,345,-620,275,299,-1390,233,0:53:28
477,-199,-541,366,-1124,140,-97,-861,391,0:53:28
423,-186,-516,438,-1435,55,-237,-645,260,0:53:28
447,-183,-499,619,-1395,149,-4,-731,49,0:53:28
405,-198,-490,686,-1296,235,338,-910,-57,0:53:28
367,-187,-462,720,-1159,224,335,-813,-19,0:53:29
367,-187,-462,729,-813,191,335,-813,-19,0:53:29
388,-199,-453,663,-427,51,351,-795,-50,0:53:29
364,-208,-439,550,-303,-58,300,-830,25,0:53:29
375,-204,-418,483,-336,-119,252,-849,72,0:53:29
372,-220,-408,507,-359,-159,258,-878,84,0:53:29
357,-201,-414,564,-236,-195,255,-894,28,0:53:29
351,-219,-393,669,-176,-235,215,-860,-5,0:53:29
352,-211,-382,758,-154,-281,177,-819,38,0:53:29
354,-225,-372,715,-221,-307,165,-840,95,0:53:29
364,-232,-355,588,-342,-312,188,-929,163,0:53:29
369,-247,-345,429,-409,-319,237,-988,185,0:53:29
366,-232,-346,345,-394,-305,309,-987,129,0:53:29
366,-232,-346,293,-344,-275,356,-999,61,0:53:29
373,-255,-330,221,-259,-244,340,-1060,78,0:53:29
360,-264,-342,220,-226,-217,317,-1090,82,0:53:29
384,-244,-325,156,-249,-239,189,-1089,219,0:53:29
381,-228,-327,-21,-290,-286,279,-1101,219,0:53:29
373,-243,-334,-193,-274,-191,279,-1101,219,0:53:29
361,-235,-325,-392,4,-77,411,-1120,49,0:53:29
375,-241,-324,-755,387,-49,531,-1223,-103,0:53:29
369,-252,-336,-1157,662,-44,464,-1285,-206,0:53:29
373,-256,-339,-1370,875,64,104,-1298,-245,0:53:29
367,-244,-406,-1329,891,149,-161,-1269,-186,0:53:29
369,-222,-403,-1403,389,206,-183,-1283,-13,0:53:29
387,-246,-417,-1433,-123,180,-137,-1349,138,0:53:29
384,-211,-439,-1467,-283,95,-120,-1307,127,0:53:29
367,-211,-478,-1262,-124,-2,-116,-1165,76,0:53:29
364,-186,-498,-1053,294,74,60,-1010,-33,0:53:29
372,-180,-510,-1075,713,213,315,-997,-82,0:53:29
375,-196,-531,-1098,1288,116,318,-1021,11,0:53:29
375,-196,-531,-969,1442,56,132,-921,24,0:53:29
391,-169,-571,-743,1254,121,-7,-811,145,0:53:29
403,-171,-571,-596,1204,182,-50,-797,272,0:53:29
417,-151,-582,-449,1192,134,-98,-709,163,0:53:29
430,-139,-606,-273,1049,68,-158,-576,183,0:53:29
435,-147,-601,0,696,81,-158,-576,183,0:53:29
432,-141,-613,286,338,130,-145,-533,205,0:53:29
457,-147,-600,452,156,142,-105,-553,254,0:53:29
453,-150,-601,486,172,142,-75,-558,328,0:53:29
435,-142,-607,573,221,108,-41,-560,404,0:53:29
447,-166,-610,654,196,95,28,-543,434,0:53:29
456,-165,-570,668,151,113,106,-552,450,0:53:29
453,-178,-600,637,113,189,129,-637,519,0:53:29
469,-186,-562,497,301,285,112,-799,602,0:53:29
469,-186,-562,214,366,297,109,-992,760,0:53:29
453,-178,-586,65,-16,374,142,-1201,898,0:53:29
441,-187,-573,88,143,288,104,-1356,736,0:53:29
444,-187,-568,-128,845,31,-13,-1188,609,0:53:29
442,-184,-568,-146,970,-126,-163,-592,707,0:53:29
447,-193,-583,-7,47,4,-235,-496,655,0:53:30
468,-183,-570,-198,35,-109,-174,-1393,251,0:53:30
451,-175,-594,-119,-42,169,-45,-1136,96,0:53:30
474,-169,-577,25,-384,-91,-45,-1136,96,0:53:30
457,-162,-591,-403,-196,-238,-236,-410,-20,0:53:30
442,-180,-585,232,-897,-27,-93,-610,34,0:53:30
453,-172,-586,791,-1375,33,75,-699,-153,0:53:30
436,-186,-559,531,-772,191,231,-1092,-213,0:53:30
438,-180,-562,432,-583,294,369,-1454,36,0:53:30
427,-187,-543,389,-917,175,126,-1144,310,0:53:30
427,-187,-543,422,-1245,91,-120,-769,296,0:53:30
391,-189,-543,692,-1470,122,-53,-697,91,0:53:30
405,-187,-525,814,-1407,234,207,-813,-124,0:53:30
351,-207,-490,792,-1180,245,359,-905,-150,0:53:30
358,-211,-486,838,-755,119,310,-887,-28,0:53:30
322,-216,-456,686,-441,16,213,-827,-15,0:53:30
342,-223,-472,544,-411,-81,193,-825,24,0:53:30
340,-229,-451,474,-449,-154,220,-869,79,0:53:30
334,-238,-438,501,-431,-193,209,-867,42,0:53:30
342,-217,-438,525,-367,-228,209,-852,42,0:53:30
349,-225,-427,595,-364,-261,167,-841,57,0:53:30
352,-225,-403,648,-345,-316,167,-841,57,0:53:30
334,-256,-399,678,-322,-377,152,-821,67,0:53:30
334,-243,-399,613,-360,-424,140,-839,124,0:53:30
343,-255,-378,519,-415,-443,170,-891,147,0:53:30
343,-255,-378,424,-446,-390,215,-936,100,0:53:30
351,-247,-373,303,-481,-309,230,-999,97,0:53:30
351,-256,-357,207,-399,-221,241,-1070,139,0:53:30
331,-253,-369,154,-296,-192,268,-1048,137,0:53:30
357,-252,-340,1,-254,-268,317,-1041,168,0:53:30
352,-247,-352,-210,-144,-152,384,-1105,165,0:53:30
376,-258,-355,-347,231,0,501,-1165,-23,0:53:30
363,-261,-349,-721,525,38,583,-1232,-144,0:53:30
349,-238,-387,-1173,682,93,349,-1364,-123,0:53:30
357,-243,-408,-1294,939,235,-45,-1446,-148,0:53:30
367,-226,-441,-1346,781,310,-195,-1382,-126,0:53:30
361,-238,-444,-1369,260,317,-132,-1376,21,0:53:30
364,-226,-463,-1462,-76,208,-113,-1296,24,0:53:30
352,-192,-487,-1563,-184,35,-113,-1296,24,0:53:30
348,-193,-493,-1449,-9,-96,-161,-1205,16,0:53:30
348,-193,-493,-1111,296,39,2,-1146,-113,0:53:30
363,-172,-514,-1281,704,284,257,-1161,-132,0:53:30
370,-168,-514,-1266,1263,218,295,-1151,-71,0:53:30
372,-136,-543,-1019,1379,69,91,-894,-77,0:53:30
369,-138,-559,-740,1213,39,-94,-673,90,0:53:30
393,-121,-568,-582,1170,92,-73,-709,193,0:53:30
417,-123,-595,-417,1110,44,-52,-719,163,0:53:30
405,-112,-580,-148,947,-23,-134,-568,186,0:53:30
433,-115,-613,177,624,-11,-164,-485,204,0:53:30
399,-94,-607,415,345,0,-125,-488,205,0:53:30
436,-108,-586,535,179,4,-88,-486,227,0:53:30
427,-97,-600,636,130,32,-75,-473,297,0:53:31
445,-102,-591,778,142,34,-52,-437,367,0:53:31
447,-109,-586,771,173,62,18,-463,443,0:53:31
457,-127,-567,665,235,163,114,-680,591,0:53:31
441,-129,-576,520,342,315,121,-1055,799,0:53:31
441,-144,-577,208,322,383,121,-1055,799,0:53:31
444,-139,-582,41,-173,500,127,-1315,925,0:53:31
444,-139,-582,84,19,303,41,-1414,788,0:53:31
436,-120,-559,-126,949,-55,-114,-1088,607,0:53:31
450,-147,-577,-165,969,-180,-201,-493,599,0:53:31
462,-136,-580,-88,-22,-23,-292,-372,554,0:53:31
472,-124,-583,-234,-61,-156,-304,-1280,158,0:53:31
460,-129,-592,-172,-10,144,-113,-1992,33,0:53:31
462,-132,-579,2,-360,-85,-51,-1154,63,0:53:31
450,-123,-583,-401,-151,-196,-152,-459,21,0:53:31
451,-121,-580,288,-898,-5,-46,-642,51,0:53:31
457,-105,-576,891,-1354,70,113,-728,-172,0:53:31
427,-126,-565,621,-739,273,274,-1170,-203,0:53:31
414,-132,-552,475,-570,322,391,-1463,28,0:53:31
430,-129,-534,318,-963,163,36,-1076,348,0:53:31
411,-138,-544,372,-1292,44,-303,-714,387,0:53:31
393,-139,-522,660,-1352,84,-121,-698,34,0:53:31
393,-139,-522,753,-1187,184,274,-946,-77,0:53:31
352,-124,-510,674,-1078,207,274,-946,-77,0:53:31
379,-123,-489,717,-889,172,306,-860,11,0:53:31
363,-133,-471,688,-609,107,233,-776,28,0:53:31
343,-133,-468,594,-508,3,236,-798,8,0:53:31
339,-154,-432,459,-511,-100,244,-836,52,0:53:31
331,-160,-447,409,-478,-161,212,-861,111,0:53:31
349,-150,-435,426,-391,-205,218,-861,117,0:53:31
339,-157,-409,529,-329,-240,233,-847,80,0:53:31
355,-159,-417,634,-309,-260,221,-840,47,0:53:31
327,-157,-391,705,-300,-285,192,-823,58,0:53:31
355,-157,-393,681,-317,-327,162,-842,127,0:53:31
355,-157,-393,612,-376,-361,179,-919,184,0:53:31
354,-163,-366,481,-427,-322,255,-983,179,0:53:31
354,-163,-366,319,-455,-259,306,-1013,149,0:53:31
345,-172,-373,240,-338,-203,359,-1055,117,0:53:31
346,-181,-361,203,-231,-191,353,-1056,105,0:53:31
345,-175,-343,-11,-318,-273,175,-1158,240,0:53:31
354,-183,-348,-246,-305,-270,277,-1170,100,0:53:31
339,-183,-324,-456,35,-79,277,-1170,100,0:53:31
339,-189,-351,-798,473,0,408,-1179,-81,0:53:31
343,-190,-345,-1203,699,80,425,-1243,-175,0:53:31
351,-178,-399,-1360,983,227,196,-1352,-217,0:53:31
346,-180,-417,-1331,922,315,-96,-1374,-168,0:53:31
337,-163,-444,-1334,424,312,-124,-1421,-16,0:53:31
340,-139,-475,-1421,-64,203,-121,-1454,105,0:53:31
361,-124,-481,-1569,-334,92,-161,-1347,99,0:53:31
361,-124,-481,-1237,-287,16,-214,-1226,114,0:53:31
333,-115,-487,-1103,256,159,-87,-1075,-23,0:53:31
336,-102,-490,-1201,898,260,251,-1036,-172,0:53:32
339,-100,-495,-1183,1463,91,291,-1027,-98,0:53:32
369,-100,-513,-1071,1619,-5,90,-863,-58,0:53:32
366,-73,-540,-859,1384,21,0,-759,97,0:53:32
397,-73,-586,-639,1186,86,-59,-722,268,0:53:32
390,-69,-580,-411,1103,88,-189,-651,169,0:53:32
412,-51,-595,-215,987,72,-188,-556,100,0:53:32
420,-43,-598,105,658,79,-188,-556,100,0:53:32
439,-37,-609,446,318,93,-154,-480,109,0:53:32
448,-51,-597,617,134,78,-115,-445,189,0:53:32
439,-43,-603,639,155,42,-77,-445,283,0:53:32
438,-72,-603,728,139,30,-32,-470,406,0:53:32
453,-57,-591,795,100,53,29,-505,503,0:53:32
450,-63,-588,703,137,179,97,-626,585,0:53:32
450,-63,-588,487,245,345,130,-880,732,0:53:32
442,-97,-577,226,387,360,119,-1098,866,0:53:32
456,-91,-586,7,125,348,122,-1262,910,0:53:32
451,-78,-565,74,-2,274,72,-1370,761,0:53:32
469,-88,-585,-88,774,-16,-58,-1179,603,0:53:32
439,-82,-574,-39,1003,-128,-208,-631,621,0:53:32
453,-70,-583,20,15,28,-346,-476,632,0:53:32
469,-78,-595,-28,-471,-24,-329,-1285,299,0:53:32
468,-67,-597,-326,88,77,-248,-1954,0,0:53:32
465,-63,-583,85,-548,6,-93,-569,91,0:53:32
478,-64,-592,-359,-308,-179,-93,-569,91,0:53:32
469,-69,-555,74,-810,-6,-136,-587,-20,0:53:32
487,-66,-571,801,-1675,104,88,-768,-68,0:53:32
457,-72,-562,530,-1026,206,203,-1105,-249,0:53:32
441,-64,-531,323,-696,270,249,-1404,-78,0:53:32
406,-87,-558,281,-1027,128,11,-1116,319,0:53:32
405,-69,-531,353,-1361,39,-225,-744,370,0:53:32
388,-75,-541,432,-1570,23,-109,-756,179,0:53:32
388,-75,-541,721,-1556,213,191,-879,-21,0:53:32
375,-90,-511,781,-1330,261,411,-921,-155,0:53:32
373,-76,-486,769,-980,201,391,-873,-85,0:53:32
372,-97,-480,683,-579,46,330,-848,3,0:53:32
355,-100,-457,584,-463,-81,261,-883,66,0:53:32
366,-109,-468,535,-515,-167,166,-869,123,0:53:32
364,-100,-451,494,-511,-217,143,-882,87,0:53:32
366,-94,-456,467,-451,-264,152,-891,76,0:53:32
360,-112,-427,508,-424,-298,169,-859,69,0:53:32
372,-133,-406,603,-394,-331,165,-822,88,0:53:32
361,-127,-415,663,-368,-366,165,-822,88,0:53:32
366,-124,-385,643,-395,-384,171,-829,144,0:53:32
384,-130,-387,562,-426,-365,211,-885,190,0:53:32
361,-123,-393,471,-432,-299,269,-932,150,0:53:32
361,-123,-393,323,-460,-234,315,-952,109,0:53:32
361,-150,-363,267,-352,-199,392,-994,110,0:53:32
361,-141,-369,237,-231,-193,356,-1011,142,0:53:32
363,-145,-358,53,-315,-191,237,-1089,254,0:53:32
381,-145,-354,-226,-196,-102,235,-1180,292,0:53:32
372,-156,-366,-449,214,64,382,-1223,43,0:53:33
382,-147,-369,-811,639,85,556,-1305,-150,0:53:33
375,-144,-361,-1253,714,37,446,-1345,-182,0:53:33
391,-147,-397,-1423,919,98,35,-1368,-234,0:53:33
370,-138,-402,-1453,856,161,-281,-1373,-166,0:53:33
382,-130,-448,-1501,176,177,-297,-1463,87,0:53:33
382,-114,-444,-1582,-310,24,-210,-1466,205,0:53:33
379,-105,-451,-1491,-378,-69,-189,-1077,8,0:53:33
366,-108,-463,-1325,-82,-144,-189,-1063,18,0:53:33
373,-96,-480,-1114,361,25,21,-1063,18,0:53:33
373,-96,-480,-1250,872,71,313,-1112,-45,0:53:33
373,-99,-477,-1271,1216,-51,262,-1032,-5,0:53:33
400,-79,-499,-990,1171,-102,33,-814,87,0:53:33
400,-66,-523,-695,979,-29,-55,-645,173,0:53:33
400,-66,-523,-497,934,65,-80,-668,235,0:53:33
435,-61,-544,-345,933,88,-83,-708,189,0:53:33
436,-43,-562,-104,799,81,-112,-660,169,0:53:33
444,-37,-556,238,542,107,-156,-576,184,0:53:33
438,-52,-564,567,229,129,-144,-529,223,0:53:33
442,-40,-549,674,42,131,-110,-504,298,0:53:33
432,-63,-556,629,65,103,-70,-525,392,0:53:33
442,-69,-552,665,88,72,-12,-542,458,0:53:33
441,-84,-547,648,126,66,44,-551,517,0:53:33
433,-81,-537,579,198,114,85,-668,575,0:53:33
456,-93,-532,458,355,213,79,-862,639,0:53:33
441,-90,-552,260,487,233,-6,-1179,837,0:53:33
441,-90,-552,127,145,304,-80,-1326,791,0:53:33
472,-84,-531,145,-88,297,-80,-1326,791,0:53:33
474,-96,-532,-47,482,93,-139,-1221,721,0:53:33
460,-91,-525,-102,858,-58,-185,-713,714,0:53:33
450,-106,-534,-57,42,81,-264,-535,643,0:53:33
468,-93,-534,-63,-350,-51,-255,-1334,292,0:53:33
460,-91,-519,-274,58,-43,-184,-1974,-14,0:53:33
471,-85,-546,-7,-360,-234,-78,-1270,39,0:53:33
447,-87,-519,-436,-109,-256,-112,-566,115,0:53:33
453,-103,-529,311,-914,104,-36,-706,104,0:53:33
456,-76,-501,959,-1631,236,129,-812,-87,0:53:33
415,-105,-508,602,-894,315,194,-1100,-264,0:53:33
430,-103,-498,397,-625,300,266,-1399,-45,0:53:33
415,-85,-486,308,-903,63,24,-1091,282,0:53:33
400,-109,-483,374,-1148,-43,-234,-744,328,0:53:33
400,-109,-483,483,-1278,-38,-96,-771,151,0:53:33
397,-111,-465,660,-1369,98,332,-925,-101,0:53:33
390,-94,-457,774,-1275,179,328,-811,-90,0:53:33
385,-102,-435,785,-952,163,328,-811,-90,0:53:33
376,-105,-435,793,-588,121,295,-746,-73,0:53:33
381,-97,-412,718,-406,21,282,-807,-52,0:53:33
360,-120,-402,592,-381,-85,250,-893,17,0:53:33
358,-124,-394,470,-427,-148,176,-907,96,0:53:33
349,-123,-372,446,-412,-195,156,-871,100,0:53:33
370,-121,-357,537,-353,-233,158,-821,44,0:53:34
376,-148,-378,627,-307,-268,188,-820,-8,0:53:34
367,-142,-372,668,-230,-332,171,-826,19,0:53:34
367,-138,-358,622,-256,-371,115,-840,113,0:53:34
379,-136,-355,550,-345,-378,109,-893,182,0:53:34
372,-160,-331,461,-429,-341,171,-946,161,0:53:34
390,-153,-324,363,-499,-248,248,-1019,124,0:53:34
390,-153,-324,214,-421,-195,248,-1103,167,0:53:34
405,-150,-307,190,-198,-177,261,-1123,150,0:53:34
384,-144,-327,120,-132,-208,248,-1108,132,0:53:34
394,-147,-319,-80,-126,-273,378,-1208,144,0:53:34
370,-150,-330,-258,85,-39,474,-1243,2,0:53:34
387,-166,-333,-585,419,-2,474,-1243,2,0:53:34
393,-160,-345,-1005,767,22,481,-1267,-130,0:53:34
405,-156,-346,-1264,968,135,352,-1334,-274,0:53:34
406,-144,-352,-1288,998,233,78,-1350,-228,0:53:34
396,-130,-375,-1295,684,294,-81,-1315,-153,0:53:34
391,-147,-403,-1363,247,240,-138,-1317,-65,0:53:34
385,-129,-417,-1485,-112,110,-212,-1286,27,0:53:34
381,-127,-429,-1061,-233,48,-204,-1168,78,0:53:34
384,-103,-441,-989,452,139,-40,-1041,-51,0:53:34
400,-90,-435,-1256,1121,228,221,-1061,-164,0:53:34
391,-123,-490,-1346,1401,154,343,-1143,-31,0:53:34
394,-79,-474,-1254,1568,11,162,-1019,21,0:53:34
414,-64,-513,-968,1456,23,-86,-772,65,0:53:34
427,-84,-537,-765,1245,126,-175,-691,210,0:53:34
427,-84,-537,-577,1232,131,-139,-740,214,0:53:34
424,-75,-540,-263,1125,58,-138,-540,141,0:53:34
441,-46,-559,53,846,30,-80,-509,182,0:53:34
441,-46,-559,337,513,40,-80,-509,182,0:53:34
447,-55,-567,453,314,63,-27,-522,228,0:53:34
451,-60,-549,468,317,88,-44,-521,308,0:53:34
456,-60,-537,614,344,95,-95,-502,389,0:53:34
484,-67,-534,758,310,101,-74,-459,420,0:53:34
459,-55,-547,760,279,171,13,-536,461,0:53:34
474,-67,-537,658,245,268,71,-757,581,0:53:34
474,-93,-546,347,318,275,45,-994,753,0:53:34
466,-79,-516,-145,76,315,55,-1327,978,0:53:34
468,-96,-549,-72,-55,301,61,-1544,875,0:53:34
475,-85,-538,-198,694,81,-69,-1439,645,0:53:34
475,-85,-538,-192,1143,-108,-208,-935,733,0:53:34
478,-69,-537,-135,514,32,-252,-572,754,0:53:34
495,-51,-547,-35,-350,19,-185,-1054,393,0:53:34
504,-51,-556,-180,-149,72,-146,-1687,21,0:53:34
501,-67,-538,-114,-175,-70,-144,-1363,21,0:53:34
505,-70,-556,-326,-13,-165,-130,-710,89,0:53:34
489,-57,-559,260,-634,-12,162,-832,-70,0:53:34
483,-60,-564,730,-1211,63,162,-832,-70,0:53:34
471,-52,-531,539,-758,196,308,-1098,-284,0:53:34
450,-79,-546,485,-469,324,312,-1313,-125,0:53:34
468,-51,-534,492,-700,293,110,-1095,197,0:53:34
445,-60,-534,508,-1007,247,-100,-842,373,0:53:35
441,-73,-523,574,-1225,215,-115,-811,306,0:53:35
411,-82,-522,795,-1159,261,30,-826,92,0:53:35
411,-82,-522,787,-965,231,254,-878,-166,0:53:35
429,-72,-511,759,-746,201,328,-858,-133,0:53:35
396,-82,-499,732,-424,152,284,-802,9,0:53:35
391,-84,-493,695,-253,88,238,-832,0,0:53:35
411,-87,-490,608,-308,-15,178,-855,56,0:53:35
388,-99,-489,500,-356,-99,154,-882,82,0:53:35
400,-87,-474,525,-354,-137,154,-903,77,0:53:35
379,-106,-459,567,-324,-182,159,-875,77,0:53:35
400,-118,-448,613,-343,-246,168,-868,93,0:53:35
396,-118,-459,639,-297,-289,169,-844,77,0:53:35
408,-114,-439,622,-276,-318,169,-844,77,0:53:35
396,-138,-426,581,-287,-336,168,-865,101,0:53:35
414,-138,-432,504,-344,-299,212,-947,129,0:53:35
403,-139,-423,380,-417,-219,248,-1017,135,0:53:35
403,-139,-423,239,-389,-179,252,-1051,112,0:53:35
402,-124,-406,196,-268,-191,253,-1053,64,0:53:35
409,-142,-408,152,-256,-200,193,-1049,100,0:53:35
394,-138,-426,15,-297,-185,161,-1119,226,0:53:35
409,-148,-403,-189,-279,-165,245,-1132,258,0:53:35
403,-141,-400,-368,2,-133,384,-1111,94,0:53:35
423,-145,-399,-671,425,-119,509,-1209,-56,0:53:35
415,-157,-429,-1130,703,-97,475,-1273,-145,0:53:35
424,-157,-424,-1377,942,30,176,-1289,-162,0:53:35
423,-153,-444,-1352,1012,205,-103,-1293,-119,0:53:35
439,-117,-477,-1432,542,254,-163,-1314,-29,0:53:35
436,-111,-492,-1444,-75,165,-164,-1387,134,0:53:35
424,-97,-504,-1482,-418,39,-137,-1245,75,0:53:35
429,-90,-523,-1127,-280,100,-137,-1245,75,0:53:35
429,-90,-523,-1046,335,193,12,-1087,-136,0:53:35
430,-94,-540,-1226,950,277,260,-1066,-203,0:53:35
432,-82,-555,-1260,1338,116,271,-1070,-51,0:53:35
459,-64,-549,-1139,1375,-7,74,-928,20,0:53:35
477,-43,-589,-899,1194,-11,-61,-798,163,0:53:35
469,-27,-589,-732,1171,57,-123,-757,265,0:53:35
490,-18,-597,-543,1110,48,-108,-770,193,0:53:35
498,-34,-600,-295,977,-6,-142,-672,172,0:53:35
516,-18,-609,36,693,1,-187,-557,168,0:53:35
535,0,-597,390,375,37,-174,-500,175,0:53:35
525,-18,-589,550,161,58,-134,-479,253,0:53:35
526,-25,-579,517,128,62,-75,-530,332,0:53:35
522,-33,-574,555,158,58,-47,-561,377,0:53:35
534,-40,-600,697,132,76,-46,-554,438,0:53:35
534,-40,-600,745,121,142,-7,-619,520,0:53:35
544,-60,-582,588,180,267,46,-783,596,0:53:35
544,-60,-582,317,270,355,99,-1067,850,0:53:35
544,-79,-573,43,198,334,37,-1167,831,0:53:35
541,-54,-559,36,-16,352,37,-1167,831,0:53:35
541,-73,-570,92,194,274,-60,-1196,661,0:53:35
528,-70,-582,-133,828,35,-111,-1002,633,0:53:36
544,-64,-556,-184,747,-21,-188,-713,720,0:53:36
559,-61,-579,77,-317,52,-219,-1027,540,0:53:36
543,-66,-573,-251,106,16,-259,-1735,156,0:53:36
540,-52,-559,-102,-151,-59,-234,-1497,179,0:53:36
526,-64,-591,-381,-143,-195,-243,-689,113,0:53:36
540,-61,-589,-46,-464,9,-148,-583,14,0:53:36
532,-54,-573,769,-1392,117,101,-794,45,0:53:36
516,-49,-562,595,-992,142,206,-1034,-206,0:53:36
490,-90,-582,327,-455,257,259,-1394,-102,0:53:36
477,-84,-562,411,-671,217,100,-1236,250,0:53:36
477,-84,-562,466,-959,119,-148,-808,362,0:53:36
475,-79,-564,506,-1091,110,-133,-735,232,0:53:36
484,-88,-550,496,-1145,123,287,-925,-65,0:53:36
460,-91,-532,662,-1106,154,335,-837,-112,0:53:36
456,-79,-528,798,-1012,188,335,-837,-112,0:53:36
424,-100,-516,791,-616,161,292,-757,-37,0:53:36
451,-114,-528,723,-333,102,305,-791,-47,0:53:36
414,-102,-498,655,-294,28,224,-872,36,0:53:36
408,-123,-489,590,-322,-53,141,-874,94,0:53:36
409,-136,-496,538,-405,-102,99,-867,111,0:53:36
406,-124,-472,542,-374,-162,120,-885,128,0:53:36
406,-141,-456,594,-303,-221,175,-884,58,0:53:36
427,-121,-457,690,-290,-273,189,-855,30,0:53:36
388,-151,-444,754,-252,-317,170,-825,66,0:53:36
397,-154,-456,711,-282,-340,161,-861,95,0:53:36
397,-162,-426,601,-340,-313,215,-954,139,0:53:36
402,-154,-427,459,-392,-240,272,-1008,139,0:53:36
402,-154,-427,304,-390,-152,276,-1022,112,0:53:36
400,-175,-402,220,-278,-126,283,-1056,101,0:53:36
412,-162,-424,194,-189,-158,234,-1047,112,0:53:36
421,-178,-408,140,-303,-160,121,-1100,295,0:53:36
403,-178,-406,-86,-350,-192,121,-1100,295,0:53:36
384,-174,-396,-297,-277,-137,241,-1052,226,0:53:36
406,-189,-409,-490,109,-119,409,-1118,-9,0:53:36
396,-174,-406,-809,595,-56,571,-1282,-159,0:53:36
429,-174,-411,-1216,811,-37,456,-1329,-255,0:53:36
414,-181,-418,-1374,1086,60,-29,-1323,-246,0:53:36
427,-178,-433,-1394,918,135,-318,-1298,-176,0:53:36
411,-159,-459,-1426,121,149,-271,-1337,69,0:53:36
436,-142,-474,-1450,-342,25,-162,-1382,223,0:53:36
423,-144,-496,-1519,-302,-81,-137,-1290,85,0:53:36
435,-114,-523,-1197,-44,-70,-132,-1166,22,0:53:36
405,-115,-504,-1126,412,47,-6,-1073,20,0:53:36
405,-115,-529,-1182,706,47,193,-1047,-12,0:53:36
423,-105,-546,-1196,1134,-8,161,-1036,46,0:53:36
441,-87,-559,-985,1144,-12,32,-925,83,0:53:36
463,-64,-576,-711,917,25,-18,-772,202,0:53:36
451,-64,-579,-585,947,72,-62,-734,272,0:53:36
483,-54,-592,-447,941,68,-76,-757,202,0:53:36
483,-54,-592,-285,857,18,-176,-585,174,0:53:37
481,-72,-589,4,611,2,-176,-585,174,0:53:37
474,-52,-580,366,268,68,-203,-506,194,0:53:37
465,-58,-600,553,48,133,-156,-528,277,0:53:37
475,-82,-580,573,28,140,-89,-553,346,0:53:37
487,-73,-591,624,60,122,-42,-522,385,0:53:37
481,-70,-565,682,49,125,18,-528,447,0:53:37
502,-87,-579,667,63,158,75,-622,494,0:53:37
480,-66,-571,550,165,253,102,-796,529,0:53:37
481,-96,-568,376,270,350,66,-1002,665,0:53:37
477,-106,-565,85,281,335,35,-1114,787,0:53:37
484,-99,-546,-35,18,345,18,-1172,792,0:53:37
489,-106,-553,94,65,306,-44,-1296,731,0:53:37
489,-106,-553,-73,660,102,-96,-1168,680,0:53:37
466,-99,-558,-144,902,4,-138,-719,697,0:53:37
483,-112,-556,91,93,160,-165,-634,595,0:53:37
486,-114,-568,129,-493,160,-154,-1785,41,0:53:37
477,-120,-564,-215,-180,107,-147,-1511,207,0:53:37
480,-117,-568,-147,-333,-84,-147,-1511,207,0:53:37
471,-121,-556,-238,-209,-261,-159,-843,151,0:53:37
466,-117,-573,93,-514,-156,-133,-632,86,0:53:37
460,-115,-582,507,-941,-18,141,-766,34,0:53:37
441,-126,-549,576,-699,110,290,-983,-223,0:53:37
453,-108,-543,494,-480,235,285,-1161,-140,0:53:37
427,-120,-522,312,-567,156,125,-1081,184,0:53:37
421,-127,-517,274,-733,46,-116,-903,419,0:53:37
412,-142,-544,243,-813,11,-155,-840,364,0:53:37
418,-130,-532,438,-933,102,39,-906,114,0:53:37
394,-132,-501,546,-938,177,235,-917,-65,0:53:37
394,-132,-501,633,-796,221,319,-877,-70,0:53:37
399,-141,-526,612,-441,170,330,-859,-17,0:53:37
393,-145,-499,562,-228,84,268,-836,5,0:53:37
390,-153,-466,496,-241,9,174,-838,72,0:53:37
367,-171,-459,433,-301,-44,150,-871,103,0:53:37
387,-168,-457,424,-301,-83,117,-933,117,0:53:37
384,-184,-477,430,-304,-128,117,-933,117,0:53:37
382,-198,-463,437,-310,-175,141,-899,104,0:53:37
384,-180,-453,448,-266,-228,169,-856,63,0:53:37
379,-198,-432,474,-244,-267,173,-862,56,0:53:37
391,-199,-409,477,-289,-273,158,-883,121,0:53:37
384,-204,-429,476,-325,-259,167,-903,129,0:53:37
390,-211,-415,445,-331,-245,190,-908,81,0:53:37
390,-217,-397,399,-336,-207,184,-906,70,0:53:37
390,-217,-397,320,-272,-158,171,-962,68,0:53:37
394,-226,-391,218,-193,-125,184,-1027,79,0:53:37
394,-207,-394,82,-87,-102,199,-1045,101,0:53:37
376,-232,-379,-6,-70,-89,194,-1049,137,0:53:37
375,-229,-390,-65,-86,-93,202,-1017,166,0:53:37
384,-225,-393,-141,-63,-88,249,-944,118,0:53:37
405,-223,-385,-273,121,-74,301,-995,53,0:53:37
402,-235,-387,-460,494,-38,362,-1159,-61,0:53:37
406,-226,-390,-756,706,-11,109,-1322,-246,0:53:38
393,-243,-411,-969,798,83,-165,-1402,-188,0:53:38
394,-229,-441,-988,737,182,-165,-1402,-188,0:53:38
415,-231,-463,-980,308,201,-244,-1283,-41,0:53:38
406,-217,-481,-941,38,109,-151,-1192,36,0:53:38
397,-202,-496,-896,-161,0,-31,-1195,-34,0:53:38
403,-196,-486,-837,-357,-64,9,-1165,-25,0:53:38
408,-214,-484,-889,-135,-138,-32,-1143,56,0:53:38
408,-214,-484,-875,486,-213,-56,-1081,-83,0:53:38
402,-199,-498,-822,756,-272,-96,-944,-206,0:53:38
415,-201,-529,-797,630,-287,-132,-881,-65,0:53:38
417,-193,-531,-655,405,-223,-100,-945,100,0:53:38
417,-172,-547,-424,275,-176,-57,-976,197,0:53:38
420,-177,-549,-279,275,-172,-29,-937,219,0:53:38
430,-175,-549,-129,346,-178,-27,-871,175,0:53:38
451,-186,-564,51,400,-171,-83,-777,122,0:53:38
444,-178,-546,214,356,-109,-111,-730,139,0:53:38
463,-181,-564,428,256,-11,-63,-756,234,0:53:38
462,-198,-562,609,186,72,7,-804,387,0:53:38
475,-180,-558,576,172,137,7,-804,387,0:53:38
462,-199,-564,431,148,200,79,-867,406,0:53:38
466,-195,-561,385,124,219,109,-877,333,0:53:38
466,-195,-561,440,106,177,15,-824,204,0:53:38
438,-210,-523,513,79,116,-85,-836,114,0:53:38
442,-199,-526,441,194,65,-114,-917,78,0:53:38
445,-201,-517,392,214,12,-107,-973,130,0:53:38
441,-214,-519,417,49,-30,-101,-944,174,0:53:38
459,-213,-529,438,30,-5,-172,-899,85,0:53:38
450,-229,-519,497,-238,111,-145,-1071,30,0:53:38
465,-232,-519,600,-545,226,-10,-1255,97,0:53:38
448,-217,-483,431,-511,163,56,-1198,134,0:53:38
445,-210,-492,182,-128,-23,0,-1020,130,0:53:38
439,-231,-471,91,169,-110,-36,-876,73,0:53:38
450,-225,-472,112,187,-84,57,-876,18,0:53:38
441,-252,-466,184,128,-12,103,-922,28,0:53:38
450,-234,-474,244,100,55,100,-949,39,0:53:38
450,-234,-474,259,60,102,111,-993,84,0:53:38
436,-234,-475,229,34,116,111,-993,84,0:53:38
436,-234,-475,191,49,90,89,-990,90,0:53:38
438,-225,-459,144,168,30,44,-979,62,0:53:38
438,-235,-444,102,163,4,-7,-998,50,0:53:38
435,-243,-463,56,128,2,-1,-1027,46,0:53:38
453,-250,-469,30,91,11,41,-1025,51,0:53:38
418,-225,-451,23,56,20,48,-1005,64,0:53:38
435,-220,-462,27,27,23,41,-991,68,0:53:38
448,-247,-454,48,2,28,42,-991,79,0:53:38
433,-228,-441,70,-18,33,58,-991,78,0:53:38
447,-256,-475,84,-26,31,70,-979,63,0:53:38
444,-246,-480,88,-29,33,77,-975,41,0:53:38
448,-241,-444,83,-32,38,86,-979,38,0:53:38
448,-241,-444,77,-25,37,92,-980,48,0:53:38
432,-234,-474,69,-4,28,89,-984,43,0:53:39
426,-235,-469,56,15,18,80,-990,33,0:53:39
426,-235,-469,46,5,9,65,-987,42,0:53:39
433,-226,-454,41,1,-1,59,-975,38,0:53:39
430,-235,-478,35,0,-8,59,-975,38,0:53:39
444,-237,-456,35,-16,-4,69,-977,42,0:53:39
439,-246,-453,38,-34,3,81,-985,45,0:53:39
448,-258,-462,32,-41,2,81,-991,44,0:53:39
435,-229,-451,24,-45,-4,75,-992,44,0:53:39
442,-267,-433,14,-41,-16,70,-982,47,0:53:39
427,-253,-451,14,-32,-21,67,-978,48,0:53:39
430,-243,-453,20,-34,-16,69,-982,46,0:53:39
430,-243,-453,18,-46,-13,78,-983,48,0:53:39
445,-232,-457,13,-53,-12,84,-981,53,0:53:39
421,-235,-444,14,-47,-15,77,-979,51,0:53:39
430,-261,-460,18,-46,-18,70,-983,50,0:53:39
441,-235,-457,16,-62,-17,70,-985,55,0:53:39
441,-234,-459,13,-60,-23,80,-984,53,0:53:39
444,-229,-432,2,-39,-36,81,-981,48,0:53:39
441,-237,-453,0,-32,-42,81,-981,51,0:53:39
444,-237,-465,0,-36,-40,88,-982,61,0:53:39
438,-256,-441,5,-32,-38,88,-982,61,0:53:39
432,-241,-448,9,-32,-35,82,-981,56,0:53:39
448,-226,-445,10,-21,-32,81,-979,52,0:53:39
430,-246,-451,8,-7,-32,76,-976,53,0:53:39
448,-249,-447,9,-7,-30,71,-981,59,0:53:39
442,-234,-445,5,-24,-27,72,-981,63,0:53:39
442,-234,-445,0,-33,-27,66,-981,61,0:53:39
436,-237,-460,2,-37,-29,59,-981,59,0:53:39
436,-255,-442,4,-30,-32,56,-980,56,0:53:39
423,-252,-465,5,-29,-33,54,-979,48,0:53:39
432,-244,-441,7,-39,-30,55,-976,44,0:53:39
436,-246,-454,13,-52,-25,58,-980,44,0:53:39
450,-250,-450,14,-56,-27,70,-988,54,0:53:39
442,-241,-433,14,-44,-32,68,-986,52,0:53:39
433,-261,-460,9,-30,-37,56,-979,36,0:53:39
438,-247,-420,7,-26,-37,55,-978,34,0:53:39
420,-250,-454,3,-24,-37,52,-983,43,0:53:39
429,-256,-459,2,-27,-37,52,-983,45,0:53:39
432,-252,-450,3,-18,-38,52,-983,45,0:53:39
441,-256,-453,1,-11,-42,50,-979,43,0:53:39
451,-262,-436,0,-11,-45,48,-979,39,0:53:39
426,-244,-430,0,-11,-47,43,-980,35,0:53:39
435,-246,-436,1,-13,-45,42,-981,37,0:53:39
441,-244,-438,4,-10,-44,43,-983,38,0:53:39
441,-244,-438,7,-9,-42,40,-982,36,0:53:39
421,-255,-441,7,-4,-42,40,-981,36,0:53:39
441,-243,-453,2,-2,-44,42,-980,38,0:53:39
436,-234,-451,2,-8,-43,41,-983,43,0:53:39
433,-249,-462,2,-12,-39,39,-985,45,0:53:39
438,-250,-448,1,-16,-36,36,-983,47,0:53:40
430,-255,-460,3,-18,-36,34,-979,51,0:53:40
451,-256,-441,4,-16,-35,30,-976,48,0:53:40
441,-234,-450,6,-16,-33,27,-978,47,0:53:40
450,-244,-451,7,-21,-32,27,-979,50,0:53:40
429,-237,-442,10,-28,-32,34,-980,50,0:53:40
447,-246,-435,10,-26,-32,34,-980,50,0:53:40
454,-246,-450,7,-26,-30,35,-978,46,0:53:40
420,-270,-442,6,-21,-26,34,-978,42,0:53:40
420,-270,-442,7,-20,-23,34,-984,41,0:53:40
450,-226,-435,7,-24,-21,34,-985,47,0:53:40
453,-270,-429,5,-25,-21,32,-986,46,0:53:40
445,-243,-420,3,-24,-20,32,-985,43,0:53:40
445,-253,-441,4,-23,-21,31,-981,44,0:53:40
433,-243,-411,3,-20,-23,28,-980,46,0:53:40
451,-268,-432,7,-21,-23,27,-984,44,0:53:40
430,-249,-442,11,-19,-21,26,-985,42,0:53:40
435,-259,-433,10,-15,-21,24,-981,43,0:53:40
433,-252,-436,10,-14,-18,25,-980,42,0:53:40
448,-241,-436,11,-14,-16,28,-981,41,0:53:40
430,-258,-432,11,-9,-16,30,-983,40,0:53:40
445,-261,-438,9,-2,-18,29,-981,41,0:53:40
445,-261,-438,7,-6,-18,27,-979,44,0:53:40
445,-241,-430,6,-7,-16,31,-985,42,0:53:40
436,-259,-445,7,-7,-13,31,-985,42,0:53:40
447,-262,-447,7,-2,-13,27,-988,35,0:53:40
426,-261,-435,5,0,-14,24,-983,36,0:53:40
426,-261,-435,5,0,-15,22,-981,39,0:53:40
444,-252,-436,5,0,-14,20,-983,39,0:53:40
448,-258,-450,4,0,-13,22,-983,35,0:53:40
444,-250,-451,4,4,-12,21,-982,33,0:53:40
436,-231,-445,4,2,-11,17,-984,34,0:53:40
448,-255,-432,3,1,-12,20,-986,37,0:53:40
444,-240,-444,2,5,-15,20,-986,37,0:53:40
456,-249,-441,3,4,-16,18,-982,33,0:53:40
444,-277,-427,5,0,-14,20,-979,35,0:53:40
444,-277,-427,7,-1,-11,23,-979,35,0:53:40
441,-246,-439,8,-2,-11,26,-981,36,0:53:40
448,-261,-441,9,-3,-10,24,-981,37,0:53:40
444,-267,-441,8,-1,-11,21,-983,35,0:53:40
429,-237,-435,5,-3,-13,24,-985,40,0:53:40
445,-270,-430,4,-9,-11,25,-983,38,0:53:40
435,-250,-454,7,-7,-8,25,-983,38,0:53:40
450,-262,-441,7,-3,-9,26,-981,36,0:53:40
439,-264,-442,7,-7,-9,24,-979,39,0:53:40
435,-253,-447,3,-1,-14,25,-978,39,0:53:40
456,-246,-463,0,1,-16,28,-980,37,0:53:40
453,-274,-447,0,2,-13,28,-980,38,0:53:40
453,-274,-447,3,-4,-7,26,-980,40,0:53:40
444,-255,-438,5,-8,-7,25,-980,40,0:53:40
460,-255,-442,7,-11,-7,30,-986,35,0:53:40
444,-249,-460,6,-10,-8,29,-989,34,0:53:41
439,-262,-454,4,-7,-10,28,-986,33,0:53:41
445,-249,-433,-1,-6,-9,30,-983,34,0:53:41
433,-243,-433,-4,-11,-5,32,-984,38,0:53:41
454,-255,-438,-5,-10,-5,34,-988,36,0:53:41
445,-261,-439,-7,-11,-6,33,-989,35,0:53:41
457,-249,-463,-11,-9,-8,28,-986,35,0:53:41
448,-258,-418,-12,-9,-8,30,-981,36,0:53:41
435,-247,-447,-13,-5,-7,30,-981,36,0:53:41
429,-262,-436,-10,-9,-7,32,-983,36,0:53:41
442,-264,-438,-9,-9,-9,31,-983,34,0:53:41
442,-264,-438,-10,-5,-12,29,-982,36,0:53:41
454,-258,-445,-9,-2,-13,30,-983,37,0:53:41
430,-256,-432,-8,-5,-10,30,-982,38,0:53:41
433,-255,-436,-5,-9,-7,31,-986,41,0:53:41
435,-261,-439,-5,-8,-9,30,-986,39,0:53:41
442,-271,-429,-7,-9,-10,30,-981,39,0:53:41
447,-243,-438,-7,-11,-9,33,-981,42,0:53:41
430,-255,-454,-4,-12,-9,34,-983,44,0:53:41
438,-258,-441,-4,-12,-10,34,-983,45,0:53:41
435,-259,-447,-4,-12,-11,34,-982,46,0:53:41
441,-253,-442,-3,-11,-11,34,-980,48,0:53:41
454,-250,-444,-1,-12,-10,39,-979,49,0:53:41
436,-267,-447,-2,-13,-9,42,-980,49,0:53:41
448,-264,-442,-4,-8,-9,45,-984,48,0:53:41
448,-264,-442,-6,-2,-10,41,-984,48,0:53:41
451,-246,-442,-8,0,-12,41,-984,48,0:53:41
429,-256,-448,-7,-1,-11,40,-980,49,0:53:41
435,-255,-432,-5,0,-9,40,-979,48,0:53:41
432,-238,-445,-3,-1,-8,40,-982,47,0:53:41
441,-268,-441,-4,-2,-10,37,-980,46,0:53:41
432,-250,-438,-2,-2,-13,34,-979,47,0:53:41
451,-256,-454,0,-3,-14,33,-980,50,0:53:41
444,-249,-424,0,-4,-13,34,-982,50,0:53:41
453,-252,-450,0,-5,-11,35,-983,50,0:53:41
433,-244,-450,0,-7,-10,35,-982,48,0:53:41
432,-256,-427,0,-9,-10,34,-980,48,0:53:41
442,-249,-442,0,-10,-11,32,-981,48,0:53:41
439,-253,-459,0,-9,-11,33,-981,46,0:53:41
445,-243,-420,0,-5,-14,35,-980,43,0:53:41
427,-229,-447,0,-7,-14,33,-983,43,0:53:41
453,-262,-435,0,-12,-14,31,-981,44,0:53:41
436,-252,-415,0,-16,-14,30,-978,47,0:53:41
436,-252,-415,3,-19,-14,32,-983,48,0:53:41
432,-255,-456,4,-19,-12,32,-983,48,0:53:41
427,-265,-444,1,-19,-12,36,-985,47,0:53:41
427,-265,-444,0,-15,-12,36,-984,46,0:53:41
439,-250,-444,0,-13,-12,33,-983,50,0:53:41
450,-250,-429,0,-14,-14,34,-987,54,0:53:41
432,-256,-427,0,-14,-14,37,-988,54,0:53:41
453,-258,-450,3,-12,-13,36,-984,50,0:53:41
451,-243,-438,5,-11,-9,33,-982,49,0:53:42
435,-244,-441,4,-14,-7,36,-982,51,0:53:42
454,-253,-474,2,-15,-9,35,-981,53,0:53:42
424,-249,-439,-1,-11,-11,37,-982,51,0:53:42
420,-247,-445,-5,-9,-14,38,-980,48,0:53:42
435,-258,-456,-5,-7,-14,35,-981,49,0:53:42
429,-246,-436,-4,-8,-11,35,-983,49,0:53:42
429,-243,-444,-3,-8,-9,35,-983,48,0:53:42
429,-243,-444,-2,-6,-8,34,-980,50,0:53:42
429,-234,-442,-3,-4,-9,34,-977,50,0:53:42
432,-252,-439,-4,-2,-10,34,-977,50,0:53:42
435,-250,-433,-3,0,-10,36,-979,49,0:53:42
444,-250,-445,-2,0,-11,39,-983,47,0:53:42
439,-259,-430,-2,2,-12,35,-982,47,0:53:42
438,-237,-444,-1,0,-12,30,-981,47,0:53:42
430,-243,-453,0,0,-11,30,-981,47,0:53:42
439,-256,-447,2,-5,-11,32,-982,48,0:53:42
454,-228,-451,4,-7,-11,34,-982,47,0:53:42
427,-252,-448,3,-6,-11,35,-982,48,0:53:42
453,-241,-447,3,-4,-12,35,-982,51,0:53:42
439,-243,-448,3,-4,-13,34,-981,52,0:53:42
433,-247,-435,2,-4,-12,32,-981,53,0:53:42
429,-243,-453,2,-7,-11,35,-980,52,0:53:42
439,-244,-453,3,-7,-11,39,-980,52,0:53:42
432,-253,-438,4,-3,-12,38,-980,53,0:53:42
432,-253,-438,3,-2,-11,37,-980,51,0:53:42
430,-250,-451,3,-2,-9,40,-981,52,0:53:42
423,-253,-433,3,0,-9,38,-981,53,0:53:42
444,-253,-444,2,0,-9,38,-981,53,0:53:42
445,-243,-444,3,0,-9,35,-982,55,0:53:42
433,-252,-450,4,0,-9,34,-982,54,0:53:42
451,-256,-435,4,-2,-9,34,-980,52,0:53:42
442,-262,-427,1,1,-10,37,-981,53,0:53:42
429,-244,-444,2,-2,-9,38,-983,53,0:53:42
442,-270,-447,2,0,-8,36,-981,51,0:53:42
418,-253,-448,2,0,-8,36,-982,51,0:53:42
432,-234,-451,2,1,-9,36,-982,50,0:53:42
433,-246,-435,2,0,-9,36,-984,52,0:53:42
451,-256,-457,3,-3,-7,36,-984,53,0:53:42
433,-238,-447,2,-3,-7,36,-981,50,0:53:42
442,-247,-444,1,-1,-7,38,-981,47,0:53:42
435,-252,-427,0,3,-7,38,-984,47,0:53:42
442,-240,-441,1,2,-7,36,-987,50,0:53:42
442,-240,-441,0,0,-9,34,-987,52,0:53:42
445,-241,-442,-1,-2,-9,36,-980,51,0:53:42
426,-256,-435,0,-2,-7,36,-980,51,0:53:42
432,-250,-436,0,1,-7,38,-980,48,0:53:42
451,-261,-450,0,7,-6,45,-979,49,0:53:42
445,-265,-424,2,3,-4,49,-977,49,0:53:42
430,-259,-441,3,2,-3,48,-977,50,0:53:42
444,-249,-438,2,7,-4,42,-981,51,0:53:43
445,-261,-468,1,9,-5,39,-984,48,0:53:43
447,-244,-438,0,7,-5,39,-984,49,0:53:43
445,-255,-442,0,6,-4,39,-984,51,0:53:43
427,-240,-444,0,6,-3,37,-982,49,0:53:43
433,-237,-442,0,4,-2,36,-979,48,0:53:43
439,-241,-439,-1,7,-4,40,-979,46,0:53:43
439,-241,-439,0,7,-7,42,-982,46,0:53:43
438,-261,-441,1,5,-6,40,-979,48,0:53:43
423,-241,-421,2,5,-4,36,-980,46,0:53:43
423,-241,-421,2,3,-3,36,-985,48,0:53:43
439,-255,-439,3,3,-3,39,-984,48,0:53:43
432,-252,-442,0,0,-3,42,-983,49,0:53:43
414,-261,-442,2,4,-2,42,-983,49,0:53:43
414,-246,-435,1,8,-4,42,-982,48,0:53:43
466,-252,-457,0,9,-6,46,-982,50,0:53:43
427,-250,-432,-1,15,-7,46,-983,51,0:53:43
429,-238,-445,1,11,-5,45,-984,51,0:53:43
448,-255,-447,2,9,-4,45,-983,53,0:53:43
430,-256,-429,2,10,-3,42,-983,51,0:53:43
445,-238,-448,0,10,-4,40,-983,49,0:53:43
429,-261,-450,0,10,-4,41,-983,46,0:53:43
418,-238,-436,0,9,-6,42,-983,47,0:53:43
442,-256,-448,-2,8,-5,44,-982,49,0:53:43
447,-262,-453,0,7,-4,42,-981,51,0:53:43
445,-247,-453,0,9,-6,42,-980,50,0:53:43
442,-234,-433,0,10,-7,46,-978,50,0:53:43
442,-259,-459,2,13,-7,49,-979,51,0:53:43
432,-252,-444,2,9,-4,47,-981,50,0:53:43
432,-252,-444,3,7,-4,47,-984,52,0:53:43
412,-234,-430,4,6,-3,44,-984,51,0:53:43
436,-246,-456,2,8,-3,44,-984,51,0:53:43
