magX[mG],magY[mG],magZ[mG],gyroX[mdps],gyroY[mdps],gyroZ[mdps],accX[mg],accY[mg],accZ[mg],hh:mm:ss.ms
307,-211,-406,1,-14,-11,21,-981,-16,12:53:44
307,-211,-406,1,-14,-11,21,-981,-16,12:53:44
307,-211,-406,1,-14,-11,21,-981,-16,12:53:44
307,-211,-406,1,-14,-11,21,-981,-16,12:53:44
307,-211,-406,1,-14,-11,21,-981,-16,12:53:44
307,-211,-406,1,-14,-11,21,-981,-16,12:53:44
307,-211,-406,1,-14,-11,21,-981,-16,12:53:44
307,-211,-406,1,-14,-11,21,-981,-16,12:53:44
307,-211,-406,1,-14,-11,21,-981,-16,12:53:44
307,-211,-406,1,-14,-11,21,-981,-16,12:53:44
307,-211,-406,1,-14,-11,21,-981,-16,12:53:44
307,-211,-406,1,-14,-11,21,-981,-16,12:53:44
307,-211,-406,1,-14,-11,21,-981,-16,12:53:44
307,-211,-406,1,-14,-11,21,-981,-16,12:53:44
307,-211,-406,1,-14,-11,21,-981,-16,12:53:44
307,-211,-406,1,-14,-11,21,-981,-16,12:53:44
307,-211,-406,1,-14,-11,21,-981,-16,12:53:44
307,-211,-406,1,-14,-11,21,-981,-16,12:53:44
307,-211,-406,1,-14,-11,21,-981,-16,12:53:44
307,-211,-406,1,-14,-11,21,-981,-16,12:53:44
307,-211,-406,1,-14,-11,21,-981,-16,12:53:44
307,-211,-406,1,-14,-11,21,-981,-16,12:53:44
307,-211,-406,1,-14,-11,21,-981,-16,12:53:44
307,-211,-406,1,-14,-11,21,-981,-16,12:53:44
307,-211,-406,1,-14,-11,21,-981,-16,12:53:44
307,-211,-406,1,-14,-11,21,-981,-16,12:53:44
307,-211,-406,1,-14,-11,21,-981,-16,12:53:44
307,-211,-406,1,-14,-11,21,-981,-16,12:53:44
307,-211,-406,1,-14,-11,21,-981,-16,12:53:44
307,-211,-406,1,-14,-11,21,-981,-16,12:53:44
307,-211,-406,1,-14,-11,21,-981,-16,12:53:44
307,-211,-406,1,-14,-11,21,-981,-16,12:53:44
307,-211,-406,1,-14,-11,21,-981,-16,12:53:44
307,-211,-406,1,-14,-11,21,-981,-16,12:53:44
307,-211,-406,1,-14,-11,21,-981,-16,12:53:44
307,-211,-406,1,-14,-11,21,-981,-16,12:53:44
307,-211,-406,1,-14,-11,21,-981,-16,12:53:44
307,-211,-406,1,-14,-11,21,-981,-16,12:53:44
307,-211,-406,1,-14,-11,21,-981,-16,12:53:44
307,-211,-406,1,-14,-11,21,-981,-16,12:53:44
307,-211,-406,1,-14,-11,21,-981,-16,12:53:44
307,-211,-406,1,-14,-11,21,-981,-16,12:53:44
307,-211,-406,1,-14,-11,21,-981,-16,12:53:44
307,-211,-406,1,-14,-11,21,-981,-16,12:53:44
307,-211,-406,1,-14,-11,21,-981,-16,12:53:44
307,-211,-406,1,-14,-11,21,-981,-16,12:53:44
307,-211,-406,1,-14,-11,21,-981,-16,12:53:44
307,-211,-406,1,-14,-11,21,-981,-16,12:53:44
307,-211,-406,1,-14,-11,21,-981,-16,12:53:44
307,-211,-406,1,-14,-11,21,-981,-16,12:53:44
307,-211,-406,1,-14,-11,21,-981,-16,12:53:44
307,-211,-406,1,-14,-11,21,-981,-16,12:53:44
307,-211,-406,1,-14,-11,21,-981,-16,12:53:44
307,-211,-406,1,-14,-11,21,-981,-16,12:53:44
307,-211,-406,1,-14,-11,21,-981,-16,12:53:44
307,-211,-406,1,-14,-11,21,-981,-16,12:53:44
307,-211,-406,1,-14,-11,21,-981,-16,12:53:44
307,-211,-406,1,-14,-11,21,-981,-16,12:53:44
307,-211,-406,1,-14,-11,21,-981,-16,12:53:44
307,-211,-406,1,-14,-11,21,-981,-16,12:53:44
307,-211,-406,1,-14,-11,21,-981,-16,12:53:44
307,-211,-406,1,-14,-11,21,-981,-16,12:53:44
307,-211,-406,1,-14,-11,21,-981,-16,12:53:44
307,-211,-406,1,-14,-11,21,-981,-16,12:53:44
307,-211,-406,1,-14,-11,21,-981,-16,12:53:44
307,-211,-406,1,-14,-11,21,-981,-16,12:53:44
307,-211,-406,1,-14,-11,21,-981,-16,12:53:44
307,-211,-406,1,-14,-11,21,-981,-16,12:53:44
307,-211,-406,1,-14,-11,21,-981,-16,12:53:44
307,-211,-406,1,-14,-11,21,-981,-16,12:53:44
307,-211,-406,1,-14,-11,21,-981,-16,12:53:44
307,-211,-406,1,-14,-11,21,-981,-16,12:53:44
307,-211,-406,1,-14,-11,21,-981,-16,12:53:44
307,-211,-406,1,-14,-11,21,-981,-16,12:53:44
307,-211,-406,1,-14,-11,21,-981,-16,12:53:44
307,-211,-406,1,-14,-11,21,-981,-16,12:53:44
307,-211,-406,1,-14,-11,21,-981,-16,12:53:44
307,-211,-406,1,-14,-11,21,-981,-16,12:53:44
307,-211,-406,1,-14,-11,21,-981,-16,12:53:44
307,-211,-406,1,-14,-11,21,-981,-16,12:53:44
307,-211,-406,1,-14,-11,21,-981,-16,12:53:44
307,-211,-406,1,-14,-11,21,-981,-16,12:53:44
307,-211,-406,1,-14,-11,21,-981,-16,12:53:44
307,-211,-406,1,-14,-11,21,-981,-16,12:53:44
307,-211,-406,1,-14,-11,21,-981,-16,12:53:44
307,-211,-406,1,-14,-11,21,-981,-16,12:53:44
307,-211,-406,1,-14,-11,21,-981,-16,12:53:44
307,-211,-406,1,-14,-11,21,-981,-16,12:53:44
307,-211,-406,1,-14,-11,21,-981,-16,12:53:44
307,-211,-406,1,-14,-11,21,-981,-16,12:53:44
307,-211,-406,1,-14,-11,21,-981,-16,12:53:44
318,-244,-462,-6,6,-20,160,-972,35,13:03:37
315,-243,-448,4,6,-20,149,-969,40,13:03:37
306,-231,-466,2,9,-21,144,-969,39,13:03:37
304,-255,-489,-1,7,-21,141,-968,44,13:03:37
303,-252,-487,-7,5,-21,142,-967,50,13:03:37
300,-267,-478,-7,5,-21,145,-968,48,13:03:37
310,-252,-451,-8,6,-21,145,-969,44,13:03:37
285,-238,-454,-5,7,-21,142,-970,41,13:03:37
285,-238,-454,-4,11,-21,139,-972,39,13:03:37
306,-250,-462,-7,18,-23,138,-973,42,13:03:37
297,-229,-454,-7,20,-25,140,-973,47,13:03:37
322,-237,-477,-10,15,-27,140,-972,49,13:03:37
322,-249,-477,-11,14,-28,139,-971,46,13:03:37
312,-241,-478,-9,16,-28,139,-972,44,13:03:37
304,-223,-451,-5,11,-28,140,-972,46,13:03:37
304,-223,-451,-2,9,-26,143,-973,45,13:03:37
312,-241,-463,-4,13,-26,140,-973,46,13:03:37
301,-256,-454,-7,21,-28,136,-976,49,13:03:37
328,-241,-478,-11,23,-31,132,-977,53,13:03:37
312,-241,-478,-14,20,-32,126,-976,52,13:03:37
322,-247,-475,-15,19,-32,126,-976,52,13:03:38
322,-247,-459,-10,15,-30,125,-976,48,13:03:38
322,-247,-459,-10,14,-29,124,-975,50,13:03:38
325,-238,-468,-11,9,-28,123,-977,53,13:03:38
304,-247,-486,-11,1,-28,127,-977,56,13:03:38
330,-249,-457,-11,1,-28,131,-972,56,13:03:38
330,-246,-474,-11,-6,-27,133,-966,50,13:03:38
316,-244,-478,-9,-11,-26,133,-966,44,13:03:38
306,-250,-462,-8,-11,-26,130,-969,42,13:03:38
306,-250,-462,-7,-7,-26,130,-972,43,13:03:38
321,-246,-463,-7,-4,-27,134,-973,46,13:03:38
324,-249,-468,-4,-3,-25,135,-975,50,13:03:38
319,-252,-465,-4,0,-25,133,-972,53,13:03:38
307,-225,-459,-2,-2,-26,130,-969,53,13:03:38
313,-231,-478,-4,-3,-28,129,-969,50,13:03:38
310,-253,-474,-8,-9,-28,130,-971,50,13:03:38
310,-253,-474,-8,-2,-28,133,-971,52,13:03:38
328,-228,-457,-7,-2,-26,136,-973,51,13:03:38
298,-253,-469,-7,-2,-24,134,-975,49,13:03:38
324,-243,-460,-5,0,-23,132,-976,49,13:03:38
316,-241,-474,-4,2,-22,132,-976,49,13:03:38
313,-241,-469,-2,3,-21,129,-977,52,13:03:38
307,-249,-462,-1,0,-22,126,-974,56,13:03:38
307,-249,-462,-1,0,-22,128,-969,56,13:03:38
331,-250,-453,-3,-1,-23,130,-969,52,13:03:38
322,-240,-474,-2,2,-22,132,-969,47,13:03:38
319,-250,-489,0,5,-22,133,-967,42,13:03:38
312,-246,-468,0,7,-21,131,-968,42,13:03:38
319,-256,-466,3,7,-21,127,-969,45,13:03:38
312,-235,-480,4,7,-19,123,-973,46,13:03:38
312,-235,-480,5,5,-19,123,-975,47,13:03:38
306,-232,-474,5,2,-18,122,-976,50,13:03:38
309,-243,-475,3,-2,-18,119,-978,51,13:03:38
306,-234,-474,2,-3,-16,119,-977,50,13:03:38
325,-252,-472,-1,-3,-17,123,-975,52,13:03:38
319,-246,-474,-3,-7,-19,125,-975,53,13:03:38
312,-247,-444,-2,-10,-21,125,-978,51,13:03:38
312,-247,-444,-4,-9,-22,126,-980,49,13:03:38
322,-253,-493,-5,-9,-23,126,-978,48,13:03:38
318,-249,-478,-5,-11,-23,126,-980,48,13:03:38
336,-256,-484,-6,-9,-23,123,-980,48,13:03:38
322,-237,-478,-7,-10,-22,119,-981,49,13:03:38
339,-252,-465,-7,-13,-22,121,-979,51,13:03:38
304,-244,-475,-7,-16,-21,125,-977,50,13:03:38
304,-244,-475,-7,-16,-21,126,-975,48,13:03:38
334,-237,-477,-6,-17,-19,126,-972,47,13:03:38
333,-258,-483,-4,-17,-18,126,-972,48,13:03:38
340,-250,-459,-2,-18,-16,125,-973,49,13:03:38
319,-232,-456,-2,-17,-16,121,-970,47,13:03:38
318,-252,-484,-4,-15,-15,118,-969,46,13:03:38
297,-246,-462,-4,0,-17,117,-973,50,13:03:38
297,-246,-462,-4,-6,-17,118,-977,53,13:03:38
322,-249,-477,-7,-14,-17,121,-979,52,13:03:38
307,-253,-468,-7,-21,-17,125,-982,52,13:03:38
316,-244,-477,-6,-24,-16,127,-983,52,13:03:38
325,-231,-481,-3,-29,-16,124,-979,52,13:03:38
309,-232,-480,0,-35,-14,121,-977,49,13:03:38
310,-249,-454,0,-39,-11,119,-974,45,13:03:38
310,-249,-454,1,-32,-12,117,-972,44,13:03:38
300,-259,-480,2,-23,-14,117,-972,44,13:03:38
322,-247,-460,3,-18,-14,119,-971,44,13:03:38
336,-240,-477,1,-20,-14,124,-970,47,13:03:38
319,-240,-463,0,-23,-14,128,-968,49,13:03:38
318,-252,-472,0,-24,-14,127,-965,49,13:03:38
310,-262,-480,0,-24,-14,124,-969,49,13:03:38
310,-262,-480,1,-18,-14,122,-973,49,13:03:38
322,-249,-478,3,-14,-14,121,-977,51,13:03:38
328,-256,-468,3,-16,-12,125,-976,52,13:03:38
327,-271,-463,2,-20,-10,131,-973,50,13:03:38
312,-270,-466,0,-18,-10,128,-975,48,13:03:38
330,-247,-481,0,-14,-11,122,-978,47,13:03:38
306,-247,-429,0,-18,-12,124,-978,47,13:03:38
306,-247,-429,-2,-15,-13,125,-975,47,13:03:38
318,-252,-474,-2,-14,-13,124,-971,46,13:03:38
330,-231,-474,0,-12,-12,122,-971,41,13:03:38
328,-231,-480,-1,-8,-13,120,-971,40,13:03:38
301,-241,-474,-3,-4,-14,124,-975,43,13:03:38
319,-241,-457,-3,-4,-15,128,-974,45,13:03:38
318,-246,-493,-2,-9,-13,128,-974,45,13:03:38
318,-246,-493,0,-3,-13,130,-971,45,13:03:38
322,-243,-465,2,-2,-11,127,-973,43,13:03:38
304,-253,-474,3,-1,-12,123,-972,40,13:03:38
313,-243,-480,4,-2,-11,124,-971,39,13:03:38
342,-244,-483,4,-2,-11,124,-973,39,13:03:38
325,-244,-468,5,0,-11,122,-972,39,13:03:38
312,-241,-456,7,2,-13,122,-973,40,13:03:38
312,-241,-456,7,3,-14,120,-974,41,13:03:38
282,-253,-463,6,5,-14,119,-976,42,13:03:38
327,-249,-484,7,8,-14,120,-977,41,13:03:38
328,-246,-474,11,9,-14,122,-974,38,13:03:38
315,-253,-492,12,9,-13,125,-975,41,13:03:38
322,-238,-471,11,4,-12,127,-978,44,13:03:38
325,-252,-480,7,7,-14,126,-976,40,13:03:38
325,-252,-480,7,7,-16,122,-974,43,13:03:38
327,-247,-453,4,7,-16,121,-973,47,13:03:38
312,-252,-465,2,6,-16,124,-975,47,13:03:38
301,-252,-465,4,2,-15,126,-974,46,13:03:38
328,-244,-454,6,1,-14,126,-973,44,13:03:38
313,-258,-474,7,4,-14,126,-973,44,13:03:38
312,-247,-462,9,4,-15,126,-975,44,13:03:38
312,-247,-462,8,4,-16,127,-976,48,13:03:38
309,-250,-490,6,2,-15,128,-975,53,13:03:38
306,-226,-477,7,-2,-13,129,-977,55,13:03:38
319,-234,-477,7,-2,-13,128,-979,54,13:03:38
321,-235,-483,7,-5,-13,125,-978,56,13:03:38
315,-232,-477,5,-9,-14,122,-976,58,13:03:38
300,-256,-456,4,-12,-13,123,-975,55,13:03:38
300,-256,-456,4,-10,-12,126,-972,50,13:03:38
316,-247,-463,7,-7,-11,126,-973,47,13:03:39
312,-225,-477,9,-3,-11,127,-971,46,13:03:39
318,-238,-487,9,0,-12,126,-968,45,13:03:39
306,-234,-466,9,1,-13,124,-968,44,13:03:39
321,-252,-465,9,3,-12,124,-969,46,13:03:39
298,-250,-459,12,-5,-11,127,-970,48,13:03:39
298,-250,-459,12,0,-10,129,-972,48,13:03:39
318,-252,-466,11,0,-10,130,-971,49,13:03:39
321,-249,-475,13,-1,-9,129,-974,52,13:03:39
304,-232,-474,11,-6,-9,128,-979,53,13:03:39
327,-253,-469,10,-12,-9,128,-979,53,13:03:39
295,-249,-468,9,-11,-10,130,-978,53,13:03:39
304,-250,-463,5,-12,-11,131,-977,52,13:03:39
304,-250,-463,4,-11,-13,131,-975,50,13:03:39
313,-238,-465,4,-10,-13,132,-972,48,13:03:39
303,-241,-466,4,-10,-13,130,-973,45,13:03:39
306,-249,-435,4,-4,-14,129,-976,44,13:03:39
318,-234,-472,7,1,-14,129,-975,47,13:03:39
313,-237,-478,7,0,-13,129,-972,50,13:03:39
315,-240,-456,4,-5,-14,133,-969,48,13:03:39
315,-240,-456,2,-7,-14,133,-971,48,13:03:39
325,-222,-456,3,-5,-14,129,-975,47,13:03:39
309,-250,-471,6,-2,-14,128,-976,44,13:03:39
306,-237,-456,7,0,-16,131,-975,47,13:03:39
333,-234,-453,9,-2,-14,132,-974,46,13:03:39
340,-256,-460,9,-6,-14,130,-972,47,13:03:39
315,-235,-457,9,2,-15,130,-971,51,13:03:39
315,-235,-457,10,-7,-14,129,-971,50,13:03:39
312,-259,-475,11,-13,-14,129,-971,45,13:03:39
327,-247,-493,10,-12,-14,129,-972,41,13:03:39
316,-249,-478,12,-8,-14,129,-972,41,13:03:39
300,-238,-469,14,-1,-15,128,-973,41,13:03:39
303,-253,-462,12,3,-16,126,-973,42,13:03:39
337,-244,-471,12,1,-16,127,-973,45,13:03:39
337,-244,-471,12,1,-16,130,-972,50,13:03:39
324,-244,-465,9,-2,-16,129,-975,51,13:03:39
318,-232,-468,9,-4,-15,126,-976,47,13:03:39
307,-237,-469,10,-7,-15,127,-974,45,13:03:39
325,-250,-480,11,-9,-14,128,-973,42,13:03:39
313,-255,-465,11,-13,-13,127,-973,41,13:03:39
321,-243,-444,10,-24,-12,123,-971,37,13:03:39
321,-243,-444,8,-7,-14,121,-971,37,13:03:39
325,-252,-462,4,4,-17,122,-971,42,13:03:39
327,-234,-460,2,5,-18,121,-974,43,13:03:39
312,-256,-480,1,3,-19,121,-978,40,13:03:39
331,-240,-472,2,2,-19,124,-978,36,13:03:39
307,-246,-462,4,-1,-19,126,-978,37,13:03:39
327,-265,-468,8,2,-20,125,-981,41,13:03:39
327,-265,-468,9,-6,-18,124,-978,41,13:03:39
309,-265,-456,9,-11,-18,122,-972,36,13:03:39
322,-250,-457,9,-8,-17,122,-972,36,13:03:39
300,-238,-475,11,-6,-17,121,-970,37,13:03:39
319,-246,-466,9,-7,-16,124,-974,41,13:03:39
313,-255,-483,7,-7,-17,128,-976,39,13:03:39
313,-255,-483,7,-7,-17,129,-975,38,13:03:39
291,-243,-463,7,-9,-17,128,-974,40,13:03:39
327,-247,-486,5,-9,-16,125,-972,40,13:03:39
334,-237,-465,4,-7,-17,125,-974,38,13:03:39
334,-225,-451,6,-6,-17,125,-976,37,13:03:39
333,-240,-477,5,-4,-18,124,-978,39,13:03:39
304,-240,-474,4,0,-18,122,-976,41,13:03:39
304,-240,-474,4,3,-18,125,-972,41,13:03:39
325,-241,-474,1,-2,-20,127,-973,40,13:03:39
337,-244,-460,-1,-2,-21,129,-973,38,13:03:39
330,-259,-459,-2,0,-19,129,-975,40,13:03:39
313,-241,-474,0,2,-20,128,-975,42,13:03:39
324,-253,-483,0,1,-20,127,-976,42,13:03:39
322,-259,-468,-2,1,-20,123,-979,41,13:03:39
322,-259,-468,-4,-4,-18,121,-980,41,13:03:39
312,-241,-459,-2,-4,-18,120,-977,43,13:03:39
324,-246,-466,-2,-5,-19,120,-977,43,13:03:39
312,-261,-478,-3,-7,-19,116,-974,42,13:03:39
330,-246,-477,-1,-2,-19,112,-974,35,13:03:39
328,-241,-462,-1,0,-19,110,-976,32,13:03:39
331,-244,-474,-1,0,-19,111,-976,37,13:03:39
331,-244,-474,-4,-9,-18,112,-976,40,13:03:39
315,-246,-444,-3,-12,-18,110,-978,37,13:03:39
333,-243,-454,-2,-17,-18,111,-977,36,13:03:39
313,-243,-474,-2,-23,-16,110,-973,38,13:03:39
304,-231,-471,0,-26,-15,108,-972,37,13:03:39
322,-246,-478,0,-27,-14,112,-974,36,13:03:39
318,-246,-472,1,-30,-10,116,-975,38,13:03:39
318,-246,-472,2,-35,-8,118,-975,39,13:03:39
321,-240,-454,3,-35,-8,120,-976,38,13:03:39
318,-258,-471,3,-32,-9,120,-977,39,13:03:39
303,-255,-474,3,-28,-11,122,-977,41,13:03:39
309,-240,-465,2,-26,-12,126,-975,41,13:03:39
312,-229,-465,0,-28,-13,127,-974,39,13:03:39
321,-249,-468,0,-27,-13,126,-975,35,13:03:39
321,-249,-468,2,-19,-13,126,-975,35,13:03:39
306,-258,-445,3,-19,-13,124,-975,35,13:03:39
310,-255,-460,2,-18,-13,121,-975,37,13:03:39
310,-255,-459,1,-18,-11,122,-973,41,13:03:39
328,-247,-466,1,-23,-10,125,-973,41,13:03:39
313,-241,-474,1,-23,-10,124,-976,40,13:03:39
322,-225,-466,0,-20,-11,123,-975,38,13:03:39
322,-225,-466,0,-14,-11,124,-974,39,13:03:39
331,-243,-460,1,-9,-13,124,-973,37,13:03:39
322,-253,-474,2,-4,-14,123,-974,36,13:03:39
306,-247,-451,3,-7,-13,124,-974,38,13:03:39
321,-244,-468,2,-4,-12,126,-974,39,13:03:39
316,-250,-480,1,-6,-13,123,-974,39,13:03:39
316,-250,-480,1,-5,-13,121,-974,39,13:03:39
321,-243,-453,2,-9,-11,124,-976,40,13:03:39
321,-243,-453,3,-6,-11,125,-977,40,13:03:39
312,-241,-471,1,-4,-11,124,-976,36,13:03:39
319,-255,-453,1,0,-12,120,-976,35,13:03:39
322,-243,-472,2,0,-12,120,-974,41,13:03:40
316,-244,-451,0,0,-12,120,-974,41,13:03:40
319,-247,-468,0,-2,-11,123,-973,46,13:03:40
319,-247,-468,0,0,-11,122,-976,43,13:03:40
319,-237,-469,0,-1,-10,122,-977,41,13:03:40
325,-249,-481,2,-2,-9,124,-976,39,13:03:40
316,-235,-457,4,0,-9,125,-974,36,13:03:40
333,-241,-492,4,0,-9,124,-973,37,13:03:40
313,-238,-463,6,2,-8,125,-973,40,13:03:40
312,-243,-465,4,2,-9,123,-971,41,13:03:40
312,-243,-465,3,3,-10,123,-972,38,13:03:40
304,-235,-451,4,2,-11,126,-974,36,13:03:40
316,-250,-469,4,1,-11,127,-974,37,13:03:40
315,-253,-469,2,0,-10,127,-976,38,13:03:40
342,-241,-465,4,1,-8,127,-976,39,13:03:40
318,-222,-463,4,1,-7,126,-973,42,13:03:40
334,-234,-483,5,1,-7,127,-973,42,13:03:40
298,-235,-475,4,0,-9,126,-973,35,13:03:40
307,-231,-454,1,4,-9,126,-972,37,13:03:40
315,-249,-469,0,4,-10,126,-974,38,13:03:40
321,-259,-468,1,6,-10,125,-976,38,13:03:40
327,-247,-474,-2,8,-9,125,-976,38,13:03:40
322,-240,-465,-4,7,-9,128,-976,39,13:03:40
322,-240,-465,-4,7,-10,130,-974,39,13:03:40
315,-225,-451,-2,9,-12,132,-973,39,13:03:40
315,-225,-451,-2,9,-12,132,-973,38,13:03:40
325,-243,-475,-2,11,-12,129,-976,38,13:03:40
316,-234,-480,1,11,-13,127,-977,39,13:03:40
316,-253,-471,2,9,-12,125,-975,39,13:03:40
333,-243,-477,4,8,-11,125,-973,36,13:03:40
333,-243,-477,7,9,-10,128,-971,36,13:03:40
316,-250,-454,8,1,-9,132,-969,40,13:03:40
316,-250,-454,7,10,-10,135,-970,43,13:03:40
316,-252,-474,9,15,-11,138,-970,42,13:03:40
334,-265,-459,11,17,-12,139,-971,43,13:03:40
315,-249,-466,12,23,-13,139,-970,45,13:03:40
321,-237,-474,16,28,-12,140,-967,48,13:03:40
321,-237,-474,19,33,-12,141,-967,51,13:03:40
324,-255,-457,23,30,-11,141,-971,50,13:03:40
315,-231,-451,23,31,-12,137,-974,46,13:03:40
312,-255,-462,22,31,-12,137,-970,43,13:03:40
339,-241,-465,20,30,-14,132,-970,43,13:03:40
319,-246,-468,18,28,-15,130,-970,43,13:03:40
321,-234,-472,18,24,-15,126,-975,45,13:03:40
321,-234,-472,18,24,-15,121,-979,44,13:03:40
310,-253,-451,18,23,-16,116,-980,40,13:03:40
310,-253,-451,17,21,-16,112,-980,37,13:03:40
334,-241,-463,16,23,-16,111,-980,36,13:03:40
325,-252,-480,13,23,-19,110,-981,39,13:03:40
354,-255,-465,9,16,-21,109,-981,36,13:03:40
319,-256,-468,7,18,-21,109,-980,31,13:03:40
319,-256,-468,8,13,-21,111,-977,35,13:03:40
318,-252,-462,9,-12,-21,114,-974,36,13:03:40
307,-249,-457,11,-18,-17,117,-973,35,13:03:40
304,-234,-450,13,-27,-15,118,-972,35,13:03:40
327,-226,-468,14,-35,-12,116,-971,35,13:03:40
322,-253,-465,16,-36,-10,119,-972,37,13:03:40
328,-241,-456,18,-37,-9,125,-972,38,13:03:40
328,-241,-456,19,-35,-11,127,-973,37,13:03:40
312,-250,-453,20,-21,-14,130,-977,40,13:03:40
312,-250,-453,19,-16,-16,130,-977,40,13:03:40
334,-262,-471,17,-11,-18,134,-979,44,13:03:40
316,-241,-468,16,-4,-20,136,-978,47,13:03:40
334,-252,-459,13,-2,-21,137,-978,50,13:03:40
334,-252,-459,13,-2,-21,138,-975,48,13:03:40
325,-240,-466,11,1,-21,137,-974,43,13:03:40
319,-246,-487,11,4,-17,134,-971,41,13:03:40
310,-250,-460,14,7,-15,132,-970,44,13:03:40
324,-250,-480,16,10,-13,128,-971,46,13:03:40
309,-240,-465,18,12,-11,125,-973,46,13:03:40
324,-253,-465,18,13,-10,124,-975,47,13:03:40
324,-253,-465,18,16,-10,122,-976,47,13:03:40
315,-255,-463,18,15,-11,123,-977,42,13:03:40
319,-261,-462,18,14,-10,122,-979,31,13:03:40
319,-261,-462,18,16,-12,118,-979,29,13:03:40
319,-228,-465,16,18,-13,115,-977,32,13:03:40
331,-238,-454,14,17,-14,115,-974,31,13:03:40
327,-250,-460,10,12,-14,110,-974,33,13:03:40
327,-250,-460,6,7,-15,106,-978,32,13:03:40
324,-237,-456,5,0,-13,109,-979,34,13:03:40
322,-252,-469,7,-9,-12,109,-979,34,13:03:40
325,-244,-469,8,-11,-11,112,-980,33,13:03:40
318,-247,-457,7,-11,-12,113,-983,31,13:03:40
330,-249,-460,8,-16,-12,116,-983,32,13:03:40
330,-250,-475,8,-16,-12,117,-979,31,13:03:40
330,-250,-475,9,-18,-12,115,-976,30,13:03:40
315,-234,-465,11,-21,-11,116,-972,25,13:03:40
304,-253,-459,11,-25,-12,117,-973,23,13:03:40
313,-250,-469,12,-26,-13,118,-976,25,13:03:40
321,-244,-457,12,-26,-14,118,-978,27,13:03:40
330,-244,-474,12,-32,-14,118,-979,29,13:03:40
309,-255,-474,11,-37,-14,120,-978,29,13:03:40
309,-255,-474,11,-35,-14,120,-981,30,13:03:40
322,-256,-483,9,-35,-14,119,-980,36,13:03:40
310,-252,-453,7,-42,-15,119,-976,37,13:03:40
310,-252,-453,4,-43,-15,121,-977,36,13:03:40
321,-243,-465,4,-44,-13,123,-980,38,13:03:40
333,-243,-451,2,-44,-14,121,-982,36,13:03:40
306,-241,-472,2,-42,-14,121,-983,32,13:03:40
306,-241,-472,2,-36,-15,122,-981,33,13:03:40
318,-240,-451,2,-34,-15,122,-981,33,13:03:40
309,-240,-441,2,-35,-14,124,-977,35,13:03:40
304,-256,-450,2,-36,-15,123,-975,32,13:03:40
325,-240,-462,2,-33,-14,120,-972,27,13:03:40
342,-253,-468,2,-33,-14,121,-968,28,13:03:40
336,-238,-444,4,-34,-14,122,-970,31,13:03:41
336,-238,-444,3,-38,-12,123,-972,32,13:03:41
322,-258,-465,0,-44,-12,124,-975,31,13:03:41
315,-264,-456,0,-40,-10,128,-978,34,13:03:41
315,-264,-456,0,-46,-8,130,-981,38,13:03:41
321,-247,-471,-2,-51,-8,130,-982,39,13:03:41
318,-243,-457,-2,-53,-7,130,-981,33,13:03:41
319,-244,-436,-2,-45,-8,129,-978,23,13:03:41
319,-244,-436,0,-31,-9,129,-972,16,13:03:41
309,-244,-456,1,-18,-10,130,-969,21,13:03:41
307,-240,-450,0,-16,-9,133,-969,32,13:03:41
312,-237,-453,2,-25,-7,134,-972,30,13:03:41
316,-267,-439,3,-31,-6,132,-973,21,13:03:41
312,-240,-448,4,-32,-5,132,-973,21,13:03:41
316,-261,-448,4,-31,-4,129,-972,17,13:03:41
316,-261,-448,3,-32,-2,129,-976,19,13:03:41
318,-250,-447,0,-33,-4,132,-978,20,13:03:41
286,-235,-459,-1,-30,-7,130,-976,17,13:03:41
286,-235,-459,-3,-23,-9,124,-974,14,13:03:41
301,-241,-445,-3,-23,-9,125,-972,13,13:03:41
322,-253,-465,-4,-21,-11,129,-972,16,13:03:41
324,-249,-463,-4,-23,-13,132,-973,19,13:03:41
324,-249,-463,-4,-21,-15,132,-972,21,13:03:41
330,-240,-475,-2,-18,-15,134,-972,24,13:03:41
325,-237,-462,1,-21,-14,138,-974,27,13:03:41
316,-246,-442,1,-18,-13,140,-975,30,13:03:41
301,-226,-433,1,-21,-9,140,-974,27,13:03:41
324,-244,-472,3,-22,-7,138,-973,21,13:03:41
304,-255,-456,5,-16,-6,137,-973,18,13:03:41
304,-255,-456,7,-9,-7,132,-973,20,13:03:41
321,-262,-453,8,-2,-8,129,-972,25,13:03:41
306,-252,-451,8,-4,-9,127,-974,30,13:03:41
306,-252,-451,5,3,-10,127,-975,29,13:03:41
307,-252,-471,0,8,-13,127,-974,25,13:03:41
321,-240,-456,0,9,-15,127,-974,25,13:03:41
318,-241,-465,2,12,-14,124,-971,24,13:03:41
316,-249,-459,3,17,-14,122,-971,25,13:03:41
316,-249,-459,3,16,-13,122,-973,27,13:03:41
319,-243,-457,0,16,-14,122,-977,29,13:03:41
297,-246,-456,0,16,-14,122,-980,29,13:03:41
315,-250,-447,-1,16,-14,123,-979,32,13:03:41
297,-240,-456,-3,13,-16,122,-979,31,13:03:41
304,-243,-462,-2,9,-17,120,-980,23,13:03:41
315,-241,-477,1,11,-18,117,-978,17,13:03:41
315,-241,-477,5,21,-18,116,-975,18,13:03:41
309,-261,-439,10,25,-20,119,-973,24,13:03:41
309,-240,-456,7,16,-19,120,-974,29,13:03:41
337,-253,-459,7,9,-16,124,-975,30,13:03:41
312,-234,-471,7,3,-13,130,-975,24,13:03:41
313,-241,-436,11,0,-10,131,-974,17,13:03:41
324,-249,-478,15,-2,-9,129,-974,17,13:03:41
324,-249,-478,14,4,-11,125,-973,19,13:03:41
291,-247,-438,9,4,-12,125,-975,26,13:03:41
291,-247,-438,5,8,-14,125,-977,31,13:03:41
319,-249,-469,4,4,-15,125,-977,31,13:03:41
310,-253,-466,1,4,-15,127,-976,29,13:03:41
313,-253,-445,0,6,-16,129,-975,24,13:03:41
319,-265,-454,1,6,-15,128,-974,22,13:03:41
319,-265,-454,1,9,-15,128,-975,22,13:03:41
327,-246,-466,2,11,-14,129,-974,24,13:03:41
315,-256,-471,0,11,-14,129,-973,28,13:03:41
316,-252,-462,2,8,-12,129,-975,31,13:03:41
322,-252,-465,3,7,-12,131,-977,29,13:03:41
319,-232,-444,4,8,-11,131,-976,27,13:03:41
306,-243,-465,4,11,-11,129,-974,26,13:03:41
306,-243,-465,4,16,-13,128,-974,25,13:03:41
297,-244,-454,4,9,-14,127,-974,29,13:03:41
297,-244,-454,2,12,-13,128,-974,31,13:03:41
313,-256,-463,4,15,-13,128,-975,27,13:03:41
340,-220,-474,5,16,-13,128,-977,26,13:03:41
310,-244,-442,4,18,-13,126,-976,28,13:03:41
322,-256,-459,3,18,-14,123,-972,25,13:03:41
322,-256,-459,2,17,-12,118,-972,25,13:03:41
309,-249,-450,4,16,-13,114,-975,27,13:03:41
324,-237,-456,4,14,-12,114,-975,27,13:03:41
327,-270,-451,3,18,-12,114,-977,28,13:03:41
315,-234,-457,2,15,-12,116,-978,29,13:03:41
307,-228,-454,2,15,-12,116,-979,31,13:03:41
307,-228,-454,0,7,-11,117,-977,31,13:03:41
318,-261,-450,-1,1,-11,117,-974,30,13:03:41
312,-244,-465,-3,0,-11,115,-976,31,13:03:41
312,-244,-460,-7,-3,-11,117,-979,32,13:03:41
316,-253,-459,-7,-9,-10,119,-977,32,13:03:41
315,-237,-474,-9,-14,-7,119,-976,30,13:03:41
327,-246,-468,-9,-16,-8,119,-980,26,13:03:41
327,-246,-468,-7,-12,-10,119,-980,24,13:03:41
328,-259,-471,-9,-4,-11,119,-977,31,13:03:41
324,-234,-451,-11,-1,-13,121,-975,34,13:03:41
328,-235,-466,-9,-6,-13,125,-973,35,13:03:41
304,-249,-453,-9,-15,-11,127,-973,35,13:03:41
309,-250,-454,-7,-21,-10,127,-972,30,13:03:41
322,-240,-466,-5,-20,-11,126,-970,26,13:03:41
322,-240,-466,-2,-15,-11,124,-972,24,13:03:41
286,-238,-460,0,-11,-11,124,-972,24,13:03:41
295,-249,-439,3,-7,-10,125,-974,27,13:03:41
304,-237,-441,5,-11,-9,125,-975,33,13:03:41
325,-249,-475,7,-18,-6,128,-975,36,13:03:41
327,-241,-454,7,-18,-6,129,-975,33,13:03:41
316,-243,-462,8,-21,-5,126,-977,30,13:03:41
316,-243,-462,7,-23,-6,125,-977,32,13:03:41
304,-252,-463,7,-21,-7,124,-975,30,13:03:41
313,-246,-445,7,-16,-7,125,-975,27,13:03:41
303,-250,-445,4,-13,-9,127,-973,28,13:03:41
321,-231,-454,4,-8,-9,129,-972,30,13:03:41
312,-238,-462,4,-8,-9,131,-975,33,13:03:41
319,-262,-456,3,-11,-8,131,-974,31,13:03:41
319,-262,-456,3,-12,-7,129,-972,28,13:03:41
322,-240,-469,4,-12,-8,130,-972,30,13:03:42
319,-259,-441,4,-18,-7,132,-973,31,13:03:42
315,-249,-441,7,-11,-7,131,-975,32,13:03:42
316,-243,-460,7,-10,-7,133,-975,34,13:03:42
304,-243,-465,7,-8,-7,135,-976,34,13:03:42
318,-246,-444,5,-9,-7,134,-978,34,13:03:42
318,-246,-444,4,-11,-9,134,-978,34,13:03:42
312,-237,-456,4,-7,-9,132,-977,31,13:03:42
315,-247,-438,4,-9,-9,133,-974,27,13:03:42
315,-247,-438,3,-4,-9,132,-973,28,13:03:42
340,-253,-463,4,-1,-10,129,-971,29,13:03:42
322,-255,-475,4,-1,-10,130,-972,31,13:03:42
312,-256,-459,2,-1,-11,128,-974,30,13:03:42
312,-256,-459,3,0,-10,129,-974,27,13:03:42
307,-261,-447,5,1,-11,133,-973,28,13:03:42
291,-258,-469,4,-2,-10,133,-973,27,13:03:42
310,-258,-457,7,3,-11,133,-974,27,13:03:42
319,-247,-466,7,10,-11,131,-975,27,13:03:42
315,-241,-469,6,11,-11,130,-974,25,13:03:42
303,-234,-477,5,9,-10,129,-973,25,13:03:42
303,-234,-477,4,11,-11,127,-973,24,13:03:42
322,-240,-451,4,14,-11,127,-973,24,13:03:42
307,-247,-439,5,7,-11,129,-971,29,13:03:42
307,-247,-439,4,9,-11,131,-972,32,13:03:42
315,-246,-450,3,9,-10,129,-974,28,13:03:42
316,-240,-465,4,8,-9,129,-974,28,13:03:42
327,-249,-448,4,7,-10,127,-976,25,13:03:42
327,-249,-448,2,3,-11,128,-977,27,13:03:42
334,-241,-454,5,4,-10,129,-976,23,13:03:42
304,-258,-477,7,1,-10,127,-973,21,13:03:42
318,-250,-468,7,1,-10,124,-972,24,13:03:42
307,-252,-477,3,2,-11,123,-973,26,13:03:42
297,-243,-450,1,1,-13,127,-974,26,13:03:42
321,-261,-450,2,-2,-14,130,-977,25,13:03:42
321,-261,-450,2,-4,-14,128,-980,25,13:03:42
331,-238,-474,4,-5,-14,126,-978,25,13:03:42
322,-247,-438,4,4,-15,128,-976,25,13:03:42
298,-235,-456,8,-1,-15,130,-975,27,13:03:42
315,-253,-454,9,-4,-14,129,-973,29,13:03:42
315,-241,-468,10,-7,-12,129,-972,32,13:03:42
306,-258,-459,9,-8,-12,130,-972,30,13:03:42
306,-258,-459,9,-9,-11,132,-973,29,13:03:42
316,-241,-463,9,-11,-10,134,-974,30,13:03:42
286,-234,-459,11,-9,-10,134,-974,30,13:03:42
286,-234,-459,8,-11,-10,134,-974,31,13:03:42
301,-252,-456,4,-12,-11,134,-976,30,13:03:42
300,-250,-456,6,-8,-12,132,-976,30,13:03:42
315,-238,-463,6,-7,-14,130,-977,27,13:03:42
333,-234,-469,5,-7,-14,131,-977,28,13:03:42
333,-234,-469,5,-7,-14,131,-974,28,13:03:42
309,-246,-448,4,-4,-14,131,-971,26,13:03:42
324,-253,-457,5,-2,-13,132,-973,26,13:03:42
324,-261,-454,7,-2,-13,133,-975,25,13:03:42
328,-246,-453,9,-2,-12,135,-974,26,13:03:42
309,-258,-475,10,0,-11,134,-972,26,13:03:42
309,-258,-475,11,0,-11,134,-974,25,13:03:42
324,-250,-457,14,0,-11,131,-973,26,13:03:42
312,-255,-450,13,7,-11,128,-973,25,13:03:42
307,-241,-457,13,3,-10,126,-975,20,13:03:42
321,-240,-460,11,2,-11,126,-974,21,13:03:42
306,-241,-447,10,3,-13,128,-973,24,13:03:42
312,-240,-450,8,3,-13,132,-973,23,13:03:42
312,-240,-450,6,4,-13,133,-975,23,13:03:42
318,-235,-448,7,5,-12,131,-974,22,13:03:42
310,-250,-456,7,0,-11,128,-974,16,13:03:42
309,-247,-451,8,9,-11,128,-974,16,13:03:42
312,-268,-456,10,13,-9,129,-978,17,13:03:42
322,-256,-472,11,17,-8,130,-981,21,13:03:42
322,-256,-447,11,28,-9,128,-980,24,13:03:42
322,-256,-447,11,28,-9,123,-974,28,13:03:42
336,-270,-457,9,28,-11,122,-970,27,13:03:42
298,-261,-436,7,21,-14,122,-971,22,13:03:42
298,-261,-436,7,23,-14,119,-973,15,13:03:42
316,-267,-456,7,34,-14,118,-972,15,13:03:42
310,-255,-451,4,43,-15,121,-970,24,13:03:42
313,-249,-459,1,49,-14,122,-971,28,13:03:42
313,-249,-459,-2,59,-15,120,-973,30,13:03:42
316,-240,-462,-1,64,-15,119,-977,28,13:03:42
316,-247,-469,-3,71,-15,122,-982,27,13:03:42
319,-250,-456,5,69,-12,120,-981,30,13:03:42
309,-253,-453,13,72,-9,113,-978,32,13:03:42
313,-231,-460,17,70,-4,107,-974,34,13:03:42
328,-249,-454,20,69,-1,105,-969,37,13:03:42
328,-249,-454,21,71,2,103,-965,30,13:03:42
315,-241,-462,16,74,3,100,-957,21,13:03:42
300,-250,-471,3,85,0,100,-957,21,13:03:42
300,-250,-471,-4,86,-4,95,-946,12,13:03:42
316,-246,-480,-10,86,-3,89,-941,8,13:03:42
316,-264,-459,-11,77,4,89,-948,19,13:03:42
331,-246,-462,-11,77,4,94,-961,36,13:03:42
331,-246,-462,-17,61,14,96,-972,47,13:03:42
313,-234,-471,-23,56,24,90,-976,55,13:03:42
321,-238,-462,-25,56,34,90,-977,58,13:03:42
315,-246,-448,-21,51,43,99,-979,60,13:03:42
310,-259,-456,-9,46,51,104,-975,61,13:03:42
313,-244,-435,2,36,54,105,-964,63,13:03:42
307,-246,-471,10,23,53,102,-961,62,13:03:42
307,-246,-471,15,19,46,99,-963,60,13:03:42
321,-240,-469,22,21,39,98,-961,56,13:03:42
310,-250,-445,32,27,35,98,-964,52,13:03:42
300,-247,-471,42,17,36,106,-973,52,13:03:42
324,-235,-469,57,16,39,110,-981,54,13:03:42
316,-235,-468,72,16,46,114,-985,61,13:03:42
315,-241,-462,83,10,56,117,-986,68,13:03:42
315,-241,-462,93,-7,67,115,-986,66,13:03:42
325,-244,-475,100,-24,74,115,-986,66,13:03:42
303,-241,-465,102,-39,78,107,-983,64,13:03:42
310,-241,-465,106,-52,77,92,-981,68,13:03:43
310,-255,-466,106,-58,72,74,-976,69,13:03:43
294,-252,-454,106,-58,72,63,-966,70,13:03:43
304,-243,-459,103,-68,65,69,-958,68,13:03:43
304,-243,-459,110,-88,65,78,-950,66,13:03:43
300,-243,-462,109,-111,63,94,-944,64,13:03:43
289,-232,-453,111,-128,66,113,-941,52,13:03:43
301,-249,-460,110,-135,72,125,-942,51,13:03:43
304,-243,-463,112,-141,81,128,-945,61,13:03:43
285,-249,-456,108,-152,88,129,-952,57,13:03:43
301,-256,-456,103,-165,91,133,-964,50,13:03:43
301,-256,-456,102,-175,94,134,-972,57,13:03:43
277,-243,-460,106,-189,99,139,-972,57,13:03:43
282,-244,-429,106,-209,105,151,-961,54,13:03:43
282,-244,-429,106,-241,109,159,-949,43,13:03:43
294,-234,-438,107,-256,112,169,-940,22,13:03:43
279,-240,-453,107,-256,107,169,-940,22,13:03:43
300,-244,-435,116,-233,104,178,-928,28,13:03:43
300,-244,-435,114,-207,99,206,-921,7,13:03:43
273,-226,-423,108,-204,92,229,-921,-3,13:03:43
291,-252,-427,93,-210,79,237,-924,27,13:03:43
271,-249,-433,77,-214,75,258,-934,24,13:03:43
283,-249,-436,77,-214,75,275,-967,27,13:03:43
300,-252,-418,66,-247,95,301,-1006,21,13:03:43
274,-235,-436,79,-284,148,305,-1031,46,13:03:43
274,-235,-436,70,-368,178,294,-1032,95,13:03:43
283,-229,-423,58,-468,200,304,-997,67,13:03:43
261,-214,-415,56,-419,175,312,-931,-34,13:03:43
282,-235,-409,47,-368,143,298,-923,-18,13:03:43
274,-232,-411,11,-368,114,292,-934,2,13:03:43
273,-219,-423,15,-390,96,271,-960,28,13:03:43
262,-229,-391,1,-413,70,245,-966,37,13:03:43
262,-229,-391,-33,-385,33,261,-945,-17,13:03:43
256,-222,-406,-31,-273,-4,327,-945,-95,13:03:43
259,-220,-402,16,-172,14,357,-969,-112,13:03:43
252,-217,-391,40,-132,36,319,-990,-64,13:03:43
255,-238,-403,67,-135,54,319,-990,-64,13:03:43
259,-222,-408,90,-140,70,301,-986,-37,13:03:43
255,-234,-409,112,-151,76,305,-979,-40,13:03:43
255,-234,-409,117,-147,64,296,-979,-34,13:03:43
240,-223,-397,112,-123,44,271,-963,-17,13:03:43
240,-223,-397,112,-123,44,261,-946,-18,13:03:43
238,-228,-396,119,-91,30,277,-947,-15,13:03:43
249,-223,-400,128,-62,18,290,-942,5,13:03:43
244,-231,-394,130,-49,3,301,-928,15,13:03:43
247,-222,-396,140,-60,-2,310,-920,6,13:03:43
247,-222,-396,145,-63,-7,297,-911,-6,13:03:43
271,-234,-399,152,-63,-8,269,-899,-22,13:03:43
234,-237,-385,152,-43,-14,246,-890,-29,13:03:43
252,-231,-400,154,-32,-26,250,-897,-25,13:03:43
249,-235,-375,157,-34,-36,258,-907,-11,13:03:43
246,-228,-396,173,-35,-37,271,-924,5,13:03:43
253,-246,-381,185,-39,-33,282,-945,18,13:03:43
253,-246,-381,193,-42,-23,278,-955,26,13:03:43
244,-223,-375,212,-67,-20,264,-959,33,13:03:43
244,-223,-375,217,-84,-27,261,-954,40,13:03:43
247,-238,-388,214,-93,-35,261,-954,40,13:03:43
262,-216,-376,217,-97,-53,267,-937,33,13:03:43
237,-235,-379,222,-91,-70,269,-932,25,13:03:43
255,-228,-391,232,-78,-82,272,-924,12,13:03:43
255,-228,-391,232,-78,-82,271,-911,0,13:03:43
241,-223,-384,244,-70,-102,276,-916,1,13:03:43
253,-235,-372,257,-55,-116,282,-918,8,13:03:43
246,-235,-375,260,-48,-130,284,-917,22,13:03:43
252,-234,-385,256,-51,-144,285,-923,32,13:03:43
256,-250,-375,254,-60,-152,296,-932,32,13:03:43
256,-243,-376,252,-70,-156,312,-932,19,13:03:43
256,-243,-376,247,-69,-162,321,-933,15,13:03:43
237,-228,-346,239,-68,-170,321,-937,23,13:03:43
237,-228,-373,219,-92,-173,312,-942,18,13:03:43
267,-247,-358,201,-94,-181,294,-948,12,13:03:43
258,-241,-345,184,-93,-194,283,-960,31,13:03:43
256,-249,-354,171,-116,-206,266,-977,62,13:03:43
261,-235,-348,149,-148,-217,257,-999,73,13:03:43
261,-235,-348,138,-177,-217,269,-1033,81,13:03:43
256,-240,-345,126,-210,-209,269,-1033,81,13:03:43
256,-240,-345,121,-241,-200,285,-1051,77,13:03:43
250,-240,-352,116,-240,-189,302,-1053,52,13:03:43
265,-267,-352,119,-221,-179,311,-1046,38,13:03:43
268,-252,-352,113,-195,-175,321,-1041,40,13:03:43
261,-247,-349,113,-195,-175,337,-1050,47,13:03:43
261,-247,-349,100,-139,-182,354,-1070,64,13:03:43
280,-271,-345,64,-93,-195,370,-1110,105,13:03:43
274,-241,-343,-9,-67,-202,392,-1164,152,13:03:43
267,-259,-346,-101,-64,-200,418,-1215,177,13:03:43
282,-282,-348,-219,-38,-197,442,-1237,163,13:03:43
274,-250,-367,-329,0,-196,464,-1223,115,13:03:43
280,-244,-361,-440,68,-195,452,-1190,46,13:03:43
280,-244,-361,-544,182,-194,402,-1146,-11,13:03:43
280,-252,-366,-628,339,-189,345,-1098,-32,13:03:43
280,-252,-366,-703,485,-176,289,-1059,-33,13:03:43
301,-252,-387,-791,598,-154,233,-1033,-47,13:03:43
291,-265,-385,-863,642,-115,193,-1020,-61,13:03:43
294,-246,-406,-930,674,-89,128,-984,-50,13:03:43
294,-246,-406,-1004,759,-60,45,-942,-47,13:03:43
277,-247,-414,-1022,830,-6,45,-942,-47,13:03:43
294,-256,-421,-1020,932,44,46,-942,-74,13:03:43
307,-241,-456,-1218,909,27,39,-983,-35,13:03:43
312,-228,-450,-1453,725,11,-32,-1098,159,13:03:43
289,-225,-462,-1497,441,39,28,-1210,274,13:03:43
292,-225,-477,-1497,441,39,117,-1242,258,13:03:43
292,-225,-477,-1467,170,71,138,-1222,199,13:03:43
303,-220,-492,-1402,-22,105,165,-1250,104,13:03:43
306,-220,-517,-1429,-98,90,147,-1282,-7,13:03:43
295,-189,-510,-1356,-2,93,157,-1169,-204,13:03:43
315,-196,-513,-1187,165,139,187,-1058,-292,13:03:43
315,-174,-520,-971,314,201,202,-1044,-285,13:03:44
321,-180,-553,-750,381,330,300,-1060,-221,13:03:44
301,-174,-562,-807,853,468,371,-1132,-124,13:03:44
301,-174,-562,-882,1366,533,323,-1198,-54,13:03:44
318,-169,-556,-826,1579,623,332,-1191,-11,13:03:44
303,-180,-580,-839,1738,753,331,-1176,62,13:03:44
301,-151,-571,-878,1914,781,242,-1103,152,13:03:44
325,-147,-600,-918,1933,716,140,-952,189,13:03:44
319,-121,-607,-774,1896,647,140,-952,189,13:03:44
357,-126,-630,-681,1910,622,88,-846,142,13:03:44
357,-126,-630,-657,2024,490,60,-781,31,13:03:44
349,-114,-619,-658,1878,367,47,-729,0,13:03:44
361,-97,-625,-658,1715,231,26,-726,169,13:03:44
361,-97,-625,-581,1589,135,-11,-753,285,13:03:44
405,-87,-651,-581,1589,135,-7,-771,210,13:03:44
406,-99,-688,-534,1522,-7,8,-854,205,13:03:44
403,-102,-669,-597,1440,-17,-54,-754,174,13:03:44
403,-102,-669,-529,1380,-114,-182,-491,162,13:03:44
426,-82,-687,-375,1258,-207,-190,-464,225,13:03:44
430,-82,-684,-210,1045,-228,-145,-529,281,13:03:44
430,-82,-684,-70,780,-231,-120,-543,321,13:03:44
435,-75,-675,52,543,-219,-120,-552,310,13:03:44
459,-84,-685,168,385,-187,-124,-590,287,13:03:44
442,-91,-684,270,282,-152,-98,-616,286,13:03:44
442,-91,-684,369,189,-95,-106,-610,303,13:03:44
462,-81,-678,461,105,-51,-112,-591,325,13:03:44
438,-87,-663,527,37,-14,-78,-568,327,13:03:44
459,-58,-673,553,-28,15,-39,-556,347,13:03:44
469,-84,-667,604,-101,60,-2,-563,391,13:03:44
466,-88,-669,644,-167,105,-2,-563,391,13:03:44
448,-78,-693,674,-221,145,38,-604,456,13:03:44
471,-88,-658,692,-264,177,63,-641,529,13:03:44
471,-88,-658,692,-264,177,68,-663,592,13:03:44
444,-93,-640,696,-297,223,45,-681,629,13:03:44
444,-93,-640,683,-317,256,27,-715,642,13:03:44
457,-96,-655,676,-326,300,30,-783,656,13:03:44
435,-112,-655,653,-301,351,39,-872,678,13:03:44
445,-115,-642,597,-226,386,68,-958,712,13:03:44
445,-115,-642,501,-109,386,90,-1044,751,13:03:44
450,-139,-640,336,-4,338,120,-1170,783,13:03:44
447,-111,-625,124,3,236,153,-1329,766,13:03:44
456,-121,-651,-22,-192,149,165,-1450,654,13:03:44
442,-121,-660,44,-449,107,157,-1469,513,13:03:44
453,-129,-637,160,-459,89,63,-1401,569,13:03:44
430,-111,-651,126,-60,41,-73,-1162,679,13:03:44
430,-111,-651,1,499,-15,-205,-729,692,13:03:44
450,-106,-639,21,886,-89,-335,-400,702,13:03:44
451,-103,-628,104,876,-105,-376,-397,621,13:03:44
451,-103,-628,137,532,-46,-376,-690,455,13:03:44
450,-96,-637,35,54,28,-242,-690,455,13:03:44
462,-109,-646,-69,-353,26,-58,-1189,240,13:03:44
450,-120,-645,-92,-625,-47,48,-1703,33,13:03:44
450,-120,-645,-92,-625,-47,119,-1962,-43,13:03:44
447,-111,-655,-56,-655,-60,187,-1955,-10,13:03:44
460,-96,-627,-109,-401,-16,224,-1649,150,13:03:44
451,-100,-613,-226,-301,52,120,-1080,217,13:03:44
456,-97,-628,-140,-564,98,-35,-628,36,13:03:44
450,-106,-622,-75,-798,75,-138,-476,-37,13:03:44
450,-106,-622,-155,-764,2,-123,-489,42,13:03:44
445,-75,-619,-193,-733,-65,-16,-558,122,13:03:44
442,-94,-610,-95,-1040,-88,142,-684,91,13:03:44
420,-88,-618,171,-1620,-65,379,-851,-153,13:03:44
408,-78,-600,455,-1988,18,585,-1118,-354,13:03:44
394,-88,-595,599,-1848,181,742,-1349,-384,13:03:44
390,-75,-601,557,-1443,377,736,-1354,-212,13:03:44
396,-93,-588,382,-1138,441,430,-1117,105,13:03:44
396,-93,-588,315,-1057,362,61,-717,211,13:03:44
372,-82,-579,352,-968,147,-138,-476,152,13:03:44
385,-85,-562,411,-845,-60,-138,-476,152,13:03:44
367,-90,-573,365,-1049,-194,-185,-464,114,13:03:44
378,-84,-559,445,-1595,-273,-245,-592,301,13:03:44
354,-90,-555,652,-2212,-224,-192,-727,451,13:03:44
340,-105,-541,652,-2212,-224,145,-842,214,13:03:44
340,-105,-541,586,-2124,-98,460,-1008,-224,13:03:44
340,-85,-526,591,-1696,46,599,-1067,-433,13:03:44
324,-90,-496,611,-1382,147,630,-1010,-352,13:03:44
324,-90,-496,745,-1179,233,572,-948,-215,13:03:44
321,-112,-484,738,-1120,270,504,-884,-94,13:03:44
321,-106,-499,630,-996,182,372,-802,70,13:03:44
327,-97,-462,522,-802,53,273,-738,21,13:03:44
327,-97,-462,585,-597,18,279,-762,-72,13:03:44
318,-105,-475,539,-452,-7,294,-829,50,13:03:44
283,-117,-451,450,-442,-89,299,-843,129,13:03:44
283,-117,-451,537,-382,-20,362,-882,89,13:03:44
330,-117,-469,517,-403,-8,381,-896,49,13:03:44
316,-121,-457,438,-406,-64,322,-840,64,13:03:44
313,-126,-444,387,-341,-124,314,-809,1,13:03:44
313,-126,-444,361,-260,-175,303,-824,8,13:03:44
307,-109,-448,382,-267,-175,303,-824,8,13:03:44
309,-133,-408,396,-299,-177,292,-849,39,13:03:44
301,-111,-415,404,-301,-191,285,-854,27,13:03:44
316,-111,-447,403,-302,-211,274,-864,19,13:03:44
304,-120,-423,443,-309,-225,274,-864,5,13:03:44
297,-118,-408,443,-309,-225,281,-855,-26,13:03:44
297,-118,-408,491,-292,-247,264,-861,-36,13:03:44
295,-123,-414,532,-285,-271,256,-867,-34,13:03:44
304,-121,-400,588,-282,-295,265,-892,-1,13:03:44
304,-121,-400,619,-278,-309,285,-935,50,13:03:44
310,-109,-403,616,-316,-316,289,-968,103,13:03:44
313,-127,-403,585,-345,-319,277,-986,148,13:03:44
312,-126,-375,511,-356,-324,274,-995,138,13:03:44
312,-126,-375,430,-357,-343,284,-1012,105,13:03:44
301,-135,-366,347,-361,-356,303,-1024,96,13:03:44
307,-126,-376,261,-375,-349,302,-1037,111,13:03:44
286,-129,-381,175,-405,-333,297,-1053,142,13:03:44
303,-133,-363,84,-437,-319,325,-1071,148,13:03:44
312,-138,-364,2,-424,-308,375,-1087,102,13:03:45
306,-138,-373,-34,-390,-290,375,-1087,102,13:03:45
306,-138,-373,-35,-308,-287,387,-1069,73,13:03:45
316,-138,-372,-8,-226,-273,355,-1047,101,13:03:45
310,-126,-352,39,-221,-232,344,-1078,177,13:03:45
310,-126,-352,-2,-302,-173,369,-1148,268,13:03:45
307,-138,-354,-2,-302,-173,398,-1180,341,13:03:45
307,-136,-340,-108,-391,-185,406,-1133,288,13:03:45
312,-129,-352,-266,-375,-252,480,-1115,84,13:03:45
312,-129,-352,-398,-239,-284,614,-1176,-93,13:03:45
321,-141,-349,-520,18,-239,739,-1234,-161,13:03:45
333,-135,-354,-660,351,-126,797,-1242,-210,13:03:45
292,-127,-358,-780,676,-13,738,-1227,-272,13:03:45
300,-117,-360,-891,906,95,512,-1257,-216,13:03:45
304,-115,-387,-1080,1015,127,189,-1281,-94,13:03:45
307,-120,-400,-1201,1025,137,57,-1286,-68,13:03:45
307,-120,-400,-1176,1041,216,97,-1336,-124,13:03:45
310,-118,-399,-1159,1147,260,112,-1419,-134,13:03:45
301,-97,-405,-1169,1134,269,22,-1486,-43,13:03:45
301,-97,-405,-1127,992,261,-96,-1504,40,13:03:45
303,-94,-430,-1045,760,335,-138,-1472,106,13:03:45
310,-79,-423,-1120,300,316,-138,-1472,106,13:03:45
310,-79,-423,-1345,-27,196,-141,-1430,164,13:03:45
307,-93,-435,-1501,-128,162,-90,-1403,71,13:03:45
313,-75,-457,-1775,-55,221,-13,-1330,-73,13:03:45
318,-73,-436,-1775,-55,221,17,-1223,-109,13:03:45
307,-73,-436,-1889,119,155,3,-1130,-162,13:03:45
316,-63,-454,-1759,225,41,-5,-1055,-251,13:03:45
310,-46,-459,-1426,436,39,53,-1008,-302,13:03:45
315,-45,-490,-1248,767,25,151,-996,-177,13:03:45
315,-45,-490,-1274,984,63,264,-960,-28,13:03:45
306,-36,-490,-1306,896,189,337,-969,152,13:03:45
322,-28,-474,-1477,891,266,228,-903,127,13:03:45
319,-13,-489,-1028,1211,324,217,-851,-248,13:03:45
345,-13,-523,-830,1679,455,289,-903,-291,13:03:45
337,-7,-520,-833,2092,483,221,-796,-86,13:03:45
334,-18,-540,-698,2312,443,181,-670,13,13:03:45
334,-18,-540,-541,2400,380,155,-618,75,13:03:45
354,-3,-540,-569,2199,242,39,-675,230,13:03:45
375,10,-541,-620,1957,266,-70,-708,271,13:03:45
375,10,-541,-550,1915,224,-12,-736,148,13:03:45
381,15,-558,-429,1876,243,-12,-736,148,13:03:45
391,9,-558,-298,1708,256,6,-750,101,13:03:45
414,22,-580,-151,1442,196,-117,-563,144,13:03:45
414,22,-580,-12,1157,130,-228,-414,187,13:03:45
406,22,-577,123,867,65,-259,-387,204,13:03:45
402,36,-579,123,867,65,-245,-390,229,13:03:45
406,28,-588,280,603,35,-204,-422,248,13:03:45
409,19,-571,405,386,30,-155,-474,282,13:03:45
424,15,-589,503,214,42,-111,-521,311,13:03:45
427,36,-583,568,91,57,-69,-562,341,13:03:45
427,36,-583,602,5,90,-45,-569,364,13:03:45
415,37,-570,623,-46,127,-39,-556,386,13:03:45
424,9,-574,653,-95,141,-22,-545,425,13:03:45
424,9,-574,693,-133,156,3,-554,487,13:03:45
424,6,-585,744,-171,181,48,-596,555,13:03:45
424,12,-556,775,-212,214,96,-655,597,13:03:45
435,-3,-556,787,-222,254,122,-724,642,13:03:45
435,-3,-556,770,-232,298,126,-790,726,13:03:45
415,-7,-556,725,-230,342,109,-862,793,13:03:45
405,-13,-562,632,-156,380,108,-952,832,13:03:45
403,-1,-550,499,-35,386,108,-952,832,13:03:45
406,-21,-543,324,36,353,138,-1069,875,13:03:45
399,-15,-543,149,-53,304,160,-1219,914,13:03:45
415,-19,-535,51,-336,264,158,-1373,886,13:03:45
415,-19,-535,51,-336,264,177,-1458,744,13:03:45
399,-10,-522,35,-472,224,200,-1419,601,13:03:45
387,-10,-513,83,-198,160,101,-1196,595,13:03:45
387,-10,-513,86,341,57,-118,-758,675,13:03:45
391,1,-552,51,805,-51,-275,-268,702,13:03:45
397,-12,-550,108,956,-144,-242,-2,605,13:03:45
408,-3,-552,173,890,-165,-226,11,463,13:03:45
408,-3,-552,247,443,-115,-302,-191,268,13:03:45
399,13,-547,283,-129,-73,-208,-845,43,13:03:45
388,-21,-547,-178,313,-178,131,-1995,54,13:03:45
408,-7,-544,-53,373,-286,120,-1998,302,13:03:45
409,-6,-535,18,461,-138,345,-1998,474,13:03:45
426,-6,-532,-46,85,154,494,-1403,338,13:03:45
412,13,-556,121,-697,277,-22,-553,-57,13:03:45
412,13,-556,172,-835,77,-420,-320,-180,13:03:45
402,22,-529,-75,-595,-147,-420,-320,-180,13:03:45
402,22,-529,-315,-512,-239,-312,-375,-6,13:03:45
393,3,-529,-420,-623,-230,-103,-464,-21,13:03:45
390,-18,-544,-196,-1060,-120,46,-525,-102,13:03:45
396,12,-531,-196,-1060,-120,147,-593,-141,13:03:45
396,12,-531,270,-1579,20,272,-782,-242,13:03:45
372,-9,-543,683,-1651,163,492,-1074,-326,13:03:45
381,-10,-529,893,-1446,280,684,-1283,-208,13:03:45
358,-6,-531,882,-1270,331,724,-1334,59,13:03:45
351,-22,-531,657,-1217,331,588,-1238,232,13:03:45
363,-4,-511,477,-1130,282,305,-1020,249,13:03:45
363,-4,-511,240,-986,155,-26,-800,300,13:03:45
349,-18,-513,151,-877,-42,-242,-665,363,13:03:45
340,-25,-483,232,-1134,-161,-218,-608,358,13:03:45
318,-10,-450,476,-1761,-144,-63,-640,228,13:03:45
349,-7,-474,596,-2075,-109,180,-781,-112,13:03:45
322,-27,-462,718,-1869,17,457,-935,-447,13:03:45
316,-25,-454,816,-1505,177,575,-1011,-443,13:03:45
285,-25,-447,827,-1334,281,541,-958,-206,13:03:45
285,-25,-447,915,-1327,378,541,-958,-206,13:03:45
294,-25,-436,849,-1375,343,439,-873,8,13:03:45
292,-27,-421,790,-1277,271,314,-811,129,13:03:45
292,-27,-421,741,-1038,191,173,-742,122,13:03:45
286,-36,-414,553,-849,36,170,-767,-8,13:03:45
276,-21,-411,553,-849,36,211,-793,-52,13:03:45
283,-24,-388,459,-704,-60,209,-809,-68,13:03:45
283,-24,-388,404,-671,-88,239,-873,-86,13:03:46
258,-39,-408,412,-642,-105,289,-858,-96,13:03:46
279,-39,-384,440,-548,-128,327,-851,-92,13:03:46
280,-52,-366,452,-560,-121,298,-861,-6,13:03:46
282,-43,-384,465,-543,-123,248,-825,20,13:03:46
280,-43,-381,478,-499,-138,225,-794,43,13:03:46
277,-52,-366,469,-480,-149,241,-786,64,13:03:46
277,-52,-366,464,-469,-156,249,-787,54,13:03:46
274,-52,-361,463,-448,-169,238,-791,39,13:03:46
249,-55,-367,481,-414,-187,232,-807,43,13:03:46
249,-55,-367,492,-416,-213,231,-836,61,13:03:46
282,-49,-367,497,-417,-243,246,-878,78,13:03:46
274,-51,-352,495,-403,-274,246,-878,78,13:03:46
270,-58,-336,506,-403,-295,273,-910,85,13:03:46
270,-58,-336,506,-401,-305,290,-924,94,13:03:46
279,-64,-334,501,-396,-317,300,-914,97,13:03:46
270,-76,-319,501,-396,-317,317,-915,98,13:03:46
276,-70,-339,435,-365,-339,330,-959,131,13:03:46
295,-60,-325,435,-365,-339,375,-978,134,13:03:46
279,-66,-321,383,-366,-322,414,-995,118,13:03:46
288,-72,-330,331,-402,-289,400,-1044,130,13:03:46
288,-72,-330,270,-435,-263,397,-1098,140,13:03:46
288,-69,-307,172,-455,-258,414,-1134,142,13:03:46
276,-76,-301,54,-435,-270,388,-1107,127,13:03:46
276,-76,-301,-44,-351,-319,319,-1073,106,13:03:46
286,-87,-309,-114,-177,-380,288,-1103,144,13:03:46
313,-82,-310,-110,-93,-376,316,-1158,252,13:03:46
298,-100,-309,-86,-165,-305,345,-1143,327,13:03:46
298,-100,-309,-70,-289,-230,337,-1032,296,13:03:46
283,-99,-297,-90,-305,-217,279,-876,177,13:03:46
279,-93,-309,-224,-195,-286,335,-880,28,13:03:46
294,-87,-291,-428,-74,-226,527,-1026,-133,13:03:46
285,-90,-289,-579,170,-129,649,-1139,-245,13:03:46
303,-87,-307,-707,458,-87,649,-1139,-245,13:03:46
288,-90,-292,-783,775,9,659,-1145,-281,13:03:46
288,-90,-292,-950,951,147,708,-1217,-255,13:03:46
310,-93,-307,-1213,1019,247,697,-1365,-214,13:03:46
283,-91,-315,-1213,1019,247,462,-1420,-156,13:03:46
283,-91,-315,-1405,929,263,221,-1465,-130,13:03:46
303,-85,-360,-1378,935,327,157,-1475,-213,13:03:46
324,-93,-369,-1189,973,447,114,-1484,-253,13:03:46
298,-88,-373,-999,785,501,-85,-1517,-146,13:03:46
298,-88,-373,-980,614,487,-203,-1582,27,13:03:46
321,-73,-373,-1038,409,484,-180,-1624,104,13:03:46
283,-72,-357,-1115,165,518,-165,-1554,131,13:03:46
283,-72,-357,-1197,-223,535,-95,-1417,128,13:03:46
307,-55,-391,-1291,-498,484,-27,-1286,102,13:03:46
297,-52,-393,-1511,-532,452,8,-1186,95,13:03:46
295,-55,-387,-1692,-430,387,38,-1110,21,13:03:46
295,-55,-387,-1626,-215,272,35,-1032,-152,13:03:46
288,-61,-409,-1355,132,130,62,-977,-364,13:03:46
267,-64,-402,-988,620,158,236,-1014,-437,13:03:46
312,-46,-405,-980,1088,167,236,-1053,-244,13:03:46
307,-54,-429,-1232,1262,77,353,-1053,-244,13:03:46
315,-40,-436,-1337,1390,39,348,-1069,0,13:03:46
315,-40,-436,-1199,1437,178,367,-1075,-20,13:03:46
307,-58,-447,-1024,1578,294,342,-1003,-32,13:03:46
313,-43,-466,-1024,1578,294,407,-875,-418,13:03:46
309,-33,-462,-639,2132,374,330,-768,-577,13:03:46
309,-33,-462,-606,2623,234,115,-613,-217,13:03:46
336,-36,-487,-732,2888,8,28,-511,25,13:03:46
342,-46,-496,-513,2639,-69,-67,-555,288,13:03:46
363,-21,-510,-337,2020,-37,-118,-605,416,13:03:46
363,-21,-510,-262,1680,-16,-93,-631,324,13:03:46
381,-49,-529,-161,1599,-8,-73,-592,121,13:03:46
388,-39,-513,-45,1548,21,-69,-572,67,13:03:46
388,-37,-538,17,1419,55,-88,-594,103,13:03:46
381,-48,-549,56,1187,84,-124,-574,185,13:03:46
423,-43,-553,150,917,89,-152,-528,239,13:03:46
403,-31,-532,281,660,94,-150,-493,242,13:03:46
403,-31,-532,389,480,93,-107,-506,251,13:03:46
420,-28,-556,459,381,101,-59,-532,265,13:03:46
388,-45,-528,528,288,127,-42,-527,297,13:03:46
388,-45,-528,588,190,148,-42,-527,297,13:03:46
414,-42,-556,635,96,173,-31,-537,349,13:03:46
394,-67,-555,683,15,177,-18,-533,385,13:03:46
414,-73,-540,683,15,177,7,-521,412,13:03:46
414,-73,-540,713,-44,171,50,-553,431,13:03:46
405,-67,-537,729,-80,184,92,-607,462,13:03:46
423,-76,-528,737,-101,210,74,-692,531,13:03:46
411,-78,-541,732,-120,252,64,-796,576,13:03:46
408,-85,-526,721,-149,314,80,-889,614,13:03:46
400,-94,-505,732,-181,382,46,-967,661,13:03:46
409,-88,-540,741,-177,438,39,-1016,691,13:03:46
409,-88,-540,709,-112,439,82,-1086,740,13:03:46
414,-87,-526,594,-39,401,130,-1169,789,13:03:46
403,-97,-504,401,-17,331,189,-1230,780,13:03:46
403,-97,-504,217,-69,247,248,-1289,712,13:03:46
393,-105,-507,112,-190,192,251,-1316,611,13:03:46
390,-109,-514,100,-170,183,247,-1233,564,13:03:46
409,-99,-510,111,59,127,125,-987,589,13:03:46
409,-99,-510,102,410,23,125,-987,589,13:03:46
399,-93,-493,110,695,-63,-100,-669,662,13:03:46
421,-103,-523,172,781,-80,-225,-438,732,13:03:46
394,-96,-517,241,660,-1,-232,-432,684,13:03:46
433,-105,-514,212,328,72,-185,-721,569,13:03:46
408,-105,-520,212,328,72,-83,-1285,379,13:03:46
408,-105,-520,123,-23,79,104,-1815,135,13:03:46
430,-117,-510,120,-235,38,240,-1996,-80,13:03:46
406,-115,-531,65,-175,28,177,-1998,15,13:03:46
403,-117,-517,-144,194,39,116,-1647,293,13:03:46
418,-120,-529,-320,445,78,23,-887,381,13:03:46
421,-108,-531,-163,0,66,-192,-294,96,13:03:46
406,-126,-513,14,-451,-56,-275,-175,-240,13:03:46
406,-126,-513,-140,-296,-233,-200,-368,-185,13:03:46
427,-97,-526,-449,69,-370,-71,-592,25,13:03:46
405,-111,-531,-506,9,-346,68,-739,117,13:03:47
406,-109,-532,-125,-788,-182,263,-851,-37,13:03:47
406,-109,-532,416,-1714,18,500,-1084,-325,13:03:47
400,-121,-522,674,-1890,195,705,-1422,-492,13:03:47
387,-114,-513,641,-1437,387,787,-1578,-387,13:03:47
405,-138,-508,497,-998,501,787,-1578,-387,13:03:47
405,-138,-508,286,-858,472,610,-1410,-80,13:03:47
373,-118,-493,202,-863,354,271,-1062,199,13:03:47
372,-144,-493,289,-867,206,-2,-714,245,13:03:47
363,-117,-496,270,-931,21,-142,-541,160,13:03:47
370,-135,-480,270,-931,21,-170,-609,152,13:03:47
390,-139,-496,103,-1113,-185,-178,-764,231,13:03:47
390,-135,-501,70,-1395,-198,-63,-848,163,13:03:47
390,-135,-501,331,-1711,-77,126,-883,-50,13:03:47
373,-139,-490,499,-1824,26,217,-934,-202,13:03:47
318,-132,-444,490,-1614,38,319,-941,-246,13:03:47
318,-132,-444,483,-1416,53,418,-941,-124,13:03:47
342,-136,-462,541,-1401,123,490,-934,-40,13:03:47
310,-156,-421,686,-1477,238,465,-897,-34,13:03:47
310,-156,-421,786,-1478,313,350,-816,9,13:03:47
316,-145,-426,803,-1383,236,294,-728,-17,13:03:47
307,-159,-424,753,-1164,158,340,-766,-119,13:03:47
304,-151,-415,683,-984,102,366,-808,-95,13:03:47
307,-151,-396,569,-776,-25,323,-785,-53,13:03:47
304,-147,-409,471,-602,-117,322,-819,-50,13:03:47
285,-145,-420,419,-555,-149,322,-819,-50,13:03:47
312,-162,-393,434,-511,-158,338,-874,10,13:03:47
312,-162,-393,462,-451,-165,337,-868,10,13:03:47
319,-139,-385,490,-423,-175,306,-860,10,13:03:47
303,-169,-360,490,-423,-175,292,-875,20,13:03:47
303,-169,-360,510,-408,-184,307,-868,4,13:03:47
306,-165,-370,537,-357,-187,305,-855,19,13:03:47
310,-171,-373,548,-315,-204,279,-861,46,13:03:47
292,-174,-372,560,-267,-219,248,-872,52,13:03:47
292,-174,-372,571,-231,-239,228,-880,68,13:03:47
327,-174,-348,565,-214,-262,213,-892,103,13:03:47
294,-183,-352,547,-222,-289,208,-899,114,13:03:47
300,-198,-352,530,-244,-316,221,-899,101,13:03:47
312,-189,-352,515,-267,-333,247,-911,103,13:03:47
304,-189,-355,487,-292,-345,275,-916,103,13:03:47
309,-180,-352,459,-327,-348,308,-937,120,13:03:47
309,-180,-352,417,-346,-350,354,-961,127,13:03:47
312,-180,-342,355,-364,-337,387,-957,99,13:03:47
315,-178,-331,307,-364,-315,380,-976,96,13:03:47
315,-178,-331,270,-368,-290,365,-996,102,13:03:47
313,-190,-327,197,-367,-277,365,-996,102,13:03:47
325,-184,-342,142,-329,-260,381,-1009,81,13:03:47
321,-199,-324,99,-274,-248,419,-1012,56,13:03:47
321,-199,-324,51,-247,-273,404,-1000,72,13:03:47
339,-204,-330,-11,-165,-318,314,-1001,87,13:03:47
328,-205,-330,-11,-165,-318,253,-1051,122,13:03:47
328,-205,-330,-86,-91,-310,275,-1134,219,13:03:47
318,-204,-337,-141,-149,-299,271,-1153,329,13:03:47
342,-211,-343,-169,-363,-248,288,-1096,343,13:03:47
343,-214,-330,-228,-423,-194,426,-1013,212,13:03:47
343,-214,-330,-321,-355,-154,575,-982,-107,13:03:47
339,-213,-337,-434,-156,-119,582,-1060,-159,13:03:47
322,-187,-321,-586,102,-133,601,-1174,-56,13:03:47
337,-223,-360,-673,427,-83,720,-1219,-229,13:03:47
342,-217,-354,-698,737,26,703,-1233,-325,13:03:47
355,-199,-388,-861,846,123,382,-1294,-198,13:03:47
346,-208,-379,-1183,853,87,22,-1349,-99,13:03:47
346,-208,-379,-1249,843,119,-58,-1341,-155,13:03:47
337,-193,-399,-1166,854,160,-27,-1359,-166,13:03:47
342,-192,-400,-1218,867,219,-27,-1359,-166,13:03:47
342,-192,-400,-1178,763,312,-77,-1516,-50,13:03:47
340,-208,-429,-1166,521,285,-264,-1579,75,13:03:47
384,-202,-427,-1338,141,276,-391,-1601,227,13:03:47
349,-175,-442,-1421,-406,316,-278,-1672,359,13:03:47
349,-175,-442,-1421,-406,316,-98,-1579,253,13:03:47
334,-172,-445,-1458,-758,295,-4,-1435,29,13:03:47
348,-162,-463,-1573,-613,278,77,-1300,-170,13:03:47
333,-154,-471,-1741,-253,327,165,-1159,-214,13:03:47
343,-156,-459,-1846,36,242,169,-1027,-152,13:03:47
358,-142,-486,-1716,256,40,157,-901,-206,13:03:47
339,-138,-498,-1430,492,-95,280,-898,-269,13:03:47
339,-138,-498,-1333,757,-9,406,-1018,-112,13:03:47
351,-141,-501,-1510,836,95,343,-1073,57,13:03:47
346,-124,-523,-1161,725,95,370,-1044,4,13:03:47
346,-124,-523,-1112,1285,153,312,-1041,-166,13:03:47
372,-121,-541,-849,1669,254,228,-996,-218,13:03:47
351,-115,-553,-796,1864,321,210,-949,-103,13:03:47
354,-112,-567,-773,2152,364,47,-881,7,13:03:47
354,-112,-567,-595,2282,368,9,-763,2,13:03:47
387,-76,-558,-403,2322,385,25,-708,29,13:03:47
390,-93,-583,-472,2130,307,-80,-682,235,13:03:47
409,-99,-579,-534,1701,214,-80,-682,235,13:03:47
409,-82,-603,-481,1381,162,-162,-645,381,13:03:47
436,-79,-609,-268,1306,163,-166,-597,317,13:03:47
436,-79,-609,-268,1306,163,-131,-548,111,13:03:47
432,-91,-600,-152,1302,126,-65,-551,15,13:03:47
442,-76,-615,-224,1337,72,-53,-632,56,13:03:47
441,-81,-595,-172,1213,63,-82,-598,160,13:03:47
468,-69,-612,30,900,22,-171,-387,284,13:03:47
459,-84,-621,205,633,-66,-228,-267,293,13:03:47
460,-72,-630,364,450,-106,-167,-332,271,13:03:47
460,-72,-630,486,327,-103,-84,-422,285,13:03:47
459,-78,-619,577,214,-59,-33,-486,331,13:03:47
496,-103,-615,672,147,-5,-15,-501,374,13:03:47
451,-94,-613,778,30,91,-27,-520,478,13:03:47
477,-100,-609,812,-34,125,-40,-506,491,13:03:47
472,-84,-594,843,-81,159,-35,-551,492,13:03:47
471,-112,-588,872,-98,213,-13,-647,501,13:03:47
471,-112,-588,890,-93,291,-13,-647,501,13:03:47
475,-118,-597,877,-95,380,2,-779,565,13:03:47
445,-132,-592,822,-104,455,9,-900,668,13:03:47
445,-132,-592,705,-76,471,20,-1011,767,13:03:48
450,-118,-577,483,-28,422,70,-1134,834,13:03:48
460,-124,-594,483,-28,422,127,-1323,909,13:03:48
454,-132,-579,161,-87,339,145,-1567,976,13:03:48
454,-132,-579,-120,-382,311,165,-1707,900,13:03:48
465,-118,-571,-120,-664,310,163,-1633,672,13:03:48
453,-109,-573,16,-471,270,100,-1362,565,13:03:48
441,-133,-561,53,185,183,-103,-878,648,13:03:48
436,-124,-568,-12,812,64,-366,-311,757,13:03:48
441,-103,-570,18,1002,-45,-415,37,746,13:03:48
469,-124,-579,86,908,-96,-314,87,569,13:03:48
469,-124,-579,170,663,-84,-267,-100,384,13:03:48
469,-114,-583,270,147,-13,-183,-574,212,13:03:48
472,-112,-568,177,-268,-9,35,-1443,-38,13:03:48
466,-108,-577,-25,-304,-154,266,-1993,-102,13:03:48
460,-108,-582,-87,-147,-326,307,-1998,79,13:03:48
475,-121,-574,-248,280,-263,307,-1998,79,13:03:48
474,-112,-577,-353,566,7,392,-1998,338,13:03:48
474,-112,-577,-37,-235,291,499,-1504,557,13:03:48
477,-111,-595,331,-844,246,62,-587,203,13:03:48
454,-117,-576,184,-569,-12,-426,-166,-236,13:03:48
454,-117,-576,-196,-137,-244,-412,-257,-100,13:03:48
480,-103,-585,-196,-137,-244,-194,-403,41,13:03:48
453,-126,-583,-382,0,-370,50,-555,12,13:03:48
448,-106,-586,-202,-458,-327,233,-707,-17,13:03:48
448,-106,-586,228,-1234,-233,404,-876,-199,13:03:48
451,-114,-583,621,-1565,-92,615,-1183,-431,13:03:48
466,-100,-574,830,-1330,116,782,-1463,-420,13:03:48
456,-102,-582,811,-1019,345,779,-1480,-135,13:03:48
433,-117,-558,651,-987,486,563,-1237,117,13:03:48
423,-106,-556,592,-980,520,259,-893,138,13:03:48
424,-96,-565,634,-739,441,-82,-683,197,13:03:48
424,-96,-565,482,-562,172,-354,-602,348,13:03:48
408,-108,-547,387,-687,-91,-467,-594,420,13:03:48
417,-115,-526,416,-1121,-276,-352,-670,413,13:03:48
417,-115,-526,472,-1712,-311,-95,-816,245,13:03:48
399,-126,-531,499,-1833,-294,181,-960,-144,13:03:48
382,-142,-523,595,-1463,-151,181,-960,-144,13:03:48
403,-138,-525,639,-1140,42,460,-1057,-402,13:03:48
403,-138,-525,816,-1115,298,602,-1099,-304,13:03:48
375,-132,-489,786,-1344,338,603,-1041,-53,13:03:48
367,-120,-498,786,-1344,338,448,-912,234,13:03:48
378,-126,-477,791,-1491,338,284,-775,254,13:03:48
373,-148,-487,733,-1422,276,227,-709,77,13:03:48
355,-139,-469,658,-1134,188,254,-742,-69,13:03:48
355,-147,-480,653,-805,177,320,-803,-121,13:03:48
355,-147,-480,658,-635,105,293,-747,-22,13:03:48
334,-138,-474,613,-560,5,327,-746,-21,13:03:48
337,-147,-433,569,-467,-58,383,-810,-86,13:03:48
337,-147,-433,536,-398,-93,358,-825,-66,13:03:48
333,-133,-453,541,-357,-107,348,-837,-29,13:03:48
343,-148,-442,572,-354,-103,333,-841,18,13:03:48
343,-148,-442,590,-370,-87,324,-869,61,13:03:48
334,-141,-453,596,-366,-70,308,-883,63,13:03:48
343,-153,-447,591,-350,-77,261,-875,71,13:03:48
337,-162,-430,550,-310,-123,210,-860,120,13:03:48
339,-156,-423,504,-325,-175,174,-869,175,13:03:48
345,-165,-421,443,-371,-222,174,-869,175,13:03:48
345,-154,-426,406,-402,-259,171,-891,157,13:03:48
357,-156,-433,414,-401,-292,187,-906,87,13:03:48
357,-156,-433,414,-401,-292,216,-906,20,13:03:48
337,-138,-418,465,-360,-310,257,-901,1,13:03:48
337,-151,-403,523,-329,-315,278,-921,60,13:03:48
339,-169,-412,537,-324,-320,285,-937,134,13:03:48
345,-172,-403,515,-333,-324,306,-945,154,13:03:48
346,-148,-387,479,-330,-324,321,-961,151,13:03:48
352,-172,-420,428,-329,-322,325,-978,149,13:03:48
352,-172,-420,372,-354,-313,318,-1002,154,13:03:48
364,-165,-390,313,-413,-289,302,-1032,175,13:03:48
342,-172,-381,232,-480,-275,303,-1069,197,13:03:48
342,-172,-381,123,-491,-276,332,-1094,190,13:03:48
345,-154,-385,2,-452,-284,354,-1079,139,13:03:48
367,-181,-378,-87,-363,-312,298,-1048,134,13:03:48
358,-172,-387,-149,-215,-359,223,-1060,196,13:03:48
358,-172,-387,-160,-140,-396,212,-1090,289,13:03:48
358,-169,-381,-118,-223,-406,235,-1080,363,13:03:48
375,-180,-375,-139,-359,-328,288,-1026,327,13:03:48
387,-166,-385,-266,-329,-278,288,-1026,327,13:03:48
364,-172,-384,-491,-166,-228,378,-980,151,13:03:48
373,-165,-387,-670,61,-160,429,-1031,-83,13:03:48
384,-171,-403,-670,61,-160,457,-1100,-220,13:03:48
384,-171,-403,-814,354,-193,536,-1134,-253,13:03:48
366,-168,-406,-921,773,-149,713,-1183,-362,13:03:48
369,-156,-415,-987,1079,15,790,-1288,-385,13:03:48
369,-156,-415,-1092,1155,254,603,-1427,-241,13:03:48
391,-142,-415,-1283,1110,366,305,-1519,-117,13:03:48
379,-150,-447,-1350,1099,452,113,-1547,-101,13:03:48
394,-123,-465,-1262,1006,534,28,-1575,-112,13:03:48
394,-123,-465,-1068,903,534,-146,-1648,-10,13:03:48
385,-135,-469,-1126,695,494,-209,-1737,131,13:03:48
396,-126,-462,-1248,349,447,-158,-1732,184,13:03:48
381,-124,-493,-1285,-65,471,-131,-1611,65,13:03:48
396,-118,-481,-1317,-427,462,-94,-1490,-74,13:03:48
387,-94,-475,-1492,-377,435,-56,-1382,-121,13:03:48
379,-91,-493,-1794,-29,417,20,-1241,-120,13:03:48
379,-91,-493,-1915,176,297,93,-1117,-88,13:03:48
373,-102,-493,-1853,277,237,93,-1117,-88,13:03:48
364,-57,-505,-1431,519,42,110,-1023,-129,13:03:48
364,-57,-505,-1288,951,39,139,-958,-275,13:03:48
381,-70,-514,-1362,1234,109,284,-988,-229,13:03:48
379,-60,-529,-1362,1174,184,353,-1016,14,13:03:48
376,-40,-556,-1362,1174,184,274,-970,137,13:03:48
376,-40,-556,-1071,1334,315,270,-971,-68,13:03:48
369,-39,-538,-701,1555,363,296,-887,-299,13:03:48
399,-45,-550,-545,2438,301,170,-708,-214,13:03:48
405,-42,-561,-452,2727,295,155,-641,-112,13:03:48
433,-31,-573,-368,2757,257,11,-586,249,13:03:49
423,-22,-559,-503,2179,194,-244,-516,519,13:03:49
439,-37,-594,-485,1778,87,-292,-473,370,13:03:49
439,-37,-594,-156,1691,146,-110,-536,135,13:03:49
471,-30,-573,0,1590,194,0,-635,87,13:03:49
471,-30,-573,21,1449,228,-18,-669,126,13:03:49
475,-22,-592,28,1298,223,-68,-637,139,13:03:49
499,-37,-598,71,1092,195,-144,-549,172,13:03:49
487,-22,-600,159,837,167,-144,-549,172,13:03:49
483,-34,-610,278,585,170,-173,-474,188,13:03:49
483,-34,-610,402,357,217,-169,-478,203,13:03:49
496,-33,-588,572,75,324,-108,-501,245,13:03:49
498,-31,-585,572,75,324,-99,-466,273,13:03:49
493,-28,-595,622,9,345,-101,-405,317,13:03:49
486,-36,-588,672,-42,345,-72,-358,375,13:03:49
498,-42,-586,725,-81,323,-45,-359,408,13:03:49
498,-42,-586,773,-140,284,-17,-392,424,13:03:49
501,-61,-585,819,-189,252,20,-481,481,13:03:49
478,-78,-574,-30,-167,268,212,-1566,739,13:03:49
478,-78,-574,4,221,204,148,-1233,621,13:03:49
460,-66,-583,-39,779,65,0,-759,615,13:03:49
492,-58,-583,86,1117,-86,-221,-205,639,13:03:49
492,-63,-583,276,1207,-151,-297,187,623,13:03:49
486,-67,-586,276,1207,-151,-213,220,555,13:03:49
492,-78,-586,367,1099,-111,-246,-47,477,13:03:49
496,-63,-577,313,519,-16,-238,-604,393,13:03:49
496,-63,-577,30,-177,115,6,-1479,112,13:03:49
501,-72,-579,-160,-495,126,296,-1994,-222,13:03:49
516,-75,-577,-115,-420,-67,401,-1998,-289,13:03:49
496,-55,-592,-303,408,-130,407,-1998,206,13:03:49
498,-49,-576,-508,931,164,344,-1270,578,13:03:49
504,-54,-579,-48,-180,450,-344,-104,22,13:03:49
495,-52,-576,342,-858,189,-985,221,-290,13:03:49
495,-52,-576,29,-525,-275,-782,-69,69,13:03:49
495,-60,-576,-528,-158,-520,-346,-399,181,13:03:49
495,-61,-585,-799,-51,-574,-40,-627,-47,13:03:49
505,-51,-592,-522,-590,-373,127,-724,-158,13:03:49
484,-60,-588,206,-1667,-143,228,-809,-222,13:03:49
495,-37,-588,811,-2296,25,228,-809,-222,13:03:49
471,-69,-573,1087,-2271,132,375,-1083,-381,13:03:49
471,-69,-573,1033,-1862,197,604,-1423,-348,13:03:49
463,-58,-588,658,-1281,405,917,-1621,-93,13:03:49
453,-72,-574,371,-920,498,949,-1552,151,13:03:49
430,-54,-558,371,-920,498,593,-1173,240,13:03:49
444,-72,-570,448,-735,536,220,-793,299,13:03:49
442,-57,-546,409,-854,403,-87,-625,431,13:03:49
412,-73,-534,269,-1099,167,-266,-594,468,13:03:49
412,-73,-534,120,-1381,-60,-219,-601,340,13:03:49
415,-67,-556,158,-1740,-175,-59,-636,40,13:03:49
423,-94,-546,653,-1972,14,200,-698,-371,13:03:49
391,-75,-553,965,-1791,192,449,-830,-535,13:03:49
382,-76,-531,952,-1462,257,513,-911,-395,13:03:49
390,-76,-531,942,-1334,328,489,-907,-174,13:03:49
376,-85,-516,932,-1439,403,404,-924,106,13:03:49
376,-85,-516,973,-1649,502,190,-867,297,13:03:49
355,-73,-519,909,-1406,296,-13,-764,192,13:03:49
367,-90,-501,686,-1045,100,59,-805,1,13:03:49
339,-93,-481,540,-785,-12,172,-891,-10,13:03:49
348,-94,-498,425,-739,-81,172,-891,-10,13:03:49
352,-111,-471,346,-781,-185,159,-864,80,13:03:49
330,-87,-474,359,-831,-196,206,-793,38,13:03:49
330,-87,-474,359,-831,-196,304,-800,-107,13:03:49
337,-111,-472,448,-809,-158,348,-836,-169,13:03:49
340,-100,-480,457,-676,-186,345,-822,-152,13:03:49
342,-100,-454,486,-598,-193,326,-830,-61,13:03:49
331,-117,-468,490,-568,-207,303,-848,39,13:03:49
315,-93,-442,476,-522,-229,306,-857,85,13:03:49
334,-123,-439,480,-483,-240,304,-871,105,13:03:49
334,-123,-439,479,-475,-258,289,-873,104,13:03:49
309,-109,-448,494,-445,-280,304,-876,116,13:03:49
327,-115,-442,518,-445,-291,335,-885,137,13:03:49
348,-126,-430,537,-446,-307,348,-893,127,13:03:49
327,-126,-430,546,-410,-327,353,-907,103,13:03:49
339,-139,-435,562,-357,-342,355,-918,109,13:03:49
339,-139,-435,541,-329,-354,337,-929,154,13:03:49
342,-121,-418,490,-329,-352,324,-939,175,13:03:49
333,-147,-423,421,-332,-345,326,-955,162,13:03:49
342,-138,-415,351,-342,-324,325,-982,165,13:03:49
358,-150,-415,286,-380,-293,325,-982,165,13:03:49
328,-133,-415,206,-443,-277,332,-1000,189,13:03:49
352,-144,-412,111,-501,-261,379,-1015,186,13:03:49
352,-144,-412,15,-526,-260,442,-1049,153,13:03:49
346,-136,-397,15,-526,-260,452,-1057,103,13:03:49
349,-141,-414,-49,-479,-293,404,-1059,73,13:03:49
340,-150,-399,-120,-347,-332,372,-1123,116,13:03:49
364,-141,-399,-160,-210,-317,411,-1195,174,13:03:49
366,-130,-406,-191,-181,-288,463,-1228,192,13:03:49
367,-142,-399,-211,-307,-168,519,-1231,107,13:03:49
367,-142,-399,-191,-289,-28,591,-1214,-85,13:03:49
346,-153,-381,-238,19,89,653,-1287,-158,13:03:49
382,-145,-409,-372,252,182,583,-1349,-107,13:03:49
357,-130,-399,-527,474,179,447,-1311,-120,13:03:49
352,-151,-417,-749,622,93,282,-1293,-137,13:03:49
366,-141,-424,-1052,791,2,35,-1250,-137,13:03:49
366,-141,-424,-1242,795,-98,-95,-1174,-147,13:03:49
354,-136,-426,-1276,757,-91,-32,-1200,-180,13:03:49
372,-124,-442,-1237,882,-4,23,-1296,-215,13:03:49
376,-114,-450,-1274,994,51,23,-1296,-215,13:03:50
361,-123,-447,-1381,874,105,-45,-1388,-63,13:03:50
375,-121,-453,-1429,494,135,-122,-1489,205,13:03:50
375,-121,-453,-1421,81,162,-106,-1505,325,13:03:50
366,-106,-472,-1410,-197,205,30,-1452,228,13:03:50
378,-112,-460,-1410,-197,205,99,-1389,59,13:03:50
373,-82,-477,-1535,-269,169,48,-1328,-29,13:03:50
378,-79,-498,-1662,-150,231,0,-1241,-40,13:03:50
379,-82,-489,-1762,-92,196,-61,-1171,-13,13:03:50
385,-76,-487,-1808,-44,10,-55,-1146,-51,13:03:50
385,-76,-487,-1740,174,-113,66,-1097,-153,13:03:50
378,-66,-489,-1445,282,-130,193,-1067,-155,13:03:50
382,-51,-487,-1234,344,-86,253,-1097,-126,13:03:50
382,-51,-487,-1129,672,-84,299,-1062,-178,13:03:50
385,-48,-505,-1075,1145,-65,364,-985,-186,13:03:50
391,-40,-523,-1065,1558,-8,378,-974,-91,13:03:50
397,-28,-531,-875,1469,97,324,-862,-97,13:03:50
397,-28,-531,-1259,1992,70,142,-765,61,13:03:50
402,-27,-532,-1421,2061,-109,32,-739,255,13:03:50
420,-21,-534,-975,1808,-14,57,-683,201,13:03:50
427,-22,-535,-502,1465,187,57,-683,201,13:03:50
441,-18,-568,-382,1397,277,50,-696,162,13:03:50
435,-6,-571,-327,1586,322,7,-758,90,13:03:50
444,-1,-558,-277,1614,320,22,-760,12,13:03:50
444,-1,-558,-277,1614,320,39,-687,68,13:03:50
444,-13,-571,-219,1535,328,-33,-616,131,13:03:50
465,-7,-583,-162,1485,319,-84,-558,98,13:03:50
465,-7,-583,-140,1455,271,-127,-518,86,13:03:50
466,-27,-592,-115,1357,226,-178,-500,121,13:03:50
475,-16,-589,7,1127,191,-233,-411,211,13:03:50
496,1,-603,209,804,133,-270,-303,269,13:03:50
496,1,-603,357,522,70,-236,-310,291,13:03:50
487,-16,-571,454,295,44,-139,-386,310,13:03:50
487,-16,-571,519,126,70,-53,-465,336,13:03:50
472,-15,-574,567,6,123,-26,-498,354,13:03:50
492,-19,-582,639,-84,198,-41,-480,358,13:03:50
478,-39,-570,744,-159,274,-48,-461,381,13:03:50
474,-33,-571,839,-220,340,-37,-464,426,13:03:50
475,-40,-579,896,-242,379,-14,-493,511,13:03:50
475,-40,-579,897,-217,381,6,-561,607,13:03:50
465,-37,-576,868,-157,367,6,-561,607,13:03:50
465,-37,-576,833,-72,367,23,-650,687,13:03:50
460,-40,-568,793,39,387,70,-754,768,13:03:50
454,-37,-562,720,162,401,110,-878,839,13:03:50
457,-54,-559,720,162,401,153,-1025,894,13:03:50
459,-46,-568,574,254,387,243,-1238,965,13:03:50
459,-46,-568,343,256,362,322,-1489,1049,13:03:50
477,-52,-558,95,10,372,317,-1659,1033,13:03:50
465,-55,-550,33,-422,397,213,-1637,833,13:03:50
456,-54,-547,99,-534,402,85,-1418,635,13:03:50
463,-49,-559,44,-40,338,-82,-1049,637,13:03:50
438,-46,-531,-146,691,217,-299,-519,716,13:03:50
438,-46,-531,-178,1201,45,-457,-84,723,13:03:50
439,-42,-552,-131,1215,-105,-441,-189,705,13:03:50
450,-55,-553,-74,739,-178,-188,-756,538,13:03:50
468,-46,-546,-170,176,-260,121,-1539,102,13:03:50
466,-45,-567,-203,-193,-312,176,-1990,-338,13:03:50
463,-46,-553,-351,-91,-436,9,-1998,-231,13:03:50
474,-48,-568,-770,716,-470,139,-1992,375,13:03:50
474,-48,-568,-823,1079,-278,237,-1326,589,13:03:50
480,-28,-570,-322,240,-108,237,-1326,589,13:03:50
471,-24,-559,35,-452,-84,-111,-363,118,13:03:50
471,-24,-559,-56,-470,-150,-301,-117,-183,13:03:50
454,-36,-583,-383,-298,-209,-222,-299,-17,13:03:50
477,-37,-562,-383,-298,-209,-68,-539,73,13:03:50
469,-34,-568,-462,-340,-153,42,-725,37,13:03:50
469,-34,-568,-195,-730,-28,65,-827,-16,13:03:50
457,-30,-570,333,-1468,59,146,-940,-157,13:03:50
448,-31,-556,772,-1899,140,369,-1251,-342,13:03:50
427,-42,-558,984,-1712,235,671,-1604,-341,13:03:50
433,-49,-550,921,-1186,428,840,-1709,-47,13:03:50
435,-39,-547,585,-905,570,695,-1514,287,13:03:50
423,-58,-556,282,-807,558,335,-1094,370,13:03:50
423,-58,-556,233,-704,464,-21,-689,333,13:03:50
411,-25,-550,102,-779,243,-310,-486,362,13:03:50
400,-31,-511,128,-1031,-22,-434,-475,326,13:03:50
400,-31,-511,292,-1418,-201,-374,-560,245,13:03:50
406,-46,-537,450,-1807,-296,-187,-717,155,13:03:50
393,-57,-528,440,-1952,-393,-187,-717,155,13:03:50
358,-51,-511,534,-1819,-294,71,-929,-11,13:03:50
358,-51,-511,996,-1589,143,484,-1101,-393,13:03:50
379,-51,-510,1241,-1339,513,797,-1143,-613,13:03:50
361,-51,-507,1099,-1306,529,793,-1100,-332,13:03:50
357,-51,-471,1033,-1411,511,616,-974,61,13:03:50
343,-52,-469,1033,-1411,511,397,-844,235,13:03:50
319,-73,-469,969,-1446,397,262,-724,177,13:03:50
348,-84,-462,981,-1219,285,137,-664,68,13:03:50
348,-84,-462,934,-976,182,120,-720,46,13:03:50
343,-75,-463,744,-835,41,208,-730,45,13:03:50
330,-78,-438,643,-783,-39,238,-743,27,13:03:50
330,-78,-438,630,-778,-104,238,-774,-15,13:03:50
325,-69,-414,602,-652,-168,284,-806,-95,13:03:50
334,-73,-427,590,-512,-205,335,-842,-90,13:03:50
316,-87,-424,598,-462,-216,295,-844,2,13:03:50
316,-87,-424,630,-442,-221,231,-821,73,13:03:50
330,-87,-418,616,-450,-256,207,-813,108,13:03:50
321,-102,-420,568,-465,-292,209,-812,84,13:03:50
322,-99,-408,556,-459,-323,207,-800,51,13:03:50
328,-88,-408,554,-464,-352,196,-810,73,13:03:50
321,-100,-384,577,-500,-365,196,-810,73,13:03:50
316,-91,-381,602,-485,-371,210,-827,76,13:03:50
316,-91,-381,625,-466,-368,238,-853,87,13:03:50
318,-82,-381,643,-457,-363,273,-887,124,13:03:50
300,-118,-361,627,-472,-352,297,-911,173,13:03:50
300,-118,-361,627,-472,-352,321,-921,192,13:03:50
336,-103,-384,562,-476,-340,344,-925,163,13:03:50
327,-96,-390,471,-471,-326,348,-943,136,13:03:50
322,-126,-367,383,-453,-298,356,-965,119,13:03:51
322,-126,-367,300,-463,-262,383,-977,151,13:03:51
318,-99,-361,213,-501,-235,449,-1006,182,13:03:51
348,-117,-340,140,-489,-205,525,-1046,163,13:03:51
348,-117,-340,75,-485,-184,487,-1034,182,13:03:51
325,-117,-355,-7,-442,-247,379,-1030,173,13:03:51
319,-130,-363,-88,-284,-317,364,-1114,171,13:03:51
310,-120,-355,-109,-142,-324,402,-1198,249,13:03:51
310,-120,-355,-145,-181,-319,459,-1231,317,13:03:51
303,-117,-348,-205,-270,-234,555,-1174,242,13:03:51
334,-121,-343,-271,-300,-97,586,-1136,20,13:03:51
322,-117,-343,-375,-69,30,581,-1211,-188,13:03:51
325,-114,-354,-464,289,74,581,-1211,-188,13:03:51
327,-141,-358,-620,586,111,590,-1272,-197,13:03:51
327,-123,-358,-752,826,102,626,-1273,-163,13:03:51
327,-123,-358,-752,826,102,606,-1260,-266,13:03:51
316,-106,-358,-1004,990,97,274,-1275,-208,13:03:51
319,-133,-379,-1283,1073,-9,-53,-1241,-118,13:03:51
319,-133,-379,-1318,1008,-37,-40,-1240,-157,13:03:51
343,-127,-406,-1187,1054,28,2,-1351,-167,13:03:51
357,-111,-393,-1131,1071,56,-67,-1500,-37,13:03:51
330,-103,-433,-1216,863,104,-112,-1650,166,13:03:51
330,-103,-433,-1323,492,184,-120,-1661,208,13:03:51
325,-96,-429,-1353,130,181,-70,-1565,123,13:03:51
340,-90,-456,-1408,-46,130,35,-1481,20,13:03:51
318,-93,-453,-1448,3,144,104,-1393,-63,13:03:51
336,-102,-465,-1563,145,181,95,-1274,-55,13:03:51
330,-67,-456,-1791,264,181,32,-1166,18,13:03:51
339,-85,-457,-1920,326,83,-11,-1039,47,13:03:51
339,-85,-457,-1791,287,-109,28,-922,48,13:03:51
331,-60,-475,-1516,275,-205,145,-924,-27,13:03:51
321,-66,-480,-1198,564,-213,340,-942,-279,13:03:51
321,-66,-480,-991,1029,-84,340,-942,-279,13:03:51
336,-45,-480,-1102,1306,-15,477,-999,-229,13:03:51
352,-64,-513,-1174,1488,45,441,-1086,25,13:03:51
351,-45,-514,-1174,1488,45,311,-1057,70,13:03:51
351,-45,-514,-1185,1671,74,164,-925,105,13:03:51
361,-37,-538,-1139,1751,16,72,-806,117,13:03:51
379,-30,-546,-965,1810,62,27,-755,96,13:03:51
385,-36,-544,-685,1742,200,10,-725,82,13:03:51
382,-28,-565,-493,1731,284,2,-715,79,13:03:51
400,-37,-576,-400,1601,389,9,-694,96,13:03:51
408,-24,-574,-354,1553,361,-44,-637,138,13:03:51
415,3,-568,-375,1505,306,-52,-635,138,13:03:51
415,3,-568,-319,1464,347,-2,-672,114,13:03:51
405,0,-579,-219,1318,384,-73,-598,161,13:03:51
405,0,-579,-77,1084,347,-201,-414,234,13:03:51
405,-3,-612,84,829,275,-283,-280,248,13:03:51
424,-25,-597,235,596,191,-288,-287,247,13:03:51
432,-7,-598,328,399,119,-243,-355,278,13:03:51
435,-19,-615,413,224,93,-169,-402,304,13:03:51
435,-19,-615,491,89,102,-169,-402,304,13:03:51
433,-25,-585,546,-2,133,-111,-436,330,13:03:51
417,-39,-597,596,-60,167,-64,-467,353,13:03:51
445,-30,-585,661,-107,209,-25,-485,376,13:03:51
432,-30,-562,661,-107,209,-8,-485,409,13:03:51
424,-42,-576,746,-155,257,-28,-477,451,13:03:51
424,-42,-576,817,-189,288,-37,-503,509,13:03:51
412,-43,-577,857,-182,296,1,-562,573,13:03:51
418,-45,-550,879,-144,298,63,-644,652,13:03:51
418,-45,-550,865,-102,311,125,-753,747,13:03:51
402,-57,-549,822,-46,340,164,-858,842,13:03:51
420,-66,-565,748,34,366,211,-963,922,13:03:51
421,-66,-561,640,137,375,276,-1106,983,13:03:51
421,-66,-561,454,202,355,332,-1298,1045,13:03:51
415,-63,-561,198,92,323,320,-1504,1049,13:03:51
402,-69,-537,23,-288,331,235,-1644,894,13:03:51
402,-69,-537,-11,-567,364,176,-1622,668,13:03:51
391,-78,-550,-5,-320,357,101,-1407,600,13:03:51
411,-70,-543,-55,369,268,-156,-982,650,13:03:51
406,-63,-561,-124,1064,100,-455,-584,677,13:03:51
406,-63,-561,-117,1151,-77,-455,-584,677,13:03:51
391,-67,-553,-88,665,-226,-477,-644,619,13:03:51
411,-66,-543,-119,24,-309,-141,-1115,361,13:03:51
409,-88,-559,-233,-300,-308,183,-1512,-85,13:03:51
411,-61,-561,-233,-300,-308,35,-1684,-239,13:03:51
427,-66,-544,-417,25,-384,-279,-1737,182,13:03:51
406,-72,-553,-514,515,-471,-194,-1383,487,13:03:51
406,-72,-553,-443,336,-443,-33,-865,270,13:03:51
432,-76,-559,-275,-126,-405,-51,-666,19,13:03:51
402,-57,-556,-283,-264,-340,-2,-702,21,13:03:51
402,-57,-556,-427,-171,-249,82,-803,106,13:03:51
433,-61,-565,-370,-263,-99,113,-822,122,13:03:51
417,-67,-564,-13,-703,64,105,-772,19,13:03:51
402,-64,-570,475,-1259,132,140,-826,-115,13:03:51
405,-73,-546,833,-1611,186,316,-1054,-244,13:03:51
405,-73,-546,1001,-1563,259,540,-1308,-294,13:03:51
384,-84,-546,919,-1210,369,683,-1434,-111,13:03:51
373,-76,-520,606,-939,417,608,-1354,183,13:03:51
390,-84,-549,310,-821,370,345,-1077,279,13:03:51
397,-79,-522,242,-709,269,100,-747,168,13:03:51
367,-87,-523,344,-620,144,100,-747,168,13:03:51
363,-91,-513,259,-697,-69,-90,-576,173,13:03:51
363,-91,-513,347,-959,-212,-236,-566,252,13:03:51
351,-87,-504,445,-1295,-258,-260,-633,287,13:03:51
351,-87,-504,445,-1295,-258,-119,-778,293,13:03:51
364,-109,-504,528,-1524,-227,107,-919,100,13:03:51
349,-124,-496,538,-1447,-184,342,-1021,-167,13:03:51
342,-112,-490,735,-1226,51,588,-1076,-358,13:03:51
324,-129,-478,1159,-1125,443,686,-1078,-327,13:03:51
324,-129,-478,1200,-1069,583,548,-1004,-66,13:03:51
322,-126,-460,1063,-1076,562,359,-847,147,13:03:51
315,-112,-444,967,-1143,471,217,-734,198,13:03:51
319,-121,-435,884,-1113,323,136,-674,129,13:03:51
304,-117,-408,828,-872,198,103,-682,82,13:03:51
295,-133,-432,729,-657,46,145,-732,35,13:03:51
295,-133,-432,650,-498,-32,210,-809,33,13:03:52
289,-132,-415,638,-529,-57,225,-859,73,13:03:52
289,-138,-388,611,-577,-102,260,-822,-5,13:03:52
289,-138,-388,620,-557,-140,312,-811,-107,13:03:52
303,-138,-405,631,-460,-169,312,-812,-112,13:03:52
298,-121,-390,653,-387,-191,323,-812,-112,13:03:52
295,-144,-382,667,-389,-214,286,-795,-27,13:03:52
295,-144,-382,679,-402,-231,250,-785,61,13:03:52
280,-142,-379,672,-415,-254,240,-796,87,13:03:52
294,-141,-384,672,-415,-254,223,-817,123,13:03:52
280,-147,-345,659,-458,-287,215,-838,152,13:03:52
283,-150,-357,644,-499,-318,227,-855,145,13:03:52
312,-159,-351,644,-534,-338,246,-860,129,13:03:52
297,-162,-348,654,-510,-357,277,-874,129,13:03:52
297,-162,-348,646,-501,-370,316,-899,136,13:03:52
298,-165,-343,602,-489,-364,347,-922,138,13:03:52
286,-178,-330,535,-452,-347,354,-941,154,13:03:52
310,-160,-328,452,-422,-324,350,-954,166,13:03:52
304,-163,-325,380,-423,-290,348,-974,166,13:03:52
301,-168,-330,293,-458,-260,353,-998,173,13:03:52
312,-171,-321,194,-497,-241,410,-1023,168,13:03:52
312,-171,-321,116,-492,-219,463,-1026,149,13:03:52
300,-177,-324,39,-469,-229,406,-998,171,13:03:52
292,-187,-301,-51,-427,-287,406,-998,171,13:03:52
292,-187,-301,-119,-267,-336,335,-1030,183,13:03:52
312,-195,-315,-118,-156,-335,354,-1114,194,13:03:52
304,-186,-295,-182,-222,-326,431,-1165,267,13:03:52
318,-186,-292,-256,-298,-233,545,-1172,256,13:03:52
318,-186,-292,-256,-298,-233,626,-1200,60,13:03:52
309,-186,-307,-301,-142,-32,669,-1282,-168,13:03:52
291,-183,-307,-348,188,156,614,-1322,-214,13:03:52
307,-201,-298,-458,502,215,517,-1325,-149,13:03:52
304,-181,-336,-630,757,195,440,-1308,-173,13:03:52
312,-186,-334,-847,947,149,238,-1302,-169,13:03:52
310,-181,-339,-1106,1031,57,42,-1282,-108,13:03:52
310,-181,-339,-1263,963,-18,64,-1255,-97,13:03:52
319,-184,-351,-1256,925,53,158,-1324,-175,13:03:52
288,-181,-381,-1221,1022,137,128,-1432,-179,13:03:52
288,-181,-381,-1302,976,170,45,-1547,10,13:03:52
306,-187,-399,-1390,730,184,12,-1563,154,13:03:52
297,-165,-411,-1353,372,214,36,-1467,123,13:03:52
315,-163,-432,-1286,80,230,58,-1408,8,13:03:52
315,-163,-432,-1352,-5,210,26,-1382,-55,13:03:52
298,-166,-432,-1517,73,261,-3,-1343,-61,13:03:52
300,-154,-439,-1625,170,337,-55,-1287,39,13:03:52
301,-160,-442,-1759,161,269,-55,-1287,39,13:03:52
295,-139,-460,-1773,121,58,-141,-1173,112,13:03:52
312,-141,-490,-1670,190,-133,-144,-1084,62,13:03:52
306,-136,-495,-1670,190,-133,-46,-1046,-15,13:03:52
306,-136,-495,-1487,326,-289,87,-1031,-97,13:03:52
300,-121,-502,-1396,624,-378,265,-1034,-184,13:03:52
316,-123,-510,-1245,1061,-247,491,-1035,-206,13:03:52
316,-123,-510,-1193,1285,-42,560,-1043,-48,13:03:52
328,-105,-528,-1120,1415,84,413,-1015,78,13:03:52
339,-81,-531,-1175,1647,107,234,-906,86,13:03:52
339,-81,-531,-1162,1809,61,145,-757,107,13:03:52
349,-99,-573,-948,1708,90,93,-712,157,13:03:52
363,-90,-570,-753,1549,176,55,-747,208,13:03:52
363,-90,-570,-530,1430,271,26,-719,159,13:03:52
352,-64,-565,-321,1415,375,4,-672,68,13:03:52
387,-82,-595,-252,1458,396,0,-647,45,13:03:52
379,-91,-597,-184,1460,420,-9,-605,88,13:03:52
402,-76,-601,-151,1361,401,-71,-586,121,13:03:52
402,-76,-601,-172,1358,361,-127,-569,135,13:03:52
394,-72,-598,-103,1220,334,-127,-569,135,13:03:52
391,-61,-600,62,993,298,-158,-476,181,13:03:52
391,-61,-600,223,758,256,-227,-347,230,13:03:52
405,-67,-610,366,540,221,-257,-270,269,13:03:52
405,-55,-607,366,540,221,-228,-268,290,13:03:52
408,-70,-621,485,333,214,-171,-309,316,13:03:52
408,-70,-621,604,164,247,-122,-344,331,13:03:52
414,-72,-616,712,25,283,-87,-377,344,13:03:52
430,-67,-594,786,-79,312,-61,-406,380,13:03:52
430,-67,-594,830,-154,316,-40,-426,426,13:03:52
412,-82,-613,851,-196,303,-30,-478,499,13:03:52
412,-81,-616,836,-193,277,-21,-549,585,13:03:52
408,-91,-588,809,-142,245,20,-652,653,13:03:52
409,-76,-601,792,-44,231,99,-803,703,13:03:52
409,-76,-601,774,100,249,179,-946,769,13:03:52
385,-87,-580,719,266,279,244,-1057,862,13:03:52
409,-109,-592,595,391,294,310,-1167,971,13:03:52
415,-96,-585,413,420,296,370,-1275,1047,13:03:52
409,-82,-592,212,263,313,370,-1275,1047,13:03:52
412,-118,-595,121,-133,371,386,-1359,1011,13:03:52
412,-118,-595,151,-469,425,322,-1370,828,13:03:52
387,-103,-591,110,-320,410,231,-1298,617,13:03:52
388,-96,-561,-25,262,303,160,-1133,573,13:03:52
388,-96,-561,-107,868,138,-23,-783,668,13:03:52
381,-91,-579,-107,868,138,-255,-268,690,13:03:52
402,-99,-600,9,1145,-7,-334,-10,619,13:03:52
418,-90,-591,124,1068,-94,-329,-201,564,13:03:52
418,-90,-591,179,541,-102,-232,-715,385,13:03:52
421,-91,-592,128,-52,-58,-24,-1525,-45,13:03:52
421,-99,-576,56,-316,-87,17,-1994,-384,13:03:52
411,-108,-583,-119,-70,-212,-133,-1998,-308,13:03:52
421,-96,-582,-501,620,-301,21,-1998,308,13:03:52
412,-96,-603,-669,890,-130,350,-1467,668,13:03:52
424,-99,-586,-192,-73,104,58,-567,133,13:03:52
424,-99,-586,224,-849,21,-427,-204,-278,13:03:52
435,-105,-589,104,-803,-242,-416,-312,-122,13:03:52
405,-82,-589,-303,-448,-436,-227,-504,-1,13:03:52
405,-82,-589,-459,-289,-470,-57,-648,-92,13:03:52
427,-81,-607,-242,-535,-335,81,-748,-124,13:03:52
399,-94,-600,303,-1234,-142,81,-748,-124,13:03:52
390,-96,-586,808,-1766,39,209,-887,-134,13:03:52
390,-96,-586,1106,-1848,207,409,-1146,-236,13:03:52
399,-84,-577,1061,-1765,350,680,-1413,-277,13:03:53
381,-106,-573,720,-1524,427,831,-1506,-74,13:03:53
378,-115,-562,720,-1524,427,773,-1386,138,13:03:53
382,-120,-547,497,-1173,497,543,-1141,194,13:03:53
324,-111,-562,298,-935,466,174,-872,304,13:03:53
366,-120,-535,104,-788,272,-185,-633,443,13:03:53
366,-120,-535,70,-940,-35,-381,-518,518,13:03:53
351,-124,-547,172,-1389,-257,-323,-523,411,13:03:53
354,-118,-504,361,-1799,-318,-66,-645,108,13:03:53
354,-118,-504,738,-1905,-172,348,-803,-344,13:03:53
331,-115,-514,994,-1549,25,601,-924,-631,13:03:53
306,-127,-477,1136,-1131,247,683,-1040,-419,13:03:53
306,-123,-492,1003,-1075,366,643,-1015,-8,13:03:53
306,-123,-492,945,-1299,401,458,-877,195,13:03:53
316,-114,-487,861,-1433,366,221,-737,198,13:03:53
295,-142,-466,722,-1213,214,67,-688,72,13:03:53
270,-129,-448,665,-864,109,112,-794,-52,13:03:53
291,-127,-459,576,-648,60,112,-794,-52,13:03:53
282,-133,-450,454,-532,-6,96,-867,33,13:03:53
286,-126,-436,494,-628,-22,114,-866,83,13:03:53
286,-126,-436,494,-628,-22,202,-867,40,13:03:53
294,-151,-447,482,-707,-49,248,-850,19,13:03:53
279,-138,-430,481,-695,-94,310,-835,-26,13:03:53
279,-138,-430,508,-656,-105,369,-821,-12,13:03:53
271,-139,-403,558,-663,-110,383,-797,56,13:03:53
297,-162,-417,569,-665,-130,369,-791,92,13:03:53
277,-154,-397,545,-628,-163,364,-803,82,13:03:53
277,-154,-397,522,-578,-196,349,-811,81,13:03:53
283,-150,-385,503,-553,-230,322,-816,81,13:03:53
282,-160,-387,493,-486,-271,308,-829,62,13:03:53
276,-154,-369,493,-407,-317,295,-847,75,13:03:53
280,-162,-375,494,-337,-350,289,-865,115,13:03:53
271,-147,-375,515,-287,-364,302,-890,168,13:03:53
292,-162,-384,529,-282,-369,322,-907,207,13:03:53
292,-162,-384,522,-317,-368,344,-903,193,13:03:53
294,-171,-361,490,-322,-359,367,-905,141,13:03:53
274,-157,-340,442,-308,-352,379,-922,104,13:03:53
303,-172,-336,383,-296,-330,379,-922,104,13:03:53
295,-184,-351,308,-287,-304,371,-947,96,13:03:53
316,-177,-349,226,-308,-288,351,-980,123,13:03:53
292,-178,-348,226,-308,-288,351,-1014,155,13:03:53
292,-178,-348,147,-320,-270,369,-1039,141,13:03:53
301,-196,-333,86,-338,-245,312,-1059,149,13:03:53
283,-184,-322,4,-371,-274,177,-1089,186,13:03:53
283,-184,-322,-95,-238,-326,153,-1152,161,13:03:53
312,-187,-345,-170,-69,-333,239,-1200,161,13:03:53
304,-196,-334,-156,-94,-310,306,-1171,246,13:03:53
322,-181,-339,-195,-242,-270,419,-1117,238,13:03:53
322,-181,-339,-262,-378,-152,541,-1147,80,13:03:53
324,-195,-337,-328,-260,-16,599,-1229,-96,13:03:53
295,-180,-333,-420,77,49,652,-1251,-152,13:03:53
303,-201,-345,-471,400,102,717,-1215,-203,13:03:53
315,-183,-343,-539,681,133,653,-1195,-258,13:03:53
298,-195,-351,-753,877,113,344,-1234,-153,13:03:53
315,-183,-364,-1023,975,27,78,-1235,-103,13:03:53
315,-183,-364,-1148,1013,-43,62,-1226,-149,13:03:53
318,-160,-382,-1173,1013,-23,62,-1226,-149,13:03:53
312,-169,-393,-1200,1043,84,139,-1321,-155,13:03:53
312,-169,-393,-1227,974,207,175,-1462,-118,13:03:53
324,-169,-405,-1206,752,277,125,-1496,-3,13:03:53
322,-168,-415,-1200,428,293,39,-1439,120,13:03:53
312,-153,-418,-1200,428,293,31,-1415,181,13:03:53
312,-153,-418,-1239,103,283,41,-1389,170,13:03:53
306,-159,-424,-1418,-37,187,36,-1326,71,13:03:53
325,-133,-451,-1575,-13,140,71,-1268,-29,13:03:53
310,-138,-453,-1660,30,178,54,-1234,-80,13:03:53
306,-136,-460,-1708,42,179,10,-1196,-58,13:03:53
333,-135,-471,-1740,116,122,31,-1125,-20,13:03:53
310,-114,-490,-1592,115,71,106,-1078,-45,13:03:53
310,-114,-490,-1383,201,52,170,-1071,-100,13:03:53
312,-124,-484,-1269,543,-32,256,-1014,-271,13:03:53
313,-111,-498,-1044,1335,75,477,-1049,-71,13:03:53
312,-106,-519,-991,1472,197,385,-1071,0,13:03:53
321,-97,-547,-986,1684,267,219,-985,6,13:03:53
349,-70,-540,-1060,1948,250,219,-985,6,13:03:53
357,-81,-555,-1052,2113,121,53,-837,61,13:03:53
357,-81,-555,-912,2062,41,-27,-676,53,13:03:53
364,-90,-568,-713,1923,135,2,-646,92,13:03:53
375,-73,-570,-532,1694,253,9,-736,223,13:03:53
387,-58,-585,-416,1511,319,1,-787,273,13:03:53
417,-66,-585,-416,1511,319,36,-789,235,13:03:53
405,-81,-594,-354,1406,362,18,-770,188,13:03:53
405,-81,-594,-279,1411,385,-15,-741,119,13:03:53
414,-43,-603,-251,1456,380,-21,-701,94,13:03:53
409,-61,-589,-209,1472,325,-107,-645,129,13:03:53
415,-52,-615,-174,1342,295,-196,-541,198,13:03:53
442,-28,-600,-56,1116,220,-214,-411,236,13:03:53
432,-34,-607,100,858,149,-222,-319,247,13:03:53
442,-49,-595,224,595,93,-193,-309,304,13:03:53
442,-49,-595,294,386,56,-137,-356,332,13:03:53
456,-64,-588,365,228,53,-88,-407,323,13:03:53
435,-63,-621,442,122,72,-76,-451,336,13:03:53
435,-63,-621,507,72,91,-63,-480,365,13:03:53
445,-52,-601,583,18,106,-38,-488,396,13:03:53
448,-58,-612,669,-31,119,-38,-488,396,13:03:53
436,-69,-606,737,-81,134,-8,-505,429,13:03:53
436,-69,-606,779,-95,148,42,-560,467,13:03:53
439,-78,-586,780,-63,168,117,-668,512,13:03:53
429,-67,-576,737,-6,192,174,-795,565,13:03:53
423,-88,-595,737,-6,192,180,-885,632,13:03:53
420,-79,-594,686,35,241,159,-942,708,13:03:53
429,-87,-588,648,62,303,137,-963,776,13:03:53
442,-109,-579,602,80,353,112,-975,814,13:03:53
442,-109,-579,519,120,376,109,-1015,837,13:03:53
435,-85,-580,377,141,366,123,-1079,858,13:03:53
447,-102,-558,217,73,345,141,-1170,852,13:03:53
447,-102,-558,88,-91,324,183,-1253,790,13:03:53
424,-106,-588,57,-266,321,217,-1263,679,13:03:54
438,-85,-583,106,-210,286,188,-1180,593,13:03:54
423,-75,-571,120,184,199,62,-957,595,13:03:54
423,-75,-571,92,682,88,-112,-588,634,13:03:54
435,-81,-574,165,982,19,-218,-305,634,13:03:54
432,-99,-589,284,1010,-12,-248,-305,587,13:03:54
427,-106,-579,358,739,-18,-250,-575,517,13:03:54
427,-94,-577,325,319,3,-250,-1145,517,13:03:54
442,-96,-583,186,-20,-1,-176,-1145,375,13:03:54
448,-90,-586,149,-234,-25,-1,-1754,155,13:03:54
448,-90,-586,104,-214,-80,81,-1996,16,13:03:54
444,-94,-573,-135,148,-26,38,-1998,67,13:03:54
420,-85,-573,-135,148,-26,123,-1998,331,13:03:54
420,-85,-573,-391,455,81,185,-1491,553,13:03:54
439,-94,-573,-429,182,166,-54,-630,367,13:03:54
441,-103,-565,-114,-538,144,-337,-167,-94,13:03:54
429,-94,-564,14,-860,-10,-387,-161,-269,13:03:54
442,-96,-570,-194,-550,-154,-222,-413,-66,13:03:54
442,-96,-570,-455,-199,-211,27,-640,103,13:03:54
435,-93,-565,-429,-379,-186,195,-752,99,13:03:54
432,-100,-559,-46,-1096,-97,310,-861,-45,13:03:54
435,-93,-585,375,-1722,-48,437,-1094,-301,13:03:54
423,-91,-558,611,-1707,52,579,-1373,-465,13:03:54
406,-102,-555,646,-1260,207,675,-1507,-310,13:03:54
406,-102,-555,499,-844,325,569,-1408,41,13:03:54
412,-112,-549,231,-615,331,275,-1126,312,13:03:54
388,-94,-522,114,-475,253,275,-1126,312,13:03:54
388,-94,-522,126,-462,132,6,-787,331,13:03:54
402,-108,-529,70,-607,-20,-169,-596,332,13:03:54
385,-87,-538,21,-865,-154,-266,-610,426,13:03:54
381,-108,-529,88,-1253,-189,-256,-688,455,13:03:54
381,-108,-529,88,-1253,-189,-136,-776,400,13:03:54
382,-102,-531,217,-1611,-147,84,-877,246,13:03:54
361,-99,-514,232,-1698,-151,313,-983,38,13:03:54
361,-99,-514,156,-1472,-170,506,-1046,-149,13:03:54
348,-93,-498,296,-1283,-33,677,-1056,-234,13:03:54
346,-126,-508,585,-1148,202,691,-1000,-146,13:03:54
348,-111,-490,551,-1103,233,546,-871,-64,13:03:54
348,-111,-490,683,-926,256,424,-842,25,13:03:54
351,-109,-499,630,-784,215,350,-862,154,13:03:54
331,-105,-462,588,-683,189,271,-823,185,13:03:54
352,-123,-471,577,-652,165,205,-802,202,13:03:54
336,-118,-477,539,-677,128,184,-803,191,13:03:54
321,-126,-465,513,-735,107,187,-827,142,13:03:54
325,-117,-457,461,-739,46,214,-835,51,13:03:54
325,-117,-457,427,-669,12,255,-855,-16,13:03:54
330,-126,-450,400,-571,-32,278,-875,-21,13:03:54
306,-142,-421,368,-460,-81,295,-891,13,13:03:54
306,-142,-421,400,-427,-89,295,-891,13,13:03:54
304,-130,-435,406,-458,-103,299,-918,68,13:03:54
312,-138,-441,387,-482,-128,276,-926,110,13:03:54
306,-121,-423,387,-482,-128,255,-922,122,13:03:54
306,-121,-423,389,-464,-147,254,-906,94,13:03:54
315,-135,-432,394,-418,-163,253,-901,89,13:03:54
319,-132,-421,364,-446,-190,241,-891,69,13:03:54
312,-142,-406,368,-418,-210,237,-896,32,13:03:54
303,-145,-406,373,-350,-230,244,-922,41,13:03:54
313,-159,-405,358,-338,-238,260,-910,63,13:03:54
325,-154,-402,378,-352,-231,272,-889,83,13:03:54
325,-154,-402,375,-352,-237,267,-875,115,13:03:54
310,-153,-390,351,-399,-248,254,-859,109,13:03:54
325,-153,-405,336,-394,-266,255,-873,76,13:03:54
325,-153,-405,326,-364,-279,266,-903,83,13:03:54
327,-147,-379,317,-375,-277,285,-923,90,13:03:54
316,-154,-366,315,-391,-256,292,-934,113,13:03:54
325,-165,-399,288,-416,-231,297,-947,154,13:03:54
325,-165,-399,261,-431,-202,324,-961,121,13:03:54
315,-171,-384,236,-405,-168,324,-961,121,13:03:54
324,-181,-370,207,-364,-134,357,-971,66,13:03:54
313,-177,-372,182,-313,-106,391,-978,50,13:03:54
307,-156,-363,158,-238,-89,412,-978,44,13:03:54
315,-166,-369,158,-238,-89,416,-972,40,13:03:54
303,-174,-363,121,-135,-80,395,-959,49,13:03:54
303,-174,-363,79,-28,-76,361,-947,67,13:03:54
321,-175,-366,37,51,-74,319,-948,110,13:03:54
313,-166,-336,-108,101,-116,255,-1000,105,13:03:54
319,-168,-348,-177,133,-153,240,-1064,68,13:03:54
295,-163,-381,-221,168,-170,263,-1136,56,13:03:54
321,-175,-369,-249,208,-158,326,-1200,50,13:03:54
324,-178,-376,-287,280,-120,412,-1235,5,13:03:54
324,-178,-376,-354,368,-93,444,-1251,-40,13:03:54
322,-175,-415,-926,264,-140,-12,-1117,-55,13:03:54
322,-154,-448,-926,264,-140,-34,-1103,-54,13:03:54
354,-142,-450,-920,222,-149,-40,-1092,-46,13:03:54
354,-142,-450,-933,198,-163,-35,-1070,-22,13:03:54
325,-166,-456,-935,198,-182,-10,-1046,6,13:03:54
339,-160,-441,-947,219,-207,21,-1025,17,13:03:54
328,-156,-453,-931,254,-222,47,-992,4,13:03:54
342,-124,-460,-867,311,-214,79,-959,-40,13:03:54
343,-147,-462,-757,406,-179,95,-901,-70,13:03:54
351,-150,-462,-714,480,-221,70,-928,-33,13:03:54
351,-150,-462,-731,569,-251,51,-1005,19,13:03:54
337,-145,-492,-742,630,-266,51,-997,44,13:03:54
372,-135,-505,-612,598,-226,44,-972,67,13:03:54
355,-141,-498,-537,537,-207,36,-952,61,13:03:54
381,-133,-513,-496,511,-192,17,-939,60,13:03:54
373,-135,-501,-462,478,-177,15,-936,92,13:03:54
369,-136,-528,-457,471,-157,15,-936,92,13:03:54
369,-136,-528,-435,457,-116,23,-943,118,13:03:55
361,-139,-523,-333,338,-60,16,-944,140,13:03:55
379,-115,-552,-259,221,-50,-22,-919,201,13:03:55
382,-120,-529,-203,156,-46,-46,-891,239,13:03:55
375,-109,-540,-203,156,-46,-22,-901,224,13:03:55
372,-118,-519,-147,141,-27,0,-916,217,13:03:55
366,-109,-543,-89,168,0,18,-906,210,13:03:55
366,-109,-543,-16,185,25,26,-886,207,13:03:55
381,-124,-535,46,199,46,28,-888,211,13:03:55
394,-106,-534,86,195,65,26,-891,220,13:03:55
381,-130,-517,126,175,85,26,-880,218,13:03:55
375,-129,-529,170,140,100,24,-864,209,13:03:55
375,-118,-532,221,101,112,7,-840,202,13:03:55
379,-132,-541,268,73,113,-4,-827,205,13:03:55
379,-132,-541,308,53,111,4,-835,217,13:03:55
366,-109,-540,344,35,112,18,-849,233,13:03:55
366,-120,-540,377,6,115,32,-863,252,13:03:55
385,-127,-546,409,-41,124,45,-874,267,13:03:55
382,-118,-511,434,-85,123,33,-877,258,13:03:55
379,-132,-516,463,-107,121,29,-884,228,13:03:55
367,-124,-543,487,-82,128,29,-884,228,13:03:55
367,-124,-543,499,-58,141,60,-918,202,13:03:55
369,-153,-513,504,-87,142,86,-943,201,13:03:55
394,-127,-508,504,-87,142,77,-940,200,13:03:55
357,-121,-523,492,-116,133,48,-927,177,13:03:55
378,-136,-514,457,-87,107,30,-927,152,13:03:55
367,-154,-510,415,-38,78,8,-924,152,13:03:55
375,-136,-526,357,14,49,0,-927,174,13:03:55
375,-136,-526,315,35,20,-10,-917,209,13:03:55
358,-121,-508,294,37,-2,-2,-916,234,13:03:55
358,-138,-519,285,25,-10,28,-927,229,13:03:55
366,-142,-514,295,11,0,49,-925,211,13:03:55
366,-148,-522,316,-3,17,63,-912,180,13:03:55
361,-156,-507,329,-22,32,57,-890,150,13:03:55
364,-148,-513,347,-38,51,65,-884,131,13:03:55
364,-148,-513,349,-23,68,57,-870,135,13:03:55
370,-144,-514,333,-12,77,51,-848,163,13:03:55
360,-147,-516,329,-51,83,56,-840,184,13:03:55
394,-159,-517,338,-138,80,62,-860,179,13:03:55
367,-156,-507,343,-212,74,62,-860,179,13:03:55
369,-132,-505,359,-235,75,83,-910,151,13:03:55
348,-148,-507,378,-218,89,116,-987,123,13:03:55
348,-148,-507,378,-218,89,154,-1085,132,13:03:55
340,-160,-496,394,-228,125,192,-1178,162,13:03:55
355,-135,-483,399,-272,173,202,-1229,175,13:03:55
351,-138,-493,387,-323,207,187,-1214,156,13:03:55
342,-162,-507,374,-336,224,158,-1148,115,13:03:55
324,-148,-480,382,-294,224,129,-1074,70,13:03:55
336,-157,-486,378,-233,199,122,-1017,49,13:03:55
336,-157,-486,338,-165,151,120,-983,66,13:03:55
334,-157,-489,259,-117,80,105,-947,81,13:03:55
333,-168,-480,171,-72,-8,85,-897,64,13:03:55
351,-162,-478,89,18,-105,72,-871,31,13:03:55
346,-178,-457,28,170,-186,78,-876,17,13:03:55
352,-157,-486,-7,308,-229,104,-898,46,13:03:55
352,-157,-486,-1,334,-217,146,-926,90,13:03:55
346,-169,-489,42,266,-168,192,-954,117,13:03:55
366,-154,-472,98,144,-92,226,-982,122,13:03:55
361,-181,-481,133,20,-13,226,-982,122,13:03:55
339,-169,-468,154,-74,58,239,-1006,108,13:03:55
348,-160,-468,172,-135,111,224,-1015,96,13:03:55
331,-162,-480,192,-167,135,188,-1009,100,13:03:55
331,-162,-480,192,-167,135,162,-999,101,13:03:55
321,-145,-490,193,-166,140,154,-993,90,13:03:55
355,-178,-484,182,-137,130,149,-995,78,13:03:55
349,-150,-469,161,-91,112,147,-985,66,13:03:55
355,-172,-481,135,-42,86,158,-970,53,13:03:55
340,-177,-484,109,-11,65,176,-963,36,13:03:55
348,-166,-474,91,5,53,189,-956,12,13:03:55
348,-166,-474,77,21,42,188,-954,-3,13:03:55
340,-162,-475,60,43,31,187,-960,5,13:03:55
331,-172,-459,45,52,27,195,-967,26,13:03:55
327,-174,-472,32,42,32,207,-974,38,13:03:55
343,-175,-477,23,32,38,221,-983,38,13:03:55
337,-171,-471,20,18,50,225,-994,38,13:03:55
355,-177,-457,18,3,58,213,-998,44,13:03:55
355,-177,-457,21,1,54,199,-999,47,13:03:55
346,-159,-466,26,7,45,190,-994,55,13:03:55
324,-160,-465,35,0,35,190,-994,55,13:03:55
343,-157,-469,45,-11,25,180,-988,73,13:03:55
343,-156,-459,59,-18,16,171,-983,78,13:03:55
354,-175,-492,67,-23,4,162,-973,71,13:03:55
337,-154,-460,71,-31,-5,155,-958,64,13:03:55
337,-154,-460,71,-31,-5,159,-948,53,13:03:55
330,-166,-516,74,-53,-11,167,-944,41,13:03:55
340,-175,-490,79,-72,-13,163,-943,43,13:03:55
343,-166,-493,81,-93,-12,164,-949,42,13:03:55
331,-199,-480,86,-102,-9,170,-960,38,13:03:55
324,-171,-493,86,-105,-7,172,-964,45,13:03:55
328,-160,-480,86,-99,-6,179,-964,49,13:03:55
328,-160,-480,90,-104,-2,187,-966,54,13:03:55
339,-180,-471,93,-120,1,199,-973,56,13:03:55
325,-187,-481,102,-131,7,213,-978,48,13:03:55
336,-181,-466,110,-137,11,221,-975,41,13:03:55
331,-166,-469,113,-135,13,225,-970,36,13:03:55
327,-157,-469,106,-118,11,222,-968,25,13:03:55
327,-157,-469,100,-96,10,216,-968,15,13:03:55
310,-177,-441,93,-67,5,212,-971,9,13:03:55
352,-174,-472,89,-39,1,212,-971,9,13:03:55
324,-174,-442,87,-18,2,209,-971,7,13:03:55
342,-160,-459,84,-3,2,209,-970,7,13:03:55
336,-157,-471,81,10,0,208,-974,3,13:03:55
318,-156,-466,81,10,0,205,-973,-3,13:03:55
318,-156,-466,77,31,-4,200,-970,-5,13:03:55
337,-184,-450,70,50,-12,193,-966,-1,13:03:55
339,-181,-469,60,63,-20,186,-965,0,13:03:55
337,-151,-474,47,63,-27,178,-967,3,13:03:56
328,-172,-474,35,56,-32,171,-966,11,13:03:56
331,-165,-457,25,46,-37,163,-967,12,13:03:56
340,-159,-451,17,43,-42,157,-971,10,13:03:56
340,-159,-451,9,44,-44,157,-971,12,13:03:56
337,-172,-463,5,30,-44,160,-975,14,13:03:56
318,-174,-468,3,20,-39,159,-977,11,13:03:56
345,-153,-474,4,16,-37,158,-974,12,13:03:56
333,-198,-456,6,8,-35,160,-972,19,13:03:56
337,-180,-472,4,0,-33,160,-973,19,13:03:56
337,-180,-472,5,-1,-33,163,-976,22,13:03:56
322,-168,-453,4,-3,-34,163,-976,22,13:03:56
339,-186,-480,2,-9,-33,164,-979,30,13:03:56
312,-165,-469,2,-14,-32,164,-978,27,13:03:56
330,-180,-469,1,-10,-36,163,-975,21,13:03:56
333,-177,-463,2,-11,-36,162,-972,20,13:03:56
333,-163,-463,2,-11,-36,163,-974,21,13:03:56
333,-163,-463,3,-14,-36,163,-976,18,13:03:56
330,-171,-462,3,-16,-35,163,-975,20,13:03:56
330,-171,-462,4,-18,-34,162,-972,26,13:03:56
358,-171,-469,5,-22,-33,162,-967,25,13:03:56
342,-168,-469,5,-28,-34,162,-962,19,13:03:56
333,-166,-481,1,-23,-33,164,-965,19,13:03:56
328,-168,-478,0,-19,-32,166,-970,25,13:03:56
328,-168,-478,-3,-19,-31,167,-969,25,13:03:56
336,-166,-456,-2,-16,-30,166,-967,23,13:03:56
336,-166,-456,0,-12,-32,161,-971,23,13:03:56
327,-166,-475,-2,-7,-34,160,-973,23,13:03:56
339,-177,-480,-3,-9,-34,157,-974,28,13:03:56
337,-165,-478,-3,-16,-34,154,-976,29,13:03:56
345,-186,-478,-3,-24,-31,153,-976,29,13:03:56
345,-186,-478,-4,-29,-30,153,-976,29,13:03:56
343,-196,-456,-2,-25,-27,151,-973,30,13:03:56
342,-169,-474,0,-30,-24,155,-972,27,13:03:56
337,-175,-469,1,-29,-23,158,-972,28,13:03:56
339,-180,-466,1,-29,-23,160,-970,30,13:03:56
348,-180,-477,0,-28,-22,167,-971,29,13:03:56
348,-180,-477,2,-28,-21,172,-970,27,13:03:56
328,-172,-460,4,-23,-21,168,-968,24,13:03:56
342,-180,-441,2,-15,-23,166,-965,28,13:03:56
342,-180,-441,2,-14,-24,165,-963,32,13:03:56
337,-177,-489,2,-12,-25,164,-963,30,13:03:56
340,-174,-471,1,-10,-25,164,-967,29,13:03:56
336,-166,-468,2,-14,-23,167,-972,30,13:03:56
336,-166,-468,4,-17,-18,165,-970,33,13:03:56
336,-171,-456,4,-14,-16,163,-967,35,13:03:56
330,-180,-475,4,-9,-17,163,-965,32,13:03:56
325,-181,-477,2,-9,-16,165,-966,29,13:03:56
327,-177,-462,3,-4,-14,162,-970,30,13:03:56
340,-183,-466,2,0,-16,159,-971,34,13:03:56
328,-181,-468,0,-2,-17,161,-969,37,13:03:56
328,-181,-468,-4,-4,-19,161,-969,37,13:03:56
327,-165,-474,-5,-2,-21,160,-971,36,13:03:56
331,-159,-448,-4,7,-22,158,-976,34,13:03:56
331,-159,-448,-3,5,-23,156,-976,39,13:03:56
324,-157,-465,-3,5,-23,157,-970,40,13:03:56
322,-175,-471,-2,4,-23,159,-966,36,13:03:56
330,-172,-471,-2,4,-21,161,-965,33,13:03:56
324,-178,-477,0,5,-18,163,-968,32,13:03:56
324,-178,-477,4,7,-15,164,-969,33,13:03:56
328,-171,-465,7,2,-11,165,-970,36,13:03:56
330,-159,-457,6,0,-8,165,-967,37,13:03:56
328,-183,-471,2,0,-9,162,-966,35,13:03:56
346,-175,-472,2,4,-9,156,-967,36,13:03:56
313,-174,-469,1,7,-10,155,-970,33,13:03:56
313,-174,-469,0,9,-11,155,-971,31,13:03:56
346,-171,-469,-1,14,-14,155,-971,32,13:03:56
324,-187,-457,-1,6,-12,155,-971,34,13:03:56
324,-187,-457,-1,4,-11,157,-971,34,13:03:56
330,-166,-484,-1,0,-11,159,-970,34,13:03:56
346,-163,-466,0,-6,-10,156,-968,32,13:03:56
328,-183,-475,0,-8,-10,156,-968,32,13:03:56
336,-174,-475,0,-4,-10,155,-970,31,13:03:56
336,-174,-475,3,-8,-8,157,-970,34,13:03:56
321,-175,-469,4,-14,-7,161,-970,39,13:03:56
321,-175,-469,4,-14,-7,164,-971,38,13:03:56
345,-177,-466,3,-18,-7,162,-972,32,13:03:56
337,-207,-463,3,-16,-9,162,-970,28,13:03:56
333,-163,-481,3,-12,-11,166,-968,27,13:03:56
331,-190,-481,2,-9,-12,170,-970,31,13:03:56
331,-190,-481,3,-7,-10,170,-968,35,13:03:56
315,-171,-466,4,-6,-8,173,-965,38,13:03:56
339,-183,-462,4,-6,-5,179,-965,39,13:03:56
345,-183,-484,4,-8,-4,182,-966,38,13:03:56
328,-163,-465,5,-10,-4,182,-970,35,13:03:56
348,-187,-474,6,-4,-4,181,-969,34,13:03:56
348,-187,-474,4,0,-5,180,-964,40,13:03:56
330,-187,-492,1,2,-7,180,-965,37,13:03:56
348,-178,-475,1,9,-6,177,-967,31,13:03:56
348,-178,-475,0,17,-9,172,-967,33,13:03:56
337,-178,-468,1,22,-10,172,-967,33,13:03:56
351,-171,-484,0,21,-10,172,-965,37,13:03:56
349,-171,-489,2,13,-7,177,-965,36,13:03:56
349,-177,-459,3,12,-6,177,-967,33,13:03:56
349,-177,-459,3,12,-6,176,-972,28,13:03:56
336,-193,-457,7,18,-6,174,-971,29,13:03:56
319,-168,-477,8,20,-6,171,-968,35,13:03:56
355,-169,-457,7,21,-6,172,-970,35,13:03:56
336,-171,-459,4,20,-5,170,-969,30,13:03:56
342,-165,-475,4,22,-6,170,-969,26,13:03:56
342,-165,-475,5,25,-7,169,-967,28,13:03:56
355,-178,-475,4,25,-7,167,-967,30,13:03:56
325,-160,-469,4,29,-7,169,-966,31,13:03:56
325,-160,-469,1,22,-7,170,-968,31,13:03:56
331,-169,-465,1,17,-7,169,-973,28,13:03:56
327,-180,-474,2,20,-8,169,-974,27,13:03:56
339,-172,-486,2,19,-10,167,-974,28,13:03:56
339,-172,-486,1,16,-10,166,-971,26,13:03:57
322,-184,-486,0,14,-11,168,-969,27,13:03:57
340,-178,-475,1,11,-11,167,-969,26,13:03:57
340,-184,-462,2,9,-11,167,-969,26,13:03:57
337,-177,-478,2,11,-13,164,-968,25,13:03:57
328,-169,-478,0,12,-15,161,-968,26,13:03:57
330,-178,-463,0,9,-14,163,-971,29,13:03:57
330,-178,-463,0,9,-14,167,-971,32,13:03:57
340,-165,-487,0,7,-13,168,-971,31,13:03:57
328,-172,-438,0,3,-10,168,-971,32,13:03:57
328,-172,-438,1,3,-10,167,-973,33,13:03:57
327,-178,-474,0,0,-9,169,-971,31,13:03:57
331,-181,-448,-2,-2,-9,170,-966,28,13:03:57
330,-181,-460,-5,3,-11,169,-965,27,13:03:57
357,-181,-474,-4,3,-12,168,-965,28,13:03:57
357,-181,-474,-4,7,-13,168,-966,27,13:03:57
334,-168,-468,-4,14,-14,169,-969,28,13:03:57
339,-174,-469,-4,12,-14,168,-971,28,13:03:57
333,-172,-474,-4,9,-13,169,-972,29,13:03:57
337,-186,-481,-2,6,-14,171,-970,30,13:03:57
348,-198,-469,-2,2,-16,170,-968,31,13:03:57
348,-198,-469,-4,-1,-16,166,-970,30,13:03:57
339,-168,-480,-3,2,-16,163,-969,31,13:03:57
324,-163,-469,-3,9,-18,164,-968,35,13:03:57
349,-172,-471,-2,7,-18,164,-968,35,13:03:57
333,-177,-465,0,7,-17,166,-971,34,13:03:57
330,-169,-465,0,4,-15,167,-974,32,13:03:57
337,-178,-492,0,4,-15,169,-972,33,13:03:57
337,-178,-492,2,-5,-12,170,-968,34,13:03:57
337,-183,-477,0,-9,-12,172,-967,35,13:03:57
330,-177,-478,-2,-11,-13,172,-969,35,13:03:57
330,-177,-478,-5,-11,-13,172,-967,33,13:03:57
343,-189,-490,-7,-9,-13,168,-967,34,13:03:57
334,-177,-459,-8,-4,-13,164,-968,40,13:03:57
325,-168,-480,-9,-3,-16,166,-970,41,13:03:57
319,-166,-481,-13,-6,-16,168,-972,38,13:03:57
319,-166,-481,-14,-9,-15,170,-972,34,13:03:57
313,-184,-462,-14,-11,-15,170,-970,33,13:03:57
333,-172,-445,-14,-8,-15,168,-968,34,13:03:57
342,-171,-475,-10,-3,-16,166,-969,37,13:03:57
348,-183,-484,-10,0,-19,165,-970,40,13:03:57
348,-175,-487,-13,0,-18,170,-971,42,13:03:57
348,-175,-487,-11,-7,-16,172,-971,43,13:03:57
345,-166,-462,-8,-11,-16,172,-971,43,13:03:57
321,-168,-474,-7,-2,-16,168,-969,39,13:03:57
321,-168,-474,-6,-4,-16,167,-967,38,13:03:57
334,-177,-484,-5,-7,-17,165,-968,40,13:03:57
333,-172,-478,-5,-7,-17,166,-967,43,13:03:57
330,-186,-469,-7,-11,-16,171,-968,41,13:03:57
330,-186,-469,-7,-16,-15,170,-968,38,13:03:57
336,-186,-460,-7,-14,-15,168,-969,37,13:03:57
360,-190,-495,-4,-7,-16,167,-971,42,13:03:57
349,-174,-484,-7,-6,-19,165,-966,46,13:03:57
331,-171,-484,-12,-6,-21,169,-968,47,13:03:57
337,-178,-478,-14,-5,-21,171,-970,47,13:03:57
337,-175,-478,-14,-4,-20,170,-966,46,13:03:57
342,-153,-478,-14,-3,-19,173,-961,44,13:03:57
342,-153,-478,-12,-2,-21,166,-961,42,13:03:57
327,-174,-457,-11,-2,-21,172,-968,42,13:03:57
327,-174,-457,-4,2,-19,182,-969,45,13:03:57
348,-183,-468,-1,-2,-16,179,-968,45,13:03:57
336,-181,-463,0,0,-15,179,-968,45,13:03:57
327,-172,-474,-2,2,-16,175,-969,43,13:03:57
327,-172,-474,-2,3,-16,170,-965,45,13:03:57
343,-184,-499,-4,5,-18,169,-966,46,13:03:57
319,-192,-477,-4,5,-18,169,-967,44,13:03:57
324,-180,-475,-2,7,-18,168,-966,41,13:03:57
333,-177,-469,-2,7,-18,168,-969,39,13:03:57
340,-172,-468,0,6,-18,164,-969,40,13:03:57
331,-181,-481,0,9,-20,160,-970,42,13:03:57
331,-181,-481,-1,9,-21,161,-971,43,13:03:57
334,-159,-489,-3,7,-22,161,-968,43,13:03:57
321,-190,-462,-7,1,-21,165,-968,42,13:03:57
321,-190,-462,-4,0,-19,168,-968,46,13:03:57
330,-177,-471,-4,0,-19,167,-968,48,13:03:57
325,-172,-493,-5,0,-19,167,-967,43,13:03:57
328,-178,-493,-3,0,-18,167,-967,42,13:03:57
346,-171,-477,-2,0,-17,167,-968,43,13:03:57
346,-171,-477,0,-1,-17,167,-970,40,13:03:57
352,-180,-480,0,-6,-15,168,-971,41,13:03:57
328,-175,-469,0,-4,-14,166,-972,44,13:03:57
339,-163,-481,3,-6,-12,163,-971,40,13:03:57
339,-193,-477,2,-4,-15,163,-971,40,13:03:57
336,-177,-490,0,0,-16,161,-967,37,13:03:57
336,-177,-490,0,-1,-16,162,-966,40,13:03:57
328,-192,-481,0,-4,-16,165,-968,43,13:03:57
321,-154,-453,0,-4,-18,164,-970,42,13:03:57
346,-180,-474,0,-4,-18,162,-972,40,13:03:57
352,-183,-489,0,-2,-18,162,-972,45,13:03:57
339,-196,-493,0,-4,-18,162,-970,47,13:03:57
345,-199,-471,-2,-6,-17,162,-971,44,13:03:57
345,-199,-471,-1,-9,-17,161,-972,42,13:03:57
327,-181,-474,0,-11,-18,158,-972,41,13:03:57
336,-154,-478,-3,-5,-18,156,-970,41,13:03:57
336,-154,-478,-2,-8,-19,153,-965,42,13:03:57
342,-159,-489,-3,-8,-18,158,-967,41,13:03:57
351,-166,-471,0,-9,-15,162,-968,45,13:03:57
340,-177,-472,1,-9,-15,163,-966,48,13:03:57
346,-160,-478,1,-9,-16,166,-969,48,13:03:57
346,-160,-478,2,-10,-15,168,-966,49,13:03:57
337,-178,-460,2,-10,-14,169,-965,47,13:03:57
337,-184,-463,3,-8,-14,169,-968,47,13:03:57
351,-181,-486,3,-5,-14,169,-968,47,13:03:57
349,-166,-481,4,-3,-14,170,-971,51,13:03:57
334,-189,-465,3,-3,-14,170,-972,53,13:03:57
334,-189,-465,3,-3,-14,168,-971,54,13:03:57
331,-169,-457,2,-2,-14,162,-971,53,13:03:58
324,-174,-472,0,-1,-13,160,-974,53,13:03:58
324,-174,-472,1,-4,-11,160,-973,53,13:03:58
319,-160,-472,0,-5,-11,157,-972,47,13:03:58
337,-174,-468,-3,-3,-9,160,-973,43,13:03:58
331,-186,-472,-4,-5,-7,161,-973,45,13:03:58
331,-186,-472,-6,-8,-7,158,-971,40,13:03:58
324,-175,-481,-11,-8,-7,157,-970,33,13:03:58
346,-172,-472,-14,-21,-6,155,-970,32,13:03:58
346,-157,-475,-18,-11,-7,153,-969,31,13:03:58
343,-180,-492,-20,-7,-9,154,-970,30,13:03:58
343,-171,-477,-21,-4,-9,153,-970,33,13:03:58
349,-180,-463,-21,-6,-11,154,-970,36,13:03:58
349,-180,-463,-21,-9,-11,157,-969,38,13:03:58
343,-175,-478,-20,-11,-11,157,-971,39,13:03:58
325,-177,-465,-18,-16,-11,157,-970,37,13:03:58
325,-177,-465,-15,-16,-13,157,-970,37,13:03:58
348,-177,-466,-13,-16,-13,160,-972,37,13:03:58
343,-183,-480,-7,-16,-14,159,-973,34,13:03:58
346,-193,-492,-4,-14,-16,156,-968,35,13:03:58
349,-183,-486,-4,-14,-16,155,-967,38,13:03:58
349,-183,-486,-2,-13,-16,157,-968,39,13:03:58
334,-171,-487,-2,-16,-16,159,-970,42,13:03:58
319,-177,-472,0,-15,-16,162,-969,43,13:03:58
325,-183,-474,2,-14,-14,167,-966,45,13:03:58
346,-175,-475,3,-20,-13,171,-968,45,13:03:58
328,-172,-480,3,-20,-12,171,-968,42,13:03:58
328,-172,-480,1,-17,-11,170,-966,45,13:03:58
328,-174,-492,-3,-14,-12,168,-966,50,13:03:58
325,-177,-480,-11,-8,-15,168,-967,48,13:03:58
343,-151,-462,-11,-7,-15,169,-969,49,13:03:58
336,-162,-493,-11,-5,-15,168,-969,55,13:03:58
333,-187,-480,-11,-7,-13,170,-971,55,13:03:58
333,-187,-480,-9,-9,-11,171,-970,53,13:03:58
333,-189,-489,-8,-9,-13,171,-970,53,13:03:58
325,-157,-502,-7,-7,-13,169,-965,52,13:03:58
309,-180,-471,-2,-6,-14,167,-967,51,13:03:58
309,-180,-471,-2,-5,-13,167,-967,50,13:03:58
358,-174,-480,-2,0,-13,166,-968,54,13:03:58
349,-180,-472,-2,2,-13,166,-967,56,13:03:58
324,-178,-501,-4,0,-11,167,-968,54,13:03:58
358,-175,-483,-4,-2,-11,165,-968,50,13:03:58
337,-166,-469,-4,-3,-11,163,-965,47,13:03:58
337,-166,-469,-4,2,-12,160,-965,46,13:03:58
340,-169,-484,-3,2,-14,161,-967,51,13:03:58
339,-178,-489,-3,2,-13,161,-967,51,13:03:58
336,-156,-474,-2,-1,-12,164,-970,53,13:03:58
325,-168,-489,0,0,-12,166,-969,49,13:03:58
345,-172,-480,-1,1,-11,166,-970,48,13:03:58
345,-172,-480,-1,1,-11,163,-970,48,13:03:58
321,-166,-465,-2,2,-12,161,-969,46,13:03:58
321,-166,-465,-2,0,-13,162,-972,46,13:03:58
346,-168,-468,-2,-2,-11,163,-970,47,13:03:58
334,-183,-475,-2,-4,-10,163,-968,47,13:03:58
339,-177,-474,-2,-5,-11,162,-968,45,13:03:58
318,-171,-477,-3,-3,-13,162,-969,47,13:03:58
318,-171,-477,-4,0,-15,162,-969,50,13:03:58
349,-160,-454,-7,0,-16,164,-968,49,13:03:58
349,-160,-454,-4,0,-15,165,-969,47,13:03:58
330,-175,-495,-2,0,-14,165,-971,44,13:03:58
342,-184,-456,0,0,-14,167,-969,48,13:03:58
331,-168,-490,2,-5,-11,168,-968,50,13:03:58
325,-171,-487,2,-7,-11,165,-968,47,13:03:58
325,-171,-487,2,-4,-11,163,-967,47,13:03:58
345,-165,-454,2,-7,-11,162,-968,52,13:03:58
321,-181,-475,0,-2,-12,162,-968,52,13:03:58
355,-184,-463,0,0,-12,168,-968,53,13:03:58
343,-162,-481,0,1,-13,169,-969,51,13:03:58
348,-175,-472,0,1,-13,168,-969,47,13:03:58
348,-175,-472,0,4,-12,170,-969,47,13:03:58
348,-177,-483,0,2,-13,167,-972,49,13:03:58
325,-160,-457,0,3,-12,162,-970,50,13:03:58
325,-160,-457,0,4,-14,160,-968,51,13:03:58
327,-174,-477,0,7,-15,160,-967,49,13:03:58
352,-162,-465,-2,8,-16,162,-965,48,13:03:58
342,-171,-487,-1,8,-15,163,-966,48,13:03:58
327,-174,-484,1,9,-14,164,-968,48,13:03:58
327,-174,-484,2,12,-14,164,-970,49,13:03:58
346,-181,-481,2,12,-15,164,-970,51,13:03:58
352,-180,-465,1,9,-15,165,-968,51,13:03:58
333,-168,-483,2,4,-14,164,-968,50,13:03:58
334,-175,-490,2,4,-14,159,-968,50,13:03:58
349,-171,-474,3,4,-15,157,-967,52,13:03:58
349,-171,-474,3,3,-14,156,-968,51,13:03:58
331,-166,-478,3,7,-16,156,-968,51,13:03:58
336,-177,-477,2,7,-15,159,-968,51,13:03:58
336,-177,-477,0,5,-14,161,-967,54,13:03:58
334,-186,-489,-2,1,-14,160,-970,53,13:03:58
342,-160,-481,-3,-1,-14,160,-970,54,13:03:58
333,-181,-496,-3,-1,-14,161,-965,54,13:03:58
333,-181,-496,-2,-4,-14,163,-965,51,13:03:58
357,-174,-466,0,-2,-13,164,-969,52,13:03:58
348,-181,-462,0,-2,-12,166,-971,56,13:03:58
325,-178,-475,0,0,-12,166,-974,58,13:03:58
357,-175,-480,0,-2,-12,167,-972,59,13:03:58
345,-168,-463,-2,-9,-14,170,-968,59,13:03:58
336,-168,-483,-2,-9,-14,168,-968,55,13:03:58
337,-180,-468,-1,-6,-13,164,-970,53,13:03:58
337,-180,-468,-1,-4,-13,165,-968,55,13:03:59
343,-178,-445,-1,-2,-13,165,-968,57,13:03:59
343,-178,-445,0,-4,-11,165,-969,58,13:03:59
313,-177,-469,-2,-6,-11,164,-968,61,13:03:59
337,-174,-487,-1,-6,-11,165,-969,60,13:03:59
334,-184,-486,0,-6,-11,166,-968,56,13:03:59
334,-184,-486,0,-3,-11,166,-968,56,13:03:59
355,-187,-477,1,-4,-11,163,-969,54,13:03:59
346,-168,-499,1,-7,-8,167,-970,60,13:03:59
334,-195,-480,1,-12,-8,170,-968,64,13:03:59
339,-172,-477,1,-16,-7,169,-966,59,13:03:59
321,-183,-480,1,-16,-7,169,-965,53,13:03:59
360,-178,-493,1,-14,-6,167,-965,48,13:03:59
360,-178,-493,2,-5,-7,165,-964,49,13:03:59
339,-180,-483,2,0,-7,169,-964,55,13:03:59
328,-166,-463,1,-6,-7,171,-966,58,13:03:59
337,-166,-466,1,-1,-9,167,-970,58,13:03:59
324,-190,-477,2,0,-9,168,-971,58,13:03:59
333,-180,-474,3,-2,-11,168,-971,53,13:03:59
333,-157,-477,2,-2,-12,165,-970,49,13:03:59
336,-168,-486,4,3,-13,162,-970,52,13:03:59
336,-168,-486,7,9,-14,161,-968,55,13:03:59
313,-168,-459,13,4,-12,168,-968,56,13:03:59
313,-168,-459,12,0,-10,172,-970,51,13:03:59
334,-181,-471,13,-2,-7,169,-970,49,13:03:59
343,-172,-481,11,-9,-6,168,-968,53,13:03:59
328,-162,-490,10,-15,-6,168,-968,53,13:03:59
328,-165,-495,7,-12,-8,168,-966,51,13:03:59
328,-165,-495,4,-9,-10,166,-967,49,13:03:59
325,-174,-487,3,-4,-11,167,-967,52,13:03:59
328,-157,-466,3,-4,-11,166,-969,56,13:03:59
330,-184,-484,2,-5,-11,168,-970,59,13:03:59
345,-178,-478,1,-7,-11,173,-969,55,13:03:59
343,-160,-481,0,-8,-12,172,-970,53,13:03:59
343,-160,-481,-1,-9,-12,169,-970,55,13:03:59
342,-180,-486,-1,-9,-12,173,-974,58,13:03:59
319,-172,-468,0,-8,-11,176,-974,58,13:03:59
319,-172,-468,1,-13,-9,174,-969,52,13:03:59
330,-177,-484,2,-11,-9,172,-967,49,13:03:59
349,-165,-486,3,-7,-10,172,-967,52,13:03:59
340,-145,-471,2,-4,-11,171,-967,52,13:03:59
322,-178,-487,4,-3,-12,168,-964,49,13:03:59
322,-178,-487,4,-2,-12,167,-963,49,13:03:59
337,-175,-484,7,-7,-12,168,-964,53,13:03:59
342,-174,-486,8,-7,-11,171,-968,53,13:03:59
340,-175,-474,7,-8,-12,170,-970,52,13:03:59
318,-183,-487,4,-9,-12,170,-970,52,13:03:59
343,-172,-459,1,-9,-13,167,-968,55,13:03:59
342,-160,-468,0,-8,-14,167,-968,56,13:03:59
342,-160,-468,0,-8,-14,167,-968,56,13:03:59
348,-159,-465,0,-6,-14,168,-970,54,13:03:59
348,-159,-465,1,-6,-14,168,-971,50,13:03:59
339,-177,-489,2,-3,-14,168,-971,49,13:03:59
327,-184,-495,2,-6,-11,170,-969,53,13:03:59
327,-184,-495,4,-14,-10,170,-968,55,13:03:59
342,-175,-487,2,-16,-11,166,-967,48,13:03:59
337,-166,-480,2,-14,-11,164,-965,43,13:03:59
325,-186,-459,2,-14,-12,167,-965,46,13:03:59
325,-186,-459,4,-7,-14,170,-966,50,13:03:59
324,-180,-490,6,-5,-14,170,-967,49,13:03:59
340,-174,-475,6,-5,-14,169,-969,50,13:03:59
337,-168,-472,4,-4,-14,169,-972,53,13:03:59
337,-168,-472,5,-4,-14,167,-970,55,13:03:59
337,-172,-483,3,-9,-14,169,-969,51,13:03:59
342,-186,-459,1,-11,-14,171,-968,48,13:03:59
342,-172,-477,1,-12,-14,171,-968,48,13:03:59
336,-180,-462,1,-11,-14,170,-967,48,13:03:59
337,-165,-478,0,-9,-16,168,-969,47,13:03:59
339,-184,-484,0,-7,-16,168,-970,51,13:03:59
339,-184,-484,0,-7,-16,172,-971,52,13:03:59
346,-174,-477,0,-8,-16,173,-971,50,13:03:59
312,-180,-466,0,-7,-16,170,-967,49,13:03:59
312,-180,-466,0,-7,-15,170,-965,47,13:03:59
333,-189,-477,0,-8,-15,171,-966,47,13:03:59
343,-163,-480,0,-9,-14,168,-966,46,13:03:59
343,-157,-462,0,-9,-14,165,-962,48,13:03:59
343,-157,-462,-2,-9,-15,167,-964,52,13:03:59
325,-166,-469,-4,-9,-15,170,-969,54,13:03:59
333,-174,-472,-4,-6,-16,170,-971,54,13:03:59
330,-183,-472,-2,-7,-16,168,-970,49,13:03:59
342,-169,-480,0,-5,-16,165,-970,43,13:03:59
334,-157,-475,0,-4,-16,165,-971,44,13:03:59
333,-175,-483,2,-1,-18,168,-969,49,13:03:59
337,-181,-478,2,-3,-17,171,-967,52,13:03:59
337,-181,-478,2,-4,-18,172,-966,52,13:03:59
337,-163,-456,0,-7,-18,172,-966,52,13:03:59
337,-163,-456,0,-9,-16,170,-968,51,13:03:59
331,-174,-478,1,-10,-16,168,-971,49,13:03:59
331,-162,-468,1,-10,-16,167,-971,47,13:03:59
331,-162,-468,1,-10,-16,166,-969,48,13:03:59
345,-160,-481,1,-9,-16,165,-970,50,13:03:59
331,-169,-469,0,-4,-17,167,-972,53,13:03:59
