magX[mG],magY[mG],magZ[mG],gyroX[mdps],gyroY[mdps],gyroZ[mdps],accX[mg],accY[mg],accZ[mg],hh:mm:ss.ms
769,433,-526,26,27,29,-248,980,112,0:34:27
769,433,-526,26,27,29,-248,980,112,0:34:27
769,433,-526,26,27,29,-248,980,112,0:34:27
757,436,-531,51,9,30,-248,980,112,0:34:27
765,436,-531,37,18,18,-242,971,107,0:34:27
765,436,-531,31,17,-4,-223,952,105,0:34:27
771,436,-537,23,9,-25,-215,946,115,0:34:27
766,435,-540,16,50,-44,-206,958,115,0:34:27
757,436,-523,-25,114,-36,-206,958,115,0:34:27
759,442,-538,-100,169,-51,-159,938,119,0:34:27
759,442,-538,-200,407,-152,-168,918,142,0:34:27
774,429,-532,-329,410,-262,-234,900,152,0:34:27
766,445,-532,-231,490,-198,-205,881,101,0:34:27
781,424,-514,-46,375,-188,-102,863,31,0:34:27
774,433,-510,-39,197,-189,-174,930,151,0:34:27
819,415,-526,-42,133,-114,-270,1053,228,0:34:27
811,424,-537,-40,49,-84,-227,1067,162,0:34:27
808,433,-511,24,58,-26,-191,1025,120,0:34:27
819,453,-502,26,42,-4,-209,1039,87,0:34:27
838,471,-495,19,16,-20,-220,1007,79,0:34:27
837,454,-489,-41,0,-32,-223,945,59,0:34:27
832,459,-493,-12,-28,-23,-264,962,78,0:34:27
840,463,-471,-14,-79,-92,-240,1094,101,0:34:27
820,456,-475,-53,-164,-199,-207,1102,61,0:34:27
825,465,-489,49,-209,-253,-258,734,-32,0:34:27
805,459,-465,85,-227,-265,-258,734,-32,0:34:27
814,478,-466,179,-170,-280,-126,929,101,0:34:27
814,478,-466,292,-89,-301,-206,1018,78,0:34:27
840,447,-501,344,39,-203,-221,949,143,0:34:27
811,451,-471,322,65,-86,-147,849,99,0:34:27
817,466,-483,605,172,171,-209,922,-1,0:34:27
822,463,-490,538,105,149,-396,1237,172,0:34:27
808,441,-489,-9,-43,28,-42,749,-217,0:34:27
808,441,-489,-172,39,14,68,663,-242,0:34:27
840,445,-501,-331,-32,-10,-301,1190,259,0:34:27
825,448,-484,-200,79,37,-396,1292,230,0:34:27
834,454,-505,-203,147,-4,-289,1163,250,0:34:27
823,453,-502,-199,200,-77,-276,1017,267,0:34:27
817,462,-492,-182,178,-240,-475,1289,364,0:34:27
822,466,-514,-287,-17,-506,-278,1284,531,0:34:27
808,469,-484,9,53,-807,-162,1141,337,0:34:27
816,450,-474,37,4,-659,138,1067,183,0:34:27
795,477,-492,-93,-107,-527,-81,1050,93,0:34:27
769,489,-483,-75,-67,-454,-81,1050,93,0:34:27
798,474,-474,-373,-191,-441,-79,971,284,0:34:27
783,493,-469,-660,-522,-480,-79,971,284,0:34:27
783,493,-469,-215,-338,-396,3,1039,-77,0:34:27
780,483,-466,58,-125,-414,60,1109,-224,0:34:27
750,486,-484,56,-141,-324,-63,1064,-126,0:34:27
747,498,-490,101,-256,-360,-43,1068,-89,0:34:28
738,510,-474,72,-11,-312,22,1006,-79,0:34:28
750,490,-478,50,-76,-295,-77,1079,-117,0:34:28
748,510,-466,44,-300,-227,-15,1110,32,0:34:28
744,513,-484,25,-34,-67,294,1006,13,0:34:28
738,519,-478,70,-18,-9,272,969,2,0:34:28
742,501,-487,77,-46,78,72,1017,77,0:34:28
727,499,-489,126,-9,44,45,1064,69,0:34:28
727,514,-486,137,23,-24,45,998,38,0:34:28
718,504,-499,97,35,-53,32,930,44,0:34:28
765,495,-505,26,23,-53,59,994,96,0:34:28
724,480,-495,-2,-7,-46,54,997,68,0:34:28
733,499,-513,54,-74,-49,46,996,53,0:34:28
733,499,-513,74,-63,-46,47,1013,73,0:34:28
744,490,-502,63,-63,-39,75,1048,99,0:34:28
729,486,-496,110,-78,-46,87,1027,112,0:34:28
736,499,-484,76,-139,-75,53,966,84,0:34:28
732,490,-508,-353,-215,22,27,941,47,0:34:28
741,496,-501,-263,-301,63,21,1039,56,0:34:28
726,490,-502,18,-367,39,8,1049,122,0:34:28
724,492,-502,339,-325,-70,25,988,190,0:34:28
721,504,-496,298,-220,-116,49,1087,166,0:34:28
718,489,-508,361,-202,-231,38,1113,145,0:34:28
718,492,-529,407,-139,-299,58,1053,199,0:34:28
705,486,-532,445,-82,-354,71,990,221,0:34:28
700,478,-532,203,46,-233,58,957,205,0:34:28
697,484,-529,109,57,-140,50,1019,209,0:34:28
697,477,-535,48,63,-48,38,1032,226,0:34:28
694,484,-523,-29,105,25,38,1032,226,0:34:28
706,495,-538,-91,137,63,68,1003,185,0:34:28
702,474,-499,-123,137,60,85,1000,163,0:34:28
702,474,-499,-104,91,46,102,1033,188,0:34:28
720,495,-525,-49,64,13,144,1031,186,0:34:28
714,495,-526,-6,32,-34,157,1025,179,0:34:28
690,487,-525,5,7,-82,151,999,177,0:34:28
702,489,-522,-24,-57,-154,139,962,160,0:34:28
684,487,-528,-24,-101,-166,110,960,137,0:34:28
703,490,-502,-39,-77,-105,94,965,127,0:34:28
697,495,-534,-58,-65,-48,74,975,143,0:34:28
690,511,-523,-93,-56,-33,58,979,144,0:34:28
693,489,-520,-142,-72,-31,81,956,139,0:34:28
693,492,-517,-183,-67,-27,84,954,162,0:34:28
696,504,-519,-193,-73,-37,94,964,164,0:34:28
696,504,-519,-235,-122,-91,117,949,162,0:34:28
684,493,-507,-245,-137,-125,149,952,123,0:34:28
684,493,-507,-215,-46,-91,134,994,79,0:34:28
682,502,-490,-149,52,-73,134,994,79,0:34:28
682,502,-490,-140,35,-18,150,1001,95,0:34:28
685,519,-498,-42,70,62,171,999,102,0:34:28
676,511,-507,-37,43,111,156,1007,101,0:34:28
691,499,-499,-58,23,132,148,1001,97,0:34:29
699,514,-504,-59,23,137,139,992,73,0:34:29
697,519,-496,-96,47,144,137,984,62,0:34:29
684,504,-502,-144,46,135,132,982,52,0:34:29
705,510,-499,-159,59,116,129,982,35,0:34:29
700,510,-472,-162,18,92,121,992,53,0:34:29
714,501,-495,-142,-63,55,108,1015,56,0:34:29
714,501,-495,-97,-134,24,113,1033,43,0:34:29
711,522,-496,-30,-140,25,123,1036,62,0:34:29
694,493,-493,8,-113,44,128,1038,68,0:34:29
697,501,-493,16,-97,85,130,1031,53,0:34:29
687,501,-489,18,-93,110,138,979,50,0:34:29
708,513,-487,66,-130,132,111,958,96,0:34:29
705,513,-498,40,-85,138,111,958,96,0:34:29
700,514,-507,-31,-37,146,85,954,119,0:34:29
706,498,-487,-65,-25,91,46,995,105,0:34:29
700,504,-490,-81,-11,130,54,1006,59,0:34:29
715,526,-481,-75,-41,147,41,1066,67,0:34:29
718,513,-486,-55,-49,123,42,1077,65,0:34:29
712,520,-505,-35,104,472,67,1016,48,0:34:29
712,520,-505,-36,134,234,23,743,-358,0:34:29
730,505,-487,-165,145,284,-37,836,-362,0:34:29
724,481,-492,-107,23,100,-152,1398,60,0:34:29
741,514,-469,-74,30,9,-124,1331,55,0:34:29
736,501,-493,-60,112,-9,-6,1043,30,0:34:29
738,483,-481,-32,121,-16,-6,1017,21,0:34:29
730,478,-480,-33,72,-10,17,992,12,0:34:29
736,498,-486,-34,7,-11,34,995,41,0:34:29
744,514,-486,-163,46,174,29,994,55,0:34:29
751,510,-474,-131,28,128,80,1024,136,0:34:29
733,511,-480,9,67,429,45,510,-125,0:34:29
753,505,-465,-51,-14,37,45,510,-125,0:34:29
739,496,-478,-161,226,545,63,589,-3,0:34:29
750,498,-466,-61,51,149,-347,1331,-91,0:34:29
769,510,-471,-133,44,301,-303,1482,102,0:34:29
757,511,-486,-14,-1,112,-167,1491,139,0:34:29
741,501,-472,16,35,18,-242,1511,-5,0:34:29
741,501,-472,3,67,39,-71,1080,40,0:34:29
747,495,-472,-30,74,60,-59,1034,31,0:34:29
763,514,-469,-56,72,75,-49,1002,17,0:34:29
753,505,-478,-65,62,78,-43,995,9,0:34:29
763,490,-460,-49,67,56,-47,1005,3,0:34:29
775,513,-471,-25,50,25,-44,1017,-3,0:34:29
756,483,-448,-16,22,13,-24,1007,-1,0:34:29
763,489,-459,-15,30,8,-24,1001,-1,0:34:29
757,504,-472,-7,-1,14,-35,1019,-4,0:34:29
771,486,-477,2,-12,12,-34,1026,-7,0:34:29
778,495,-456,19,-9,8,-44,1012,-7,0:34:29
757,505,-471,39,0,7,-44,1012,-7,0:34:29
744,492,-460,50,66,-16,-57,1032,-10,0:34:29
763,495,-447,67,112,-34,-64,1022,-12,0:34:29
763,514,-466,42,131,-9,-75,1008,-19,0:34:30
768,481,-468,32,130,13,-62,1014,-3,0:34:30
768,481,-468,10,133,18,-26,1008,17,0:34:30
775,499,-465,6,103,14,-53,996,13,0:34:30
789,495,-456,-3,67,12,-81,1012,14,0:34:30
792,486,-468,-2,15,-2,-87,1024,20,0:34:30
780,483,-472,5,-6,-9,-94,1025,32,0:34:30
762,492,-469,14,-4,-13,-83,1016,15,0:34:30
769,493,-477,16,-4,-9,-70,1000,-7,0:34:30
772,513,-472,16,7,-7,-62,1006,7,0:34:30
763,492,-462,43,-8,-21,-69,1003,14,0:34:30
774,499,-459,33,-4,-19,-80,992,11,0:34:30
786,486,-462,21,-5,-11,-83,1001,24,0:34:30
784,492,-457,16,4,-7,-83,1014,26,0:34:30
766,501,-487,6,10,-5,-82,1007,16,0:34:30
769,492,-466,0,7,-9,-82,1007,16,0:34:30
754,498,-427,-7,9,-12,-80,1001,16,0:34:30
786,499,-463,-16,-1,-12,-82,995,6,0:34:30
784,492,-465,-27,-12,-7,-76,988,3,0:34:30
784,492,-465,-35,0,0,-73,1002,6,0:34:30
762,507,-462,-40,14,4,-76,1015,1,0:34:30
762,507,-462,-47,15,7,-75,1008,-1,0:34:30
765,487,-469,-49,16,4,-72,1005,-3,0:34:30
789,487,-448,-47,16,-3,-68,1004,-8,0:34:30
774,462,-453,-41,9,-5,-63,1003,-10,0:34:30
786,499,-462,-34,10,-1,-74,1023,-1,0:34:30
801,495,-444,-28,19,-1,-91,1049,17,0:34:30
775,499,-457,-7,18,7,-78,1021,14,0:34:30
774,489,-466,11,29,23,-73,997,-4,0:34:30
787,487,-430,20,32,24,-83,1006,-5,0:34:30
784,477,-456,27,27,28,-82,1002,7,0:34:30
781,489,-462,35,13,28,-81,996,21,0:34:30
781,502,-463,35,3,10,-82,990,20,0:34:30
784,496,-433,31,-4,-2,-82,990,20,0:34:30
796,492,-483,33,2,-2,-90,1008,7,0:34:30
780,492,-468,34,15,1,-85,1008,13,0:34:30
784,492,-450,35,16,-7,-91,1001,23,0:34:30
784,492,-450,36,4,-5,-110,1041,27,0:34:30
772,490,-436,36,-4,-30,-108,1053,34,0:34:30
781,481,-456,41,0,-18,-71,1003,26,0:34:30
804,493,-451,35,0,-29,-72,1001,19,0:34:30
784,481,-462,39,-2,-23,-82,1026,15,0:34:30
777,481,-469,44,-2,-18,-81,1023,22,0:34:30
778,486,-463,44,1,-18,-98,1013,34,0:34:30
781,495,-483,42,2,-18,-97,1015,38,0:34:30
787,498,-453,42,0,-23,-99,1019,41,0:34:30
805,493,-475,46,-10,-28,-102,1017,35,0:34:30
798,501,-480,44,-19,-35,-105,1009,33,0:34:30
774,508,-477,39,-18,-41,-105,1006,40,0:34:30
777,499,-483,34,-15,-44,-106,1007,52,0:34:30
781,498,-478,28,-16,-46,-106,1007,52,0:34:31
795,505,-460,23,-28,-46,-111,1003,56,0:34:31
789,499,-469,21,-46,-49,-117,1005,62,0:34:31
789,499,-469,19,-59,-49,-123,1013,67,0:34:31
786,493,-466,17,-71,-49,-121,1014,71,0:34:31
798,481,-474,16,-81,-48,-113,1007,73,0:34:31
778,502,-484,16,-84,-46,-101,1005,71,0:34:31
784,498,-471,18,-84,-44,-88,1006,71,0:34:31
775,492,-465,20,-75,-38,-78,1007,71,0:34:31
772,486,-477,21,-65,-30,-63,1009,68,0:34:31
772,507,-484,23,-56,-28,-51,1011,60,0:34:31
777,486,-490,21,-44,-25,-47,1013,48,0:34:31
780,490,-471,16,-30,-23,-40,1009,49,0:34:31
766,474,-468,15,-13,-22,-33,1006,53,0:34:31
765,495,-471,14,5,-22,-31,1007,49,0:34:31
762,489,-492,14,16,-21,-32,1004,42,0:34:31
780,492,-475,16,18,-23,-38,1005,35,0:34:31
780,492,-475,14,25,-25,-44,1007,33,0:34:31
771,493,-468,11,33,-26,-51,1011,35,0:34:31
772,507,-478,7,35,-28,-54,1011,35,0:34:31
775,499,-489,4,43,-27,-52,1014,40,0:34:31
775,493,-471,4,51,-23,-55,1015,41,0:34:31
787,486,-483,7,56,-21,-60,1010,37,0:34:31
786,486,-469,11,49,-18,-62,1003,36,0:34:31
760,484,-483,16,42,-17,-64,1003,34,0:34:31
772,492,-478,23,39,-16,-65,1008,36,0:34:31
768,492,-471,28,36,-14,-64,1010,36,0:34:31
774,490,-484,29,36,-14,-60,1005,33,0:34:31
781,492,-468,28,37,-16,-57,1006,28,0:34:31
792,489,-483,25,34,-20,-55,1013,28,0:34:31
766,511,-477,23,35,-23,-52,1013,32,0:34:31
783,489,-459,23,31,-22,-46,1004,33,0:34:31
763,496,-472,18,32,-17,-46,1001,29,0:34:31
771,486,-475,12,41,-11,-51,1006,33,0:34:31
771,487,-474,9,44,-9,-60,1011,53,0:34:31
784,487,-474,8,39,-14,-60,1011,53,0:34:31
784,487,-474,13,29,-21,-66,1016,58,0:34:31
771,490,-465,14,20,-26,-68,1017,57,0:34:31
777,489,-448,14,7,-28,-73,1017,59,0:34:31
789,492,-474,14,1,-25,-72,1015,68,0:34:31
783,493,-474,10,2,-21,-68,1009,70,0:34:31
760,495,-477,-1,-1,-20,-69,1002,70,0:34:31
762,489,-463,-2,-21,-21,-72,999,75,0:34:31
759,480,-471,-3,-38,-19,-74,1001,77,0:34:31
781,498,-490,-7,-50,-18,-75,1003,71,0:34:31
769,484,-475,-9,-55,-18,-70,1004,66,0:34:31
775,481,-477,-7,-52,-16,-62,1005,67,0:34:31
786,498,-468,-7,-50,-13,-58,1007,68,0:34:31
759,478,-457,-9,-51,-13,-54,1007,66,0:34:31
762,498,-468,-6,-53,-14,-52,1007,63,0:34:31
798,501,-469,-156,74,10,-55,1008,65,0:34:31
762,501,-475,-41,-13,-21,-70,1060,83,0:34:32
771,480,-484,13,-53,-38,-47,1011,45,0:34:32
763,505,-472,6,-36,-42,-47,1011,45,0:34:32
763,505,-472,-1,-22,-42,-47,1010,52,0:34:32
771,469,-468,3,-25,-40,-36,1002,43,0:34:32
781,496,-471,-3,6,-36,-35,1006,52,0:34:32
781,510,-478,3,26,-34,-42,1012,51,0:34:32
777,496,-477,-4,42,-36,-48,1011,46,0:34:32
774,498,-474,-3,40,-39,-51,1008,42,0:34:32
775,504,-480,-7,53,-38,-57,1009,46,0:34:32
778,480,-471,-12,67,-33,-64,1010,54,0:34:32
766,504,-474,-18,73,-30,-68,1009,45,0:34:32
775,495,-471,-21,71,-25,-68,1008,36,0:34:32
759,502,-468,-16,66,-24,-66,1006,44,0:34:32
762,510,-478,-12,57,-25,-68,1004,55,0:34:32
762,510,-478,-14,44,-25,-75,1007,59,0:34:32
772,499,-481,-22,30,-20,-80,1017,60,0:34:32
775,486,-472,-9,-2,-21,-73,1017,58,0:34:32
768,493,-469,-2,-19,-18,-65,1001,63,0:34:32
771,492,-478,-9,-25,-13,-60,1001,55,0:34:32
763,520,-462,-14,-40,-13,-60,1001,55,0:34:32
759,490,-451,-14,-53,-7,-52,1003,49,0:34:32
778,490,-453,-6,-51,0,-46,1013,52,0:34:32
766,486,-468,-2,-46,0,-42,1017,56,0:34:32
768,502,-475,-4,-44,0,-31,1013,53,0:34:32
775,517,-487,-11,-37,1,-24,1015,46,0:34:32
762,502,-477,-9,-23,3,-22,1017,43,0:34:32
783,501,-463,-5,-11,2,-20,1016,38,0:34:32
772,490,-460,-6,-7,-1,-18,1009,35,0:34:32
772,490,-460,-10,-7,-5,-21,1007,33,0:34:32
771,505,-466,-12,-4,-7,-26,1013,35,0:34:32
760,487,-477,-12,2,-11,-31,1012,37,0:34:32
763,490,-492,-11,0,-14,-38,1011,35,0:34:32
777,502,-475,-16,-5,-14,-43,1009,33,0:34:32
771,501,-460,-14,-3,-11,-42,1009,35,0:34:32
783,489,-486,-10,0,-9,-46,1010,35,0:34:32
763,499,-462,-9,1,-6,-51,1010,36,0:34:32
787,490,-472,-6,-2,-7,-51,1010,36,0:34:32
769,504,-466,-5,-12,-7,-53,1010,40,0:34:32
772,495,-480,-5,-13,-4,-49,1012,37,0:34:32
774,490,-471,-5,-9,-2,-47,1012,28,0:34:32
762,499,-465,-10,-7,0,-48,1007,29,0:34:32
793,490,-483,-11,-16,2,-48,1004,29,0:34:32
765,495,-477,-5,-19,3,-50,1008,27,0:34:32
775,502,-474,-3,-21,4,-51,1014,28,0:34:32
775,502,-474,-4,-27,1,-49,1011,29,0:34:32
781,519,-462,-2,-32,0,-48,1010,28,0:34:32
769,510,-463,0,-25,2,-50,1013,27,0:34:32
757,511,-459,-5,-16,5,-54,1011,24,0:34:32
774,505,-480,-9,-19,4,-51,1009,20,0:34:32
769,498,-481,-7,-25,4,-51,1008,20,0:34:32
768,495,-472,-1,-28,4,-55,1009,23,0:34:33
775,489,-463,0,-29,4,-57,1014,26,0:34:33
766,489,-475,0,-27,2,-55,1014,27,0:34:33
762,504,-478,0,-25,2,-54,1013,30,0:34:33
769,481,-463,-2,-27,2,-54,1013,30,0:34:33
778,483,-469,-4,-29,1,-55,1014,31,0:34:33
780,489,-481,-2,-29,-2,-58,1016,30,0:34:33
772,502,-480,-2,-25,-4,-60,1016,28,0:34:33
774,511,-478,0,-25,-5,-59,1013,26,0:34:33
765,493,-480,0,-18,-4,-59,1009,30,0:34:33
780,504,-486,0,-14,-2,-57,1009,31,0:34:33
780,504,-486,3,-14,-2,-58,1006,26,0:34:33
771,513,-460,2,-8,-4,-63,1009,26,0:34:33
769,492,-475,0,-7,-7,-66,1013,25,0:34:33
759,498,-468,0,-5,-9,-62,1011,24,0:34:33
795,520,-489,2,0,-9,-58,1012,29,0:34:33
754,492,-454,0,4,-9,-60,1011,29,0:34:33
765,483,-474,-1,4,-11,-65,1007,25,0:34:33
771,481,-484,0,1,-12,-66,1007,25,0:34:33
760,508,-459,2,1,-12,-65,1009,26,0:34:33
769,504,-486,6,2,-11,-66,1005,25,0:34:33
775,495,-474,7,-3,-14,-66,1005,25,0:34:33
744,480,-466,9,1,-15,-63,1009,28,0:34:33
771,510,-447,12,4,-16,-62,1010,32,0:34:33
768,495,-469,10,2,-15,-61,1010,32,0:34:33
757,495,-460,9,4,-14,-62,1010,36,0:34:33
762,505,-445,9,2,-14,-63,1010,34,0:34:33
762,505,-445,8,0,-16,-65,1013,34,0:34:33
775,511,-481,7,-2,-16,-66,1013,35,0:34:33
775,511,-481,9,1,-19,-63,1013,38,0:34:33
780,493,-490,8,0,-22,-59,1014,41,0:34:33
763,493,-475,9,-2,-21,-56,1013,39,0:34:33
759,490,-468,9,3,-20,-58,1011,42,0:34:33
784,493,-481,6,7,-18,-61,1007,43,0:34:33
772,487,-486,5,3,-18,-62,1008,41,0:34:33
760,487,-451,5,4,-19,-61,1012,41,0:34:33
775,507,-480,7,6,-19,-56,1010,45,0:34:33
775,487,-478,9,5,-18,-55,1010,45,0:34:33
771,489,-489,11,7,-16,-57,1007,45,0:34:33
783,486,-459,7,8,-16,-57,1007,45,0:34:33
777,492,-472,7,4,-18,-55,1009,42,0:34:33
751,501,-463,10,7,-18,-56,1011,42,0:34:33
751,501,-463,9,8,-18,-61,1010,47,0:34:33
784,508,-468,5,4,-18,-60,1010,48,0:34:33
765,487,-472,6,2,-18,-58,1009,46,0:34:33
768,492,-468,4,5,-15,-60,1010,47,0:34:33
778,498,-459,4,5,-14,-57,1011,47,0:34:33
777,519,-478,9,4,-14,-54,1010,42,0:34:33
801,496,-472,11,4,-13,-57,1011,41,0:34:33
760,498,-463,8,0,-11,-57,1010,44,0:34:33
768,499,-475,9,-2,-11,-55,1010,43,0:34:34
780,498,-468,9,4,-11,-56,1010,41,0:34:34
771,481,-460,7,2,-13,-59,1009,37,0:34:34
766,483,-466,4,4,-14,-57,1009,32,0:34:34
778,495,-468,7,2,-17,-53,1011,30,0:34:34
790,514,-477,7,5,-18,-57,1007,32,0:34:34
778,502,-481,7,5,-19,-57,1009,32,0:34:34
769,495,-477,6,3,-21,-58,1009,34,0:34:34
763,496,-460,7,-2,-20,-57,1010,34,0:34:34
763,496,-460,8,-2,-21,-56,1008,31,0:34:34
780,493,-468,9,2,-21,-52,1008,31,0:34:34
775,510,-468,13,6,-23,-50,1011,33,0:34:34
766,495,-471,14,7,-25,-50,1013,33,0:34:34
775,477,-469,14,9,-28,-50,1017,33,0:34:34
771,483,-478,11,4,-30,-50,1014,33,0:34:34
762,498,-477,9,4,-28,-46,1010,36,0:34:34
756,486,-471,8,9,-26,-45,1007,38,0:34:34
777,502,-489,9,9,-24,-49,1006,38,0:34:34
783,483,-468,10,7,-24,-52,1010,38,0:34:34
780,504,-481,12,1,-23,-52,1011,41,0:34:34
771,499,-475,13,0,-23,-53,1010,40,0:34:34
777,495,-474,13,-5,-22,-52,1012,38,0:34:34
780,495,-472,15,-9,-21,-49,1013,42,0:34:34
766,490,-475,12,-8,-19,-48,1010,44,0:34:34
778,502,-469,11,-4,-17,-48,1010,44,0:34:34
756,516,-487,12,-3,-16,-44,1010,43,0:34:34
768,484,-483,14,-2,-16,-44,1010,45,0:34:34
768,484,-483,11,-3,-17,-44,1010,47,0:34:34
768,499,-457,10,-5,-16,-41,1010,47,0:34:34
774,501,-480,10,-4,-16,-38,1014,47,0:34:34
760,495,-475,10,-2,-15,-35,1014,48,0:34:34
781,496,-483,11,2,-14,-40,1011,48,0:34:34
765,507,-480,9,6,-15,-44,1009,48,0:34:34
795,505,-460,8,7,-15,-41,1007,45,0:34:34
762,517,-457,7,4,-15,-40,1006,45,0:34:34
762,496,-478,7,9,-15,-41,1010,49,0:34:34
756,499,-483,6,9,-15,-41,1012,49,0:34:34
763,493,-471,4,7,-15,-42,1011,48,0:34:34
765,493,-483,4,10,-13,-44,1011,49,0:34:34
765,493,-483,3,15,-11,-45,1011,49,0:34:34
771,501,-480,4,8,-11,-50,1010,48,0:34:34
786,490,-468,6,4,-9,-48,1010,52,0:34:34
763,490,-490,5,5,-9,-48,1010,52,0:34:34
750,480,-487,5,0,-9,-45,1007,51,0:34:34
763,513,-472,5,0,-7,-49,1009,52,0:34:34
795,486,-489,2,1,-7,-53,1008,53,0:34:34
759,495,-471,0,-4,-7,-49,1005,51,0:34:34
759,486,-484,1,-6,-7,-44,1009,54,0:34:34
774,496,-480,0,-3,-4,-45,1010,56,0:34:34
765,483,-465,0,-3,-4,-46,1009,52,0:34:34
766,508,-478,1,-5,-4,-46,1009,52,0:34:34
763,481,-466,0,-2,-4,-44,1009,55,0:34:35
760,487,-475,-1,-4,-3,-43,1008,54,0:34:35
760,487,-475,-3,-4,-3,-44,1007,53,0:34:35
756,501,-474,-4,-2,-2,-45,1006,54,0:34:35
763,486,-474,-7,-4,-1,-46,1007,52,0:34:35
760,495,-477,-10,-6,-2,-43,1006,49,0:34:35
760,495,-477,-11,-7,-2,-40,1007,43,0:34:35
774,489,-460,-16,-10,-3,-42,1006,40,0:34:35
769,492,-466,-19,-7,-5,-41,1004,43,0:34:35
766,496,-465,-22,-12,-5,-41,1004,43,0:34:35
765,496,-466,-13,-21,-4,-34,1000,42,0:34:35
762,504,-454,-4,-17,0,-27,994,40,0:34:35
763,486,-471,-2,-22,4,-25,991,39,0:34:35
759,493,-486,-4,-26,9,-26,992,42,0:34:35
786,501,-481,-5,-37,14,-32,998,50,0:34:35
778,477,-475,2,-38,23,-41,1008,63,0:34:35
768,504,-492,3,-29,31,-40,1013,67,0:34:35
768,504,-492,-2,-31,39,-35,1015,65,0:34:35
778,478,-462,-20,-25,48,-34,1012,75,0:34:35
768,490,-480,-32,-14,51,-33,1003,81,0:34:35
756,501,-469,-42,-4,56,-26,998,78,0:34:35
783,498,-475,-45,9,60,-24,997,76,0:34:35
783,478,-504,-49,22,69,-23,993,72,0:34:35
784,489,-487,-47,39,84,-20,987,72,0:34:35
771,496,-486,-50,82,103,-18,983,80,0:34:35
768,495,-481,-58,121,123,-33,992,70,0:34:35
811,495,-474,-51,165,129,-33,992,70,0:34:35
810,505,-478,-45,154,125,-55,996,49,0:34:35
807,501,-487,-31,148,107,-78,983,36,0:34:35
789,508,-451,14,203,47,-122,968,56,0:34:35
804,514,-451,59,254,23,-144,989,83,0:34:35
781,492,-475,62,279,44,-158,1052,117,0:34:35
781,492,-475,25,233,71,-225,1073,123,0:34:35
804,495,-487,10,163,76,-267,1037,114,0:34:35
799,495,-456,-18,161,77,-256,993,126,0:34:35
804,487,-445,-72,189,63,-225,982,122,0:34:35
808,475,-468,-119,201,51,-194,999,97,0:34:35
819,487,-460,-164,206,36,-201,999,73,0:34:35
802,495,-465,-189,177,28,-226,978,52,0:34:35
814,474,-426,-202,163,40,-235,956,48,0:34:35
820,487,-456,-208,208,50,-227,958,71,0:34:35
819,487,-429,-180,235,46,-192,970,82,0:34:35
817,480,-427,-143,259,35,-169,973,86,0:34:35
826,483,-414,-140,205,9,-169,973,86,0:34:35
816,496,-424,-149,161,-20,-192,957,85,0:34:35
825,483,-415,-167,125,-47,-207,949,76,0:34:35
828,486,-400,-182,91,-77,-201,949,64,0:34:35
810,502,-412,-193,70,-104,-195,963,72,0:34:35
810,502,-412,-198,95,-118,-201,970,77,0:34:35
819,493,-417,-207,144,-118,-220,978,69,0:34:35
811,501,-418,-217,158,-119,-238,977,49,0:34:36
817,505,-393,-226,169,-126,-239,982,33,0:34:36
823,499,-381,-205,188,-147,-243,1024,46,0:34:36
810,501,-388,-166,203,-168,-249,1053,78,0:34:36
820,490,-369,-154,180,-172,-267,1054,89,0:34:36
825,502,-379,-159,128,-174,-295,1050,73,0:34:36
805,495,-384,-108,91,-164,-316,1055,92,0:34:36
805,493,-379,-20,75,-174,-343,1105,132,0:34:36
807,502,-357,93,84,-189,-360,1145,173,0:34:36
810,501,-372,231,53,-162,-346,1151,174,0:34:36
804,517,-372,381,-91,-107,-289,1196,17,0:34:36
802,504,-376,542,-343,-39,-289,1196,17,0:34:36
796,510,-396,730,-499,2,-260,1188,-84,0:34:36
792,493,-396,936,-585,28,-181,1133,-137,0:34:36
792,493,-396,1020,-669,76,-21,1059,-143,0:34:36
793,504,-412,1121,-551,126,116,1037,-89,0:34:36
789,481,-432,1208,-183,178,177,1081,1,0:34:36
796,484,-465,1227,26,221,143,1155,91,0:34:36
790,450,-472,1156,8,207,49,1206,108,0:34:36
775,447,-477,1017,-350,198,-34,1156,62,0:34:36
781,462,-481,913,-710,179,-116,1047,36,0:34:36
771,441,-498,764,-816,238,-181,988,96,0:34:36
783,447,-523,696,-917,294,-219,1009,187,0:34:36
769,424,-567,570,-954,312,-177,1020,226,0:34:36
744,418,-543,499,-954,266,-79,970,264,0:34:36
754,400,-570,414,-1082,226,1,904,263,0:34:36
732,397,-576,370,-1114,128,58,865,196,0:34:36
715,414,-577,336,-1102,-15,133,765,191,0:34:36
715,414,-577,217,-774,-117,163,709,283,0:34:36
717,400,-594,-7,-287,-92,163,709,283,0:34:36
717,400,-594,-201,-78,-11,131,707,356,0:34:36
684,397,-585,-261,-102,50,46,709,372,0:34:36
678,406,-585,-279,-165,16,-37,724,399,0:34:36
703,406,-600,-314,-186,-17,-88,709,428,0:34:36
703,406,-600,-364,-214,-28,-84,681,418,0:34:36
703,411,-589,-396,-191,8,-71,682,406,0:34:36
694,430,-586,-448,-131,70,-7,760,431,0:34:36
672,447,-591,-506,-72,149,45,820,508,0:34:36
696,417,-594,-392,-142,161,38,850,611,0:34:36
682,427,-559,-60,-139,74,-35,1006,671,0:34:36
691,441,-589,45,79,78,-133,1241,622,0:34:36
700,426,-580,-141,-142,124,-109,1360,592,0:34:36
688,436,-580,-86,-679,44,-59,1156,752,0:34:36
676,432,-576,123,-794,12,-21,714,824,0:34:36
678,436,-577,46,-15,158,128,649,533,0:34:36
670,427,-564,-290,781,71,220,1806,-66,0:34:36
676,445,-582,46,463,35,220,1806,-66,0:34:36
691,426,-568,153,415,14,-15,1564,78,0:34:36
690,447,-579,277,358,-77,-27,843,39,0:34:36
690,447,-579,8,480,-32,54,555,11,0:34:36
703,427,-598,-477,1174,35,-62,698,-5,0:34:36
700,453,-568,-535,903,177,-215,1050,-217,0:34:37
700,453,-568,-399,635,275,-221,1247,-86,0:34:37
715,453,-565,-56,819,98,-64,1071,201,0:34:37
729,451,-550,-63,1095,0,86,862,284,0:34:37
727,453,-562,-299,1195,50,26,851,178,0:34:37
760,466,-538,-476,1030,116,-212,933,-9,0:34:37
772,460,-529,-596,891,150,-347,915,-37,0:34:37
784,474,-519,-618,651,127,-349,866,27,0:34:37
801,477,-514,-625,466,66,-325,875,84,0:34:37
789,489,-508,-569,347,-40,-293,883,104,0:34:37
793,474,-493,-462,308,-138,-273,892,75,0:34:37
781,483,-483,-475,314,-194,-220,892,72,0:34:37
781,483,-483,-532,332,-230,-196,913,79,0:34:37
784,496,-486,-597,311,-249,-209,873,89,0:34:37
795,514,-460,-685,264,-293,-223,873,89,0:34:37
804,532,-468,-723,255,-348,-224,886,104,0:34:37
780,526,-453,-674,279,-387,-213,916,121,0:34:37
796,525,-448,-567,335,-386,-228,946,131,0:34:37
771,529,-439,-438,352,-344,-262,972,101,0:34:37
765,549,-409,-310,345,-269,-275,995,63,0:34:37
766,556,-426,-195,310,-212,-242,1027,71,0:34:37
768,565,-418,-128,202,-167,-251,1043,98,0:34:37
765,558,-408,-81,159,-142,-274,1040,148,0:34:37
768,574,-399,116,121,-121,-283,1109,202,0:34:37
759,564,-391,263,-57,-1,-372,1206,96,0:34:37
741,583,-405,429,-379,90,-519,1229,-55,0:34:37
739,564,-415,823,-618,107,-566,1285,-160,0:34:37
747,561,-456,1172,-675,153,-248,1410,-259,0:34:37
739,556,-457,1137,-759,227,143,1401,-231,0:34:37
739,556,-457,1183,-583,249,222,1329,-98,0:34:37
747,529,-495,1211,-123,314,97,1295,8,0:34:37
744,559,-519,1127,157,278,97,1295,8,0:34:37
732,510,-513,1227,19,85,38,1181,-8,0:34:37
729,495,-541,972,-172,-58,20,1126,8,0:34:37
754,505,-547,1066,-702,1,-132,1138,-3,0:34:37
726,501,-588,999,-958,177,-274,1095,16,0:34:37
709,475,-577,851,-1148,147,-217,975,121,0:34:37
702,456,-606,896,-1206,-5,-50,880,140,0:34:37
687,453,-592,723,-992,0,44,841,130,0:34:37
678,451,-601,511,-870,39,86,816,163,0:34:37
670,451,-639,353,-844,4,107,790,184,0:34:37
654,426,-634,214,-734,-84,115,713,178,0:34:37
642,432,-633,-43,-413,-91,125,619,164,0:34:37
630,450,-630,-384,-18,-65,174,536,203,0:34:37
610,445,-613,-455,91,-63,177,496,267,0:34:37
628,456,-619,-473,39,-49,72,516,343,0:34:37
628,456,-619,-522,-68,-27,-61,556,438,0:34:37
616,466,-592,-539,-174,8,-163,640,566,0:34:37
616,466,-592,-525,-180,114,-158,787,665,0:34:37
628,478,-588,-368,-313,242,-158,787,665,0:34:37
636,465,-571,-13,-452,329,-156,970,748,0:34:37
636,465,-571,147,-208,311,-176,1175,730,0:34:38
639,469,-573,-78,-37,291,-59,1283,611,0:34:38
645,466,-556,-51,-613,149,49,1229,614,0:34:38
636,472,-561,340,-1057,43,0,1092,758,0:34:38
631,477,-577,100,-196,42,22,1172,681,0:34:38
621,471,-543,56,186,50,104,1465,264,0:34:38
642,460,-568,85,161,-35,191,1352,32,0:34:38
634,457,-559,291,82,-99,232,887,-114,0:34:38
649,463,-559,156,272,130,192,803,-88,0:34:38
639,463,-553,-483,1200,119,97,936,220,0:34:38
648,448,-540,-538,1250,17,-110,1028,52,0:34:38
663,460,-547,-296,568,58,-294,1262,-131,0:34:38
663,460,-547,-228,514,79,-155,1247,117,0:34:38
670,462,-529,-262,746,10,106,782,205,0:34:38
670,463,-510,-216,830,-36,-50,884,132,0:34:38
670,463,-510,-241,904,34,-50,884,132,0:34:38
708,453,-517,-514,834,177,-234,943,72,0:34:38
696,463,-513,-757,744,239,-338,842,3,0:34:38
723,454,-499,-793,654,152,-371,769,23,0:34:38
745,474,-483,-676,452,66,-333,829,97,0:34:38
726,489,-436,-581,375,-30,-276,874,140,0:34:38
754,477,-436,-504,399,-113,-214,868,151,0:34:38
747,487,-444,-547,459,-171,-184,862,139,0:34:38
750,487,-423,-597,513,-226,-180,854,130,0:34:38
750,487,-418,-692,448,-296,-173,832,130,0:34:38
736,478,-396,-771,413,-359,-184,815,100,0:34:38
748,504,-394,-735,406,-403,-209,843,96,0:34:38
762,502,-369,-609,396,-400,-200,890,117,0:34:38
735,511,-366,-487,419,-352,-215,948,95,0:34:38
735,511,-366,-373,455,-284,-239,1009,89,0:34:38
735,514,-354,-258,418,-231,-256,1077,146,0:34:38
738,517,-351,-207,290,-194,-286,1051,162,0:34:38
724,514,-342,-164,239,-177,-296,1077,241,0:34:38
739,517,-336,-21,308,-175,-296,1077,241,0:34:38
736,514,-325,163,237,-203,-338,1126,300,0:34:38
739,505,-363,371,-32,-97,-455,1119,119,0:34:38
736,504,-325,623,-610,39,-560,1164,-121,0:34:38
739,514,-327,1001,-949,195,-568,1242,-249,0:34:38
738,507,-342,1267,-947,338,-248,1353,-309,0:34:38
751,501,-364,1219,-981,389,217,1395,-186,0:34:38
747,499,-391,1245,-616,354,317,1425,-38,0:34:38
744,466,-432,1182,-84,320,228,1539,-2,0:34:38
769,475,-438,1131,123,233,89,1479,-3,0:34:38
759,471,-424,1187,66,39,-25,1272,17,0:34:38
754,457,-465,1123,-321,56,-142,1093,93,0:34:38
750,426,-469,1023,-655,238,-295,1061,86,0:34:38
750,426,-469,805,-972,298,-305,1069,83,0:34:38
748,427,-513,818,-1433,79,-137,913,103,0:34:38
763,429,-522,641,-1509,12,42,689,177,0:34:38
750,429,-534,498,-1283,50,47,717,244,0:34:38
738,412,-555,417,-1054,63,47,717,244,0:34:38
724,409,-574,300,-999,45,87,719,229,0:34:39
705,408,-570,50,-781,29,164,655,174,0:34:39
687,412,-579,-281,-380,37,214,555,148,0:34:39
703,430,-586,-486,-84,22,189,491,198,0:34:39
699,423,-558,-497,-49,13,118,515,266,0:34:39
718,424,-580,-499,-108,10,31,592,355,0:34:39
706,433,-577,-565,-128,-4,-48,631,435,0:34:39
705,439,-559,-609,-142,36,-104,678,480,0:34:39
705,439,-559,-566,-214,135,-134,847,581,0:34:39
682,448,-552,-179,-320,203,-131,1047,718,0:34:39
702,439,-559,242,-130,245,-200,1274,773,0:34:39
696,451,-564,-88,296,251,-176,1407,739,0:34:39
735,439,-567,-268,-319,100,60,1345,653,0:34:39
706,441,-561,-103,-1007,-34,88,987,608,0:34:39
702,460,-564,-97,-959,70,-31,403,597,0:34:39
703,426,-543,-223,-154,251,352,1137,60,0:34:39
687,441,-562,-737,1100,-18,332,1913,-192,0:34:39
700,462,-546,-95,280,-165,332,1913,-192,0:34:39
699,457,-526,64,121,-158,97,1793,58,0:34:39
688,457,-552,368,351,-308,94,955,116,0:34:39
691,463,-558,418,150,-120,172,471,-230,0:34:39
711,457,-531,-304,1138,158,28,574,-41,0:34:39
715,450,-564,-850,1426,208,-161,690,-32,0:34:39
739,460,-541,-658,507,266,-326,1169,-184,0:34:39
730,498,-513,-113,404,147,-306,1367,124,0:34:39
744,474,-519,76,677,15,-59,1055,329,0:34:39
769,465,-511,-196,1008,18,97,812,231,0:34:39
769,465,-511,-490,1043,79,-7,729,17,0:34:39
753,469,-496,-630,1009,182,-199,808,-90,0:34:39
777,469,-511,-709,941,203,-277,912,3,0:34:39
774,480,-469,-697,595,128,-251,867,88,0:34:39
774,480,-469,-637,442,2,-282,865,49,0:34:39
805,498,-442,-516,385,-128,-221,923,75,0:34:39
805,492,-423,-501,415,-195,-187,887,112,0:34:39
796,498,-418,-534,441,-240,-187,887,112,0:34:39
808,508,-412,-574,366,-286,-197,841,119,0:34:39
792,504,-394,-614,317,-338,-205,860,129,0:34:39
792,523,-385,-646,274,-377,-194,843,144,0:34:39
796,517,-385,-620,317,-389,-166,844,151,0:34:39
795,537,-364,-561,396,-380,-175,890,154,0:34:39
780,528,-352,-482,452,-331,-229,939,131,0:34:39
798,546,-345,-338,482,-268,-241,1005,116,0:34:39
801,537,-339,-200,324,-221,-250,1099,122,0:34:39
787,553,-340,-68,203,-198,-257,1119,153,0:34:39
787,553,-340,163,286,-203,-220,1134,208,0:34:39
781,532,-334,382,285,-153,-243,1198,182,0:34:39
778,555,-331,520,-154,-9,-336,1199,-17,0:34:39
765,546,-360,788,-661,194,-528,1216,-186,0:34:39
783,537,-352,1207,-802,320,-539,1308,-281,0:34:39
786,529,-369,1219,-961,392,-98,1411,-233,0:34:39
762,519,-403,1160,-850,307,155,1482,-7,0:34:40
777,522,-418,1209,-312,250,99,1478,28,0:34:40
792,492,-435,1123,27,180,99,1478,28,0:34:40
793,495,-468,1146,42,47,15,1276,10,0:34:40
802,486,-502,1076,-67,-33,-33,1105,57,0:34:40
796,478,-508,980,-417,126,-126,1092,98,0:34:40
784,477,-511,803,-728,280,-277,1135,72,0:34:40
784,477,-511,699,-1116,147,-243,1068,110,0:34:40
774,432,-514,685,-1374,-26,-80,885,111,0:34:40
769,435,-535,550,-1251,28,-8,784,107,0:34:40
756,451,-555,410,-1073,76,67,760,204,0:34:40
745,417,-567,317,-1029,25,122,719,229,0:34:40
729,423,-579,119,-915,-21,127,662,169,0:34:40
729,414,-595,-164,-613,0,145,573,125,0:34:40
723,423,-595,-396,-228,65,152,517,140,0:34:40
706,415,-589,-412,-48,77,130,513,230,0:34:40
718,411,-592,-399,-32,66,90,551,307,0:34:40
717,429,-576,-451,-64,53,42,606,345,0:34:40
708,427,-589,-497,-51,53,-95,729,482,0:34:40
694,432,-579,-490,-119,105,-95,729,482,0:34:40
712,441,-571,-359,-339,149,-95,932,639,0:34:40
727,436,-577,-24,-399,172,-161,1095,735,0:34:40
712,423,-571,37,-49,185,-266,1151,738,0:34:40
715,423,-567,-219,-124,232,-208,1123,772,0:34:40
715,423,-567,65,-974,149,-128,1038,853,0:34:40
715,424,-580,403,-919,271,-56,880,762,0:34:40
696,417,-573,-421,871,287,157,1141,340,0:34:40
720,415,-582,-162,366,-39,212,1761,-272,0:34:40
708,439,-582,366,-237,-282,79,1627,-75,0:34:40
727,423,-576,620,-7,-304,171,852,148,0:34:40
708,426,-573,350,359,46,296,560,39,0:34:40
714,417,-585,-704,1741,213,201,689,205,0:34:40
738,399,-570,-693,1463,180,-81,940,-160,0:34:40
751,432,-550,-364,641,263,-344,1391,-192,0:34:40
762,414,-546,-130,822,154,-268,1334,268,0:34:40
763,405,-535,-66,900,-51,-37,923,306,0:34:40
772,414,-538,-151,811,-76,-143,769,44,0:34:40
810,421,-526,-385,853,13,-143,769,44,0:34:40
810,421,-526,-709,877,148,-238,801,-35,0:34:40
780,424,-502,-858,811,197,-266,838,-1,0:34:40
801,423,-492,-900,644,144,-266,844,62,0:34:40
820,418,-457,-737,471,13,-245,883,90,0:34:40
813,435,-453,-582,455,-149,-212,894,101,0:34:40
838,433,-438,-590,465,-238,-161,876,79,0:34:40
829,436,-439,-656,410,-286,-141,853,71,0:34:40
823,453,-421,-717,350,-328,-180,837,101,0:34:40
822,444,-411,-742,336,-373,-215,852,110,0:34:40
799,456,-390,-730,340,-417,-215,861,133,0:34:40
799,457,-373,-643,357,-443,-203,892,154,0:34:40
798,466,-357,-531,390,-413,-215,911,136,0:34:40
801,471,-342,-408,424,-329,-272,928,92,0:34:40
799,487,-361,-271,399,-233,-308,969,75,0:34:41
799,487,-361,-187,194,-157,-360,1022,105,0:34:41
801,484,-334,-117,43,-109,-244,1109,206,0:34:41
801,484,-334,140,182,-128,-208,1253,132,0:34:41
798,475,-334,296,155,-2,-208,1253,132,0:34:41
792,463,-346,474,-242,95,-267,1273,3,0:34:41
792,463,-346,793,-643,233,-460,1298,-140,0:34:41
807,487,-349,1138,-800,265,-413,1384,-317,0:34:41
799,466,-364,1162,-1029,240,8,1395,-303,0:34:41
799,441,-397,1178,-884,208,189,1368,-138,0:34:41
795,447,-444,1204,-293,252,175,1432,-34,0:34:41
801,427,-427,1123,142,182,126,1429,9,0:34:41
789,424,-451,1188,370,34,104,1240,25,0:34:41
787,409,-456,1088,28,-70,92,1137,39,0:34:41
792,393,-459,1048,-540,67,-108,1140,4,0:34:41
813,406,-487,1003,-905,198,-320,1117,17,0:34:41
790,390,-511,913,-1381,37,-298,1029,127,0:34:41
778,382,-528,879,-1424,-149,-150,822,132,0:34:41
766,357,-552,685,-1033,-102,13,758,152,0:34:41
747,352,-553,546,-804,-33,120,808,224,0:34:41
747,352,-553,380,-725,7,183,711,212,0:34:41
745,357,-570,143,-626,7,183,711,212,0:34:41
745,357,-570,-177,-438,-4,181,601,178,0:34:41
727,345,-562,-481,-157,-9,157,515,169,0:34:41
726,342,-582,-565,25,1,109,484,210,0:34:41
730,352,-573,-559,55,40,34,523,294,0:34:41
742,349,-552,-595,-31,48,-35,554,402,0:34:41
751,355,-561,-651,-128,28,-90,570,490,0:34:41
721,372,-553,-602,-279,81,-123,666,559,0:34:41
742,363,-544,-317,-480,199,-126,871,650,0:34:41
744,393,-540,133,-411,275,-179,1111,708,0:34:41
726,370,-541,46,136,359,-187,1274,692,0:34:41
742,384,-559,-213,-28,237,-73,1224,681,0:34:41
738,355,-538,77,-834,-23,-58,988,737,0:34:41
735,372,-558,534,-1195,-52,-44,632,693,0:34:41
735,372,-558,45,68,54,191,756,355,0:34:41
736,358,-546,-74,186,-80,389,1545,-123,0:34:41
720,372,-553,80,118,101,116,1127,135,0:34:41
711,349,-555,368,315,-175,180,431,-231,0:34:41
706,366,-561,487,184,-147,180,431,-231,0:34:41
732,339,-571,-337,918,11,119,607,32,0:34:41
724,355,-574,-715,1425,4,-5,843,3,0:34:41
727,370,-561,-631,746,212,-237,1366,-155,0:34:41
747,375,-538,-438,683,317,-281,1457,103,0:34:41
748,358,-549,-121,1041,107,-103,1077,327,0:34:41
772,382,-540,-22,1127,-62,10,833,258,0:34:41
784,372,-502,-179,1022,-56,-26,767,105,0:34:41
780,360,-520,-389,965,77,-166,821,4,0:34:41
804,373,-507,-672,1121,209,-283,844,17,0:34:41
814,372,-481,-732,942,189,-266,810,61,0:34:41
820,379,-487,-662,729,105,-204,831,56,0:34:41
820,379,-487,-559,636,-34,-193,886,47,0:34:42
817,378,-463,-480,576,-143,-182,856,88,0:34:42
837,372,-450,-476,581,-200,-177,853,132,0:34:42
832,400,-465,-525,555,-242,-234,839,107,0:34:42
813,393,-450,-586,433,-280,-236,812,136,0:34:42
828,376,-427,-646,375,-324,-251,831,160,0:34:42
835,415,-409,-674,332,-361,-251,831,160,0:34:42
831,403,-409,-611,337,-386,-245,874,163,0:34:42
802,414,-385,-506,369,-389,-231,915,155,0:34:42
811,420,-378,-410,427,-351,-241,949,112,0:34:42
810,439,-370,-285,481,-289,-236,997,96,0:34:42
826,424,-375,-210,362,-217,-262,1068,106,0:34:42
823,426,-379,-161,223,-155,-300,1069,142,0:34:42
823,420,-357,-4,257,-142,-288,1066,205,0:34:42
820,438,-363,219,265,-185,-289,1154,251,0:34:42
808,424,-369,382,-7,-118,-366,1172,106,0:34:42
801,433,-384,609,-498,56,-452,1195,-82,0:34:42
792,414,-382,1032,-726,214,-469,1281,-199,0:34:42
792,414,-382,1255,-821,355,-162,1368,-296,0:34:42
799,394,-409,1131,-1015,354,219,1338,-163,0:34:42
786,387,-433,1201,-597,340,246,1353,-6,0:34:42
786,388,-450,1160,-45,295,81,1458,11,0:34:42
778,367,-448,1138,235,191,56,1217,19,0:34:42
795,379,-457,1174,240,-23,56,1217,19,0:34:42
793,363,-447,1208,-282,-58,-21,1082,47,0:34:42
790,334,-489,1064,-494,191,-218,1134,53,0:34:42
783,336,-486,916,-762,186,-289,1167,102,0:34:42
783,336,-492,927,-1255,-56,-152,987,142,0:34:42
768,328,-493,744,-1335,-128,-37,839,117,0:34:42
759,327,-504,515,-1001,-82,61,711,172,0:34:42
759,327,-504,385,-784,-79,128,679,259,0:34:42
744,324,-544,267,-733,-128,98,720,245,0:34:42
730,301,-535,-20,-558,-140,129,600,209,0:34:42
732,324,-559,-371,-239,-110,163,491,192,0:34:42
732,319,-556,-595,42,-48,184,441,215,0:34:42
717,322,-555,-630,92,-7,135,477,273,0:34:42
711,318,-535,-615,35,7,27,568,341,0:34:42
730,328,-528,-613,-50,5,-59,582,419,0:34:42
708,342,-517,-628,-99,39,-88,638,446,0:34:42
741,345,-535,-539,-141,163,-94,1044,648,0:34:42
732,336,-523,-224,-267,254,-94,1044,648,0:34:42
744,360,-522,151,-210,257,-111,1221,735,0:34:42
715,343,-529,0,115,261,-116,1259,736,0:34:42
742,349,-537,-216,-95,156,-45,1156,686,0:34:42
729,360,-513,-15,-749,-15,-30,898,686,0:34:42
697,358,-526,302,-891,-11,-2,613,631,0:34:42
697,358,-526,-44,235,109,211,822,336,0:34:42
693,358,-532,-208,487,-52,376,1568,-60,0:34:42
706,334,-526,284,0,25,181,1995,100,0:34:42
711,357,-525,303,366,-165,-34,1265,215,0:34:42
709,360,-528,492,186,-212,33,522,-131,0:34:43
709,360,-528,-189,536,-32,78,562,-35,0:34:43
726,334,-517,-686,1280,27,8,782,32,0:34:43
715,379,-472,-640,858,189,-147,1210,-109,0:34:43
756,364,-489,-401,721,231,-186,1412,49,0:34:43
754,363,-472,-83,1087,70,-49,1197,297,0:34:43
777,382,-484,-9,1096,-42,21,924,309,0:34:43
771,369,-466,-98,1025,-79,-204,737,-40,0:34:43
786,366,-456,-648,1114,70,-204,737,-40,0:34:43
786,366,-456,-779,984,123,-335,783,-82,0:34:43
780,373,-450,-724,791,107,-341,875,40,0:34:43
796,376,-441,-646,704,58,-241,891,170,0:34:43
817,381,-417,-555,604,-77,-171,846,132,0:34:43
798,370,-399,-552,650,-171,-173,846,105,0:34:43
804,384,-405,-567,612,-224,-189,864,110,0:34:43
807,385,-393,-595,528,-267,-203,818,134,0:34:43
813,403,-391,-662,319,-300,-236,795,87,0:34:43
796,390,-378,-704,229,-341,-231,803,84,0:34:43
807,412,-367,-658,273,-367,-200,842,143,0:34:43
787,400,-349,-564,333,-375,-184,901,133,0:34:43
783,396,-364,-467,376,-360,-206,954,109,0:34:43
792,399,-360,-351,407,-299,-241,1012,79,0:34:43
780,414,-333,-224,330,-215,-239,1084,84,0:34:43
766,436,-328,-166,173,-153,-233,1106,127,0:34:43
772,405,-319,-104,187,-133,-176,1104,255,0:34:43
784,391,-322,97,317,-145,-176,1104,255,0:34:43
793,414,-325,315,258,-128,-249,1160,192,0:34:43
793,414,-325,489,-172,-21,-333,1171,-20,0:34:43
762,429,-310,755,-616,152,-505,1264,-150,0:34:43
775,439,-318,1137,-728,252,-512,1366,-234,0:34:43
766,420,-345,1168,-911,289,-66,1380,-205,0:34:43
756,409,-364,1125,-929,238,177,1356,-42,0:34:43
759,408,-375,1148,-415,228,107,1405,27,0:34:43
778,403,-409,1103,-147,160,54,1382,59,0:34:43
768,393,-411,1107,3,32,-5,1230,69,0:34:43
784,390,-418,1047,-292,-52,-48,1097,79,0:34:43
768,370,-421,933,-603,129,-152,1052,32,0:34:43
763,376,-421,894,-775,270,-276,1131,4,0:34:43
757,358,-448,880,-1278,105,-218,1126,108,0:34:43
753,369,-468,823,-1494,-62,-68,929,107,0:34:43
760,376,-487,655,-1280,-36,6,792,118,0:34:43
738,349,-490,491,-951,34,70,793,214,0:34:43
739,358,-505,340,-820,64,119,767,217,0:34:43
741,343,-498,191,-818,17,119,767,217,0:34:43
718,339,-505,-28,-645,-21,87,653,130,0:34:43
718,339,-505,-318,-328,25,101,560,149,0:34:43
711,333,-505,-430,-187,51,124,568,230,0:34:43
727,331,-523,-388,-212,41,87,603,296,0:34:43
696,349,-507,-422,-253,30,5,581,383,0:34:43
711,354,-516,-533,-273,42,-66,558,421,0:34:43
717,360,-516,-621,-309,100,-103,610,468,0:34:43
706,373,-507,-530,-384,204,-92,759,577,0:34:44
703,360,-507,-181,-499,236,-97,940,682,0:34:44
703,372,-498,192,-311,260,-178,1102,723,0:34:44
696,355,-507,-84,28,338,-191,1197,681,0:34:44
696,376,-483,-186,-403,258,-69,1176,660,0:34:44
702,363,-505,270,-1087,87,-2,996,708,0:34:44
702,363,-505,283,-494,144,128,879,587,0:34:44
697,360,-525,-214,606,35,328,1398,205,0:34:44
675,352,-508,183,90,-34,161,1349,97,0:34:44
675,352,-508,269,73,-147,78,676,1,0:34:44
691,345,-505,546,11,-108,78,676,1,0:34:44
691,345,-505,-140,521,96,36,700,71,0:34:44
694,346,-516,-685,1246,55,-94,792,99,0:34:44
709,358,-514,-600,625,130,-289,1128,-190,0:34:44
747,361,-498,-460,239,240,-290,1372,-6,0:34:44
736,357,-486,-270,557,134,-81,1153,271,0:34:44
727,376,-496,-196,716,-19,65,899,292,0:34:44
751,376,-484,-217,728,-25,48,858,226,0:34:44
720,373,-484,-310,770,81,-103,940,94,0:34:44
736,384,-469,-590,840,177,-241,891,50,0:34:44
762,366,-460,-725,768,162,-270,767,49,0:34:44
757,367,-442,-751,506,124,-247,765,48,0:34:44
762,384,-453,-688,452,46,-216,832,94,0:34:44
762,384,-453,-633,436,-65,-172,841,102,0:34:44
768,382,-442,-623,426,-129,-150,828,52,0:34:44
790,354,-438,-642,455,-170,-154,857,48,0:34:44
762,390,-409,-664,392,-199,-174,832,63,0:34:44
778,400,-409,-711,312,-226,-191,836,73,0:34:44
790,396,-412,-737,274,-272,-191,836,73,0:34:44
778,391,-415,-696,269,-315,-193,881,124,0:34:44
787,393,-390,-599,314,-336,-179,936,164,0:34:44
774,420,-369,-462,357,-325,-183,986,153,0:34:44
774,409,-385,-341,398,-258,-206,1014,101,0:34:44
751,402,-357,-231,375,-170,-225,1034,77,0:34:44
777,414,-378,-186,203,-111,-309,1079,101,0:34:44
757,402,-355,-164,84,-69,-340,1080,151,0:34:44
769,412,-358,57,155,-62,-257,1133,199,0:34:44
777,423,-351,231,95,23,-280,1235,129,0:34:44
772,426,-351,354,-218,134,-360,1232,1,0:34:44
772,426,-351,676,-602,172,-506,1232,-49,0:34:44
769,405,-384,1064,-817,205,-429,1319,-182,0:34:44
766,400,-375,1154,-1022,276,-48,1342,-254,0:34:44
777,388,-408,1116,-981,266,124,1265,-132,0:34:44
768,399,-417,1164,-465,312,96,1360,8,0:34:44
748,381,-436,1108,-74,296,70,1287,39,0:34:44
772,369,-432,1173,219,190,70,1287,39,0:34:44
769,376,-462,1136,192,-25,43,1149,87,0:34:44
763,342,-484,987,-414,101,-126,1066,40,0:34:44
766,345,-505,1014,-835,252,-332,1133,-38,0:34:44
765,339,-486,1053,-1370,1,-300,1089,30,0:34:44
754,321,-513,962,-1296,-142,-40,890,86,0:34:45
742,325,-519,795,-984,-109,109,862,197,0:34:45
745,297,-547,694,-805,-89,111,897,269,0:34:45
730,295,-558,565,-742,-135,105,856,219,0:34:45
733,291,-559,310,-695,-206,127,723,215,0:34:45
733,291,-559,-39,-553,-212,130,568,193,0:34:45
705,283,-561,-375,-282,-151,80,485,210,0:34:45
697,295,-556,-532,-112,-94,42,488,265,0:34:45
711,318,-565,-551,-131,-35,31,544,324,0:34:45
691,324,-556,-595,-240,-4,11,571,430,0:34:45
696,309,-570,-648,-315,32,-28,574,534,0:34:45
666,319,-552,-620,-375,95,-103,834,623,0:34:45
676,318,-535,-390,-524,177,-103,834,623,0:34:45
682,318,-547,19,-618,212,-83,1009,658,0:34:45
672,322,-555,140,-119,285,-57,1173,643,0:34:45
663,336,-546,-335,189,406,64,1265,654,0:34:45
658,321,-555,-144,-453,247,112,1150,747,0:34:45
657,312,-555,588,-1006,-35,42,849,732,0:34:45
657,312,-555,225,-275,-35,199,843,456,0:34:45
657,318,-565,109,4,-135,281,1430,27,0:34:45
657,316,-580,132,112,8,140,1837,162,0:34:45
657,325,-567,319,136,-130,34,1301,170,0:34:45
642,319,-579,239,137,-47,-43,768,-69,0:34:45
657,303,-577,-309,438,30,-64,719,136,0:34:45
640,312,-574,-511,575,65,-102,875,54,0:34:45
652,313,-568,-646,376,263,-145,1206,-121,0:34:45
651,327,-561,-621,461,392,-103,1275,0,0:34:45
670,328,-568,-332,750,230,-6,1140,197,0:34:45
675,330,-538,-205,870,97,122,968,264,0:34:45
663,334,-537,-274,929,73,-98,912,32,0:34:45
690,348,-555,-458,1009,118,-98,912,32,0:34:45
690,348,-555,-697,1062,154,-250,871,-26,0:34:45
703,334,-547,-751,840,138,-290,794,22,0:34:45
696,339,-534,-672,672,104,-257,783,106,0:34:45
699,358,-507,-664,553,30,-225,790,131,0:34:45
699,358,-507,-623,499,-74,-217,820,66,0:34:45
727,351,-486,-584,533,-129,-218,879,50,0:34:45
732,360,-499,-585,511,-181,-180,886,100,0:34:45
712,373,-490,-593,455,-236,-157,856,88,0:34:45
697,373,-463,-639,367,-287,-184,855,77,0:34:45
715,375,-460,-632,326,-325,-206,869,98,0:34:45
714,384,-456,-561,338,-349,-187,905,136,0:34:45
696,370,-448,-472,338,-352,-185,942,150,0:34:45
700,388,-441,-421,343,-308,-228,953,113,0:34:45
700,388,-441,-352,352,-240,-246,978,76,0:34:45
706,400,-441,-274,244,-165,-261,1044,72,0:34:45
688,394,-426,-250,105,-109,-202,1094,126,0:34:45
688,394,-426,-189,116,-65,-150,1162,134,0:34:45
709,412,-426,-25,200,-38,-150,1162,134,0:34:45
709,411,-418,107,112,68,-239,1249,71,0:34:45
718,409,-406,311,-168,114,-431,1274,5,0:34:45
714,411,-417,670,-454,77,-524,1294,-88,0:34:46
720,412,-403,1013,-628,55,-267,1352,-214,0:34:46
723,417,-432,1123,-897,136,37,1281,-214,0:34:46
721,390,-441,1101,-961,186,65,1157,-121,0:34:46
711,385,-459,1162,-631,235,35,1170,-14,0:34:46
714,387,-466,1152,-196,234,40,1270,87,0:34:46
724,364,-474,1157,-59,115,59,1266,120,0:34:46
736,378,-513,1066,-203,-71,34,1171,62,0:34:46
724,366,-534,945,-457,-42,-75,1110,3,0:34:46
736,351,-516,952,-757,88,-200,1091,27,0:34:46
708,348,-543,985,-1054,127,-242,1085,94,0:34:46
715,333,-543,900,-1108,37,-133,972,154,0:34:46
715,333,-543,770,-1016,-70,20,861,221,0:34:46
697,339,-547,660,-817,25,108,905,226,0:34:46
700,325,-553,506,-654,102,108,905,226,0:34:46
690,319,-552,401,-632,29,104,874,226,0:34:46
682,303,-573,149,-519,-83,109,716,194,0:34:46
682,303,-573,-179,-268,-125,117,573,211,0:34:46
676,331,-582,-428,-63,-70,92,523,260,0:34:46
669,334,-607,-514,-53,-18,63,542,299,0:34:46
676,327,-580,-514,-168,-15,29,552,336,0:34:46
681,339,-559,-534,-261,-25,-8,532,418,0:34:46
681,336,-574,-596,-266,28,-43,543,507,0:34:46
670,345,-573,-602,-281,160,-49,653,574,0:34:46
675,336,-549,-387,-345,278,-47,864,638,0:34:46
669,342,-570,33,-189,310,-93,1110,666,0:34:46
672,345,-565,43,166,369,-122,1313,646,0:34:46
672,351,-573,-164,-156,273,-70,1299,676,0:34:46
673,355,-564,77,-914,13,-80,1021,746,0:34:46
648,343,-570,296,-1049,-65,-72,586,674,0:34:46
648,343,-570,168,-370,-33,150,508,297,0:34:46
642,358,-564,52,-48,-128,360,1993,195,0:34:46
652,355,-573,-219,235,139,360,1993,195,0:34:46
655,330,-564,109,188,-118,175,1400,172,0:34:46
655,346,-550,450,-26,-214,78,779,-185,0:34:46
645,345,-567,-117,285,-82,36,710,-34,0:34:46
649,355,-564,-488,624,-51,-32,790,-85,0:34:46
658,351,-558,-651,487,148,-110,1085,-210,0:34:46
648,327,-552,-609,403,321,-149,1271,-40,0:34:46
655,343,-553,-292,679,237,-79,1208,226,0:34:46
681,373,-531,-57,814,82,23,1039,337,0:34:46
694,357,-508,-109,793,19,51,883,233,0:34:46
691,360,-504,-308,816,47,-74,821,111,0:34:46
706,337,-531,-471,841,109,-214,832,12,0:34:46
718,357,-492,-522,801,162,-266,844,7,0:34:46
718,375,-501,-558,611,152,-222,843,123,0:34:46
741,388,-474,-537,474,91,-165,852,153,0:34:46
730,370,-474,-475,493,41,-177,882,105,0:34:46
739,384,-477,-448,525,-18,-198,865,138,0:34:46
744,378,-468,-436,571,-79,-198,865,138,0:34:46
754,388,-463,-443,522,-126,-175,845,165,0:34:46
754,388,-463,-529,439,-172,-189,828,142,0:34:47
751,394,-441,-634,319,-210,-218,840,106,0:34:47
745,408,-424,-665,296,-261,-192,885,153,0:34:47
745,408,-424,-642,313,-305,-152,936,205,0:34:47
745,414,-409,-583,303,-322,-164,965,173,0:34:47
747,411,-397,-516,286,-291,-214,966,114,0:34:47
745,417,-400,-418,260,-224,-228,972,51,0:34:47
766,423,-403,-297,156,-150,-248,1045,47,0:34:47
733,439,-399,-214,34,-100,-287,1089,106,0:34:47
756,463,-400,-177,30,-77,-236,1051,170,0:34:47
750,460,-375,-38,168,-72,-166,1086,219,0:34:47
751,429,-384,153,175,-79,-211,1098,180,0:34:47
751,466,-394,322,-107,-46,-315,1096,17,0:34:47
733,456,-391,534,-576,97,-455,1237,-94,0:34:47
757,453,-406,914,-779,165,-494,1310,-210,0:34:47
739,439,-427,1178,-903,258,208,1341,-176,0:34:47
732,435,-435,1121,-1020,269,208,1341,-176,0:34:47
741,442,-448,1102,-767,248,195,1255,-65,0:34:47
756,441,-463,1091,-298,235,95,1285,11,0:34:47
727,438,-472,1120,96,175,26,1299,64,0:34:47
727,438,-472,1143,104,19,9,1213,81,0:34:47
753,444,-501,986,-123,37,-24,1119,54,0:34:47
751,411,-501,870,-439,170,-126,1054,-8,0:34:47
745,403,-517,896,-690,202,-181,1077,17,0:34:47
757,394,-534,847,-982,115,-122,1049,105,0:34:47
742,400,-540,737,-968,56,-45,909,162,0:34:47
705,379,-576,688,-832,40,-4,846,221,0:34:47
717,396,-588,514,-646,78,70,854,269,0:34:47
715,375,-589,337,-632,79,110,851,273,0:34:47
723,367,-591,194,-613,8,112,801,217,0:34:47
709,372,-597,-37,-379,-42,123,701,169,0:34:47
709,372,-597,-277,-142,-53,113,631,203,0:34:47
706,384,-609,-349,-65,-49,7,648,303,0:34:47
693,357,-583,-361,-74,-44,-35,662,343,0:34:47
688,376,-583,-426,-81,-45,-35,662,343,0:34:47
684,394,-586,-534,-38,11,-38,661,366,0:34:47
679,393,-594,-601,19,120,-25,733,410,0:34:47
691,403,-589,-469,14,185,-26,865,504,0:34:47
688,424,-580,-109,-7,182,-75,1021,579,0:34:47
697,408,-576,138,115,185,-182,1135,582,0:34:47
691,409,-568,-32,207,218,-232,1147,541,0:34:47
702,423,-570,-233,-185,202,-173,1107,575,0:34:47
700,423,-556,-86,-692,64,-155,970,631,0:34:47
700,430,-562,-35,-525,-25,-140,639,567,0:34:47
708,426,-573,-39,-354,-82,38,528,312,0:34:47
691,429,-571,-91,-307,-2,207,1065,145,0:34:47
690,435,-571,-121,-64,28,213,1748,313,0:34:47
690,435,-571,-157,67,121,68,1875,328,0:34:47
675,435,-573,-123,148,16,-3,1301,113,0:34:47
681,433,-559,40,47,-94,22,757,0,0:34:47
676,442,-556,-67,-11,-73,-109,800,-10,0:34:47
667,451,-568,-319,145,7,-109,800,-10,0:34:48
693,438,-573,-452,266,126,-81,976,2,0:34:48
715,451,-573,-406,371,196,-60,1169,24,0:34:48
697,462,-564,-221,485,132,-39,1169,118,0:34:48
705,430,-556,-81,478,27,12,1033,198,0:34:48
708,459,-538,-63,400,-26,-1,963,160,0:34:48
705,447,-534,-127,329,-14,-106,964,68,0:34:48
730,451,-540,-227,289,4,-196,957,34,0:34:48
726,468,-547,-246,284,16,-218,920,72,0:34:48
738,468,-543,-235,275,14,-200,916,107,0:34:48
739,469,-540,-240,229,1,-180,925,129,0:34:48
735,471,-517,-248,217,-10,-170,955,134,0:34:48
736,460,-496,-226,219,-35,-165,971,146,0:34:48
736,460,-496,-182,233,-52,-163,971,184,0:34:48
744,463,-520,-132,235,-47,-146,984,199,0:34:48
739,492,-517,-83,236,-42,-124,992,188,0:34:48
727,483,-505,-39,234,-53,-123,981,184,0:34:48
733,472,-531,-16,257,-62,-149,968,172,0:34:48
754,478,-505,-18,257,-54,-149,968,172,0:34:48
732,472,-504,-62,242,-35,-181,975,145,0:34:48
756,493,-487,-118,170,-32,-192,977,105,0:34:48
732,490,-498,-186,91,-41,-182,978,77,0:34:48
745,496,-487,-238,0,-62,-175,990,74,0:34:48
750,474,-486,-249,-50,-79,-170,998,81,0:34:48
766,478,-487,-259,-38,-67,-152,1017,94,0:34:48
723,496,-475,-220,31,-39,-134,1034,90,0:34:48
721,487,-471,-142,202,-16,-134,1039,80,0:34:48
726,508,-457,-147,322,25,-115,1035,54,0:34:48
726,508,-457,-179,286,40,-83,1013,10,0:34:48
736,508,-468,-137,217,-7,-55,1001,-18,0:34:48
735,507,-445,-99,119,-71,-25,1015,-1,0:34:48
735,517,-453,-101,9,-112,-43,1012,12,0:34:48
759,505,-448,-105,-15,-121,-81,1001,-20,0:34:48
754,513,-447,-91,7,-113,-97,1009,-28,0:34:48
742,498,-444,-74,52,-94,-96,1026,27,0:34:48
735,522,-447,-70,104,-73,-96,1026,27,0:34:48
742,510,-435,-68,130,-63,-71,1024,35,0:34:48
738,514,-442,-60,123,-65,-57,1017,37,0:34:48
739,507,-441,-45,88,-79,-63,1006,37,0:34:48
742,525,-433,-35,53,-89,-85,993,30,0:34:48
741,510,-457,-32,34,-93,-103,993,26,0:34:48
736,498,-438,-25,37,-89,-105,1003,35,0:34:48
724,526,-441,-16,46,-78,-95,1004,47,0:34:48
724,526,-441,-8,41,-72,-82,1007,54,0:34:48
727,501,-444,5,23,-72,-80,1012,53,0:34:48
760,523,-444,14,-4,-74,-86,1009,48,0:34:48
741,499,-438,21,-24,-74,-88,1011,51,0:34:48
759,517,-420,18,-25,-72,-89,1015,65,0:34:48
732,519,-429,13,-30,-69,-90,1013,70,0:34:48
732,528,-433,9,-34,-67,-83,1008,63,0:34:48
747,504,-439,4,-38,-63,-71,1001,56,0:34:49
726,505,-454,3,-53,-62,-59,990,48,0:34:49
736,519,-432,9,-60,-61,-48,988,73,0:34:49
733,508,-457,14,-37,-53,-48,988,73,0:34:49
741,522,-438,4,-5,-39,-56,1002,89,0:34:49
735,516,-435,-2,7,-30,-64,1012,88,0:34:49
741,510,-429,0,2,-28,-70,1018,83,0:34:49
751,508,-432,9,-5,-31,-68,1024,88,0:34:49
718,526,-421,12,-7,-34,-63,1023,92,0:34:49
718,526,-421,10,-11,-32,-59,1018,95,0:34:49
729,528,-433,10,-17,-25,-60,1014,93,0:34:49
750,514,-444,9,-8,-20,-63,1012,85,0:34:49
741,516,-433,8,-2,-22,-58,1014,87,0:34:49
721,520,-454,12,-3,-28,-51,1011,86,0:34:49
742,529,-436,13,-13,-32,-46,1006,76,0:34:49
730,511,-436,13,-16,-29,-49,1007,75,0:34:49
729,519,-459,7,-16,-23,-51,1003,75,0:34:49
742,543,-436,10,-8,-19,-49,1003,73,0:34:49
733,525,-460,12,-5,-19,-48,1006,75,0:34:49
733,535,-444,12,1,-23,-44,1010,80,0:34:49
732,510,-436,16,-2,-25,-44,1007,80,0:34:49
732,523,-450,16,9,-20,-46,1007,74,0:34:49
730,502,-433,16,16,-16,-50,1008,77,0:34:49
745,520,-432,20,16,-13,-51,1011,80,0:34:49
727,510,-451,23,20,-15,-50,1010,87,0:34:49
727,510,-451,21,28,-13,-52,1012,87,0:34:49
735,517,-432,18,30,-11,-56,1011,83,0:34:49
723,507,-438,18,27,-9,-56,1011,85,0:34:49
739,525,-448,18,30,-9,-55,1014,85,0:34:49
733,511,-451,17,27,-11,-56,1009,81,0:34:49
744,513,-438,14,24,-12,-56,1003,82,0:34:49
723,517,-426,9,25,-11,-56,1002,81,0:34:49
714,525,-453,6,24,-12,-63,1003,81,0:34:49
736,525,-445,7,18,-11,-66,1003,78,0:34:49
727,513,-447,6,21,-11,-64,1003,78,0:34:49
742,522,-432,7,18,-11,-65,1005,81,0:34:49
729,504,-447,11,17,-11,-65,1006,80,0:34:49
748,508,-450,11,15,-10,-62,1006,79,0:34:49
732,522,-451,10,12,-10,-62,1006,79,0:34:49
730,516,-447,13,9,-11,-66,1007,84,0:34:49
730,516,-447,14,10,-9,-68,1007,89,0:34:49
741,513,-433,13,7,-5,-68,1008,88,0:34:49
742,511,-448,11,0,-5,-70,1005,86,0:34:49
738,516,-429,7,0,-5,-68,1004,88,0:34:49
748,504,-450,9,-6,-9,-67,1004,85,0:34:49
727,520,-444,12,-9,-9,-68,1005,85,0:34:49
735,517,-454,12,-3,-6,-66,1007,90,0:34:49
732,507,-450,8,-4,-4,-65,1007,87,0:34:49
744,516,-451,9,-4,-5,-64,1009,86,0:34:49
733,510,-450,11,-3,-8,-64,1007,86,0:34:49
717,514,-456,12,-11,-8,-64,1004,85,0:34:49
735,529,-423,10,-8,-7,-68,1005,89,0:34:50
735,529,-423,5,-5,-5,-70,1007,93,0:34:50
709,522,-420,3,-7,-7,-67,1007,95,0:34:50
709,522,-420,4,-4,-4,-72,1002,89,0:34:50
735,522,-435,3,-6,-5,-73,999,87,0:34:50
723,519,-433,7,-17,-6,-73,999,87,0:34:50
723,519,-433,10,-13,-6,-72,1003,90,0:34:50
742,523,-445,9,-15,-9,-70,1008,91,0:34:50
723,511,-430,9,-17,-10,-69,1006,91,0:34:50
750,522,-435,9,-8,-9,-67,1004,94,0:34:50
751,516,-441,9,-11,-7,-68,1005,90,0:34:50
730,522,-448,13,-11,-7,-70,1004,91,0:34:50
736,517,-442,13,-9,-5,-71,1004,92,0:34:50
732,528,-447,11,-3,-4,-69,1005,92,0:34:50
727,507,-423,11,-4,-4,-69,1006,93,0:34:50
729,529,-439,14,-2,-6,-71,1007,91,0:34:50
753,529,-448,14,-8,-7,-70,1008,91,0:34:50
733,505,-438,11,-6,-7,-70,1008,93,0:34:50
739,510,-456,11,0,-7,-70,1006,96,0:34:50
739,510,-456,9,2,-6,-72,1003,93,0:34:50
730,508,-436,10,-2,-5,-74,1003,91,0:34:50
730,508,-436,11,-7,-4,-71,1002,90,0:34:50
738,513,-441,11,0,-4,-69,1006,93,0:34:50
744,516,-456,8,7,-7,-69,1006,93,0:34:50
729,514,-430,9,5,-9,-66,1009,92,0:34:50
718,501,-450,9,11,-9,-66,1009,92,0:34:50
739,525,-451,5,21,-11,-68,1006,98,0:34:50
742,508,-438,4,18,-14,-68,1005,94,0:34:50
739,522,-447,6,18,-12,-68,1005,95,0:34:50
729,501,-436,4,18,-14,-71,1007,100,0:34:50
748,510,-444,3,21,-16,-71,1008,97,0:34:50
730,508,-444,4,23,-17,-70,1006,97,0:34:50
721,526,-451,4,27,-16,-71,1003,100,0:34:50
727,495,-436,4,28,-16,-74,1003,100,0:34:50
750,517,-447,3,23,-16,-78,1004,100,0:34:50
741,531,-424,7,23,-17,-82,1003,103,0:34:50
748,526,-441,8,18,-18,-84,1004,103,0:34:50
748,526,-441,6,14,-19,-82,1004,104,0:34:50
730,513,-441,4,11,-17,-81,1001,99,0:34:50
739,508,-445,3,14,-15,-78,1000,100,0:34:50
745,507,-439,3,16,-13,-78,1000,100,0:34:50
730,522,-448,4,16,-16,-73,1001,101,0:34:50
750,501,-433,2,18,-15,-71,1002,100,0:34:50
741,522,-442,3,17,-15,-78,1003,97,0:34:50
745,505,-450,9,13,-15,-81,1001,97,0:34:50
736,501,-441,11,6,-14,-80,1004,96,0:34:50
739,501,-456,14,0,-14,-82,1007,96,0:34:50
757,529,-438,14,-6,-16,-80,1009,97,0:34:50
736,493,-444,8,-2,-18,-79,1009,100,0:34:50
747,519,-457,2,-4,-21,-76,1004,100,0:34:50
735,517,-441,-2,1,-23,-67,999,101,0:34:50
735,523,-450,-4,5,-22,-61,1001,95,0:34:51
739,526,-444,-6,14,-18,-64,1004,98,0:34:51
739,526,-444,-2,11,-17,-71,1007,103,0:34:51
738,523,-429,0,6,-19,-75,1007,97,0:34:51
735,510,-438,2,3,-18,-76,1007,100,0:34:51
730,508,-447,2,3,-16,-77,1007,104,0:34:51
745,507,-436,0,0,-16,-77,1003,97,0:34:51
736,520,-438,0,-2,-16,-77,1003,97,0:34:51
723,508,-460,1,-7,-15,-78,1002,96,0:34:51
741,523,-450,2,-9,-14,-76,1003,97,0:34:51
744,531,-453,4,-11,-14,-73,1003,95,0:34:51
736,508,-454,8,-14,-15,-74,1005,94,0:34:51
723,511,-433,8,-13,-16,-76,1005,98,0:34:51
742,510,-435,4,-17,-16,-74,1004,98,0:34:51
739,522,-448,3,-19,-16,-72,1007,97,0:34:51
738,507,-450,4,-21,-16,-73,1007,95,0:34:51
739,520,-445,2,-22,-18,-71,1004,97,0:34:51
742,510,-453,3,-24,-18,-70,1003,102,0:34:51
736,517,-450,6,-27,-18,-69,1002,102,0:34:51
727,516,-450,5,-22,-18,-67,1001,101,0:34:51
741,517,-465,2,-25,-20,-67,999,99,0:34:51
747,505,-445,0,-23,-22,-64,1000,100,0:34:51
747,505,-445,2,-17,-21,-66,1004,100,0:34:51
735,538,-442,4,-16,-21,-70,1006,102,0:34:51
730,522,-442,7,-16,-21,-70,1008,99,0:34:51
733,526,-444,8,-14,-21,-69,1008,99,0:34:51
739,523,-435,10,-14,-23,-69,1008,96,0:34:51
735,511,-426,8,-13,-23,-65,1005,96,0:34:51
735,513,-445,5,-9,-23,-63,1002,99,0:34:51
723,514,-454,5,-11,-22,-65,1001,100,0:34:51
718,520,-435,6,-16,-21,-67,1005,100,0:34:51
727,537,-442,5,-14,-19,-65,1008,101,0:34:51
750,517,-453,4,-14,-18,-61,1006,101,0:34:51
708,499,-438,3,-9,-18,-58,1005,102,0:34:51
733,507,-439,2,-6,-16,-61,1004,102,0:34:51
736,529,-435,2,-6,-16,-61,1001,99,0:34:51
735,531,-435,1,-9,-15,-55,1004,97,0:34:51
735,531,-435,2,-12,-16,-51,1005,98,0:34:51
736,532,-457,1,-10,-16,-50,1008,101,0:34:51
723,507,-438,0,-6,-18,-50,1011,102,0:34:51
723,507,-438,0,0,-18,-53,1004,104,0:34:51
724,522,-438,-1,7,-17,-52,999,99,0:34:51
714,511,-445,-3,10,-16,-52,999,99,0:34:51
726,516,-427,-1,9,-15,-53,998,100,0:34:51
742,514,-444,-1,9,-12,-55,1002,105,0:34:51
726,508,-436,-1,14,-10,-56,1004,107,0:34:51
726,508,-436,0,10,-11,-55,1006,103,0:34:51
754,529,-453,-1,8,-11,-58,1005,100,0:34:51
732,529,-444,0,5,-10,-62,1006,102,0:34:51
718,516,-433,-1,3,-10,-65,1008,100,0:34:51
741,517,-442,-1,4,-11,-62,1008,101,0:34:52
739,522,-450,-1,-1,-11,-61,1006,102,0:34:52
727,519,-424,-1,0,-8,-62,1003,99,0:34:52
726,522,-441,-2,1,-6,-62,1002,97,0:34:52
735,525,-456,-2,-4,-7,-63,1002,93,0:34:52
745,504,-441,0,-9,-7,-62,1005,93,0:34:52
745,504,-441,4,-6,-7,-63,1005,95,0:34:52
733,507,-445,6,-6,-7,-63,1005,97,0:34:52
729,511,-465,4,-10,-7,-61,1003,96,0:34:52
730,537,-435,1,-10,-4,-63,1006,97,0:34:52
736,514,-423,0,-11,-5,-63,1006,97,0:34:52
726,511,-436,0,-8,-7,-62,1007,97,0:34:52
715,519,-447,2,-4,-8,-61,1005,94,0:34:52
738,513,-445,0,0,-7,-60,1006,96,0:34:52
724,514,-445,0,0,-7,-61,1006,101,0:34:52
730,508,-435,0,4,-5,-65,1007,100,0:34:52
714,508,-430,2,2,-6,-67,1007,94,0:34:52
721,528,-439,2,0,-6,-67,1006,96,0:34:52
745,511,-447,2,-2,-7,-69,1005,99,0:34:52
730,507,-456,1,-1,-7,-69,1004,101,0:34:52
759,508,-435,1,0,-6,-68,1003,102,0:34:52
747,495,-460,-1,1,-4,-68,1003,98,0:34:52
733,516,-450,0,-1,-5,-68,1004,94,0:34:52
742,513,-448,0,4,-4,-67,1006,98,0:34:52
738,514,-454,0,6,-5,-64,1007,102,0:34:52
738,514,-454,1,1,-5,-66,1007,96,0:34:52
739,495,-438,0,2,-4,-68,1003,96,0:34:52
732,511,-451,-2,4,-4,-68,1003,96,0:34:52
744,514,-454,-2,2,-6,-70,1001,90,0:34:52
747,528,-439,0,4,-8,-69,1006,93,0:34:52
727,519,-454,0,7,-9,-71,1007,98,0:34:52
751,519,-445,-1,7,-8,-68,1005,98,0:34:52
724,505,-447,-3,4,-8,-66,1007,94,0:34:52
735,531,-448,-3,4,-7,-69,1005,96,0:34:52
739,510,-465,-2,9,-8,-71,1001,98,0:34:52
721,513,-445,0,6,-8,-70,1001,91,0:34:52
733,519,-453,0,2,-7,-71,1002,93,0:34:52
750,529,-454,-1,2,-6,-74,1005,97,0:34:52
730,511,-439,-2,1,-7,-76,1007,95,0:34:52
730,511,-439,-2,-4,-9,-75,1006,93,0:34:52
739,510,-448,-3,-2,-10,-76,1005,96,0:34:52
730,510,-454,-4,-2,-9,-77,1005,96,0:34:52
733,514,-447,-3,1,-9,-72,1007,95,0:34:52
732,525,-442,-2,0,-10,-75,1003,93,0:34:52
720,519,-460,-2,-2,-11,-74,1003,94,0:34:52
720,523,-430,0,-4,-11,-74,1003,94,0:34:52
733,508,-451,1,0,-9,-73,1005,94,0:34:52
721,505,-444,0,-1,-10,-71,1004,92,0:34:52
729,510,-439,0,0,-10,-69,1004,94,0:34:52
717,501,-459,1,-2,-10,-71,1003,93,0:34:52
727,516,-462,1,-2,-11,-74,1000,90,0:34:52
726,517,-442,2,-3,-11,-74,1002,92,0:34:53
738,492,-436,2,-1,-11,-74,1003,93,0:34:53
739,511,-432,2,-2,-11,-73,1005,94,0:34:53
711,519,-436,3,-2,-9,-72,1006,94,0:34:53
747,532,-432,3,-2,-10,-71,1004,94,0:34:53
747,517,-448,3,-4,-11,-71,1005,95,0:34:53
735,504,-420,4,-6,-11,-72,1004,95,0:34:53
741,529,-445,4,-1,-12,-75,1004,95,0:34:53
741,529,-445,2,0,-13,-75,1005,94,0:34:53
723,525,-424,2,2,-14,-73,1002,93,0:34:53
723,525,-424,2,-1,-13,-72,1003,94,0:34:53
730,520,-442,4,-2,-12,-74,1004,93,0:34:53
729,504,-430,2,0,-11,-74,1004,93,0:34:53
733,492,-457,0,-6,-11,-75,1005,93,0:34:53
733,492,-457,4,-5,-13,-75,1008,97,0:34:53
730,505,-459,4,0,-14,-76,1007,97,0:34:53
718,528,-438,1,-4,-14,-72,1006,93,0:34:53
736,531,-451,3,-4,-13,-68,1007,92,0:34:53
