magX[mG],magY[mG],magZ[mG],gyroX[mdps],gyroY[mdps],gyroZ[mdps],accX[mg],accY[mg],accZ[mg],hh:mm:ss.ms
381,-211,-493,0,0,-16,79,-974,64,0:01:52
381,-211,-493,0,0,-16,79,-974,64,0:01:52
381,-211,-493,0,0,-16,79,-974,64,0:01:52
379,-204,-474,-3,-2,-16,79,-974,64,0:01:52
379,-204,-474,-2,4,-14,82,-974,62,0:01:52
384,-190,-465,-2,2,-13,84,-978,65,0:01:52
382,-213,-475,-1,1,-13,78,-976,66,0:01:52
391,-198,-481,-4,1,-12,75,-977,66,0:01:52
372,-220,-493,-7,2,-11,75,-977,66,0:01:52
381,-196,-480,-4,2,-11,79,-976,68,0:01:52
373,-199,-456,-2,3,-11,81,-975,67,0:01:52
373,-211,-469,0,4,-11,80,-975,68,0:01:52
367,-207,-471,0,-2,-9,78,-974,69,0:01:52
376,-214,-480,0,-2,-9,81,-977,69,0:01:52
361,-187,-463,-1,-3,-9,80,-981,70,0:01:52
391,-208,-477,-2,-4,-11,82,-979,69,0:01:52
379,-205,-489,-1,-4,-11,85,-976,66,0:01:52
367,-208,-486,-1,-8,-9,82,-975,66,0:01:52
367,-208,-486,-1,-7,-10,82,-976,66,0:01:52
385,-193,-480,0,-4,-11,83,-977,66,0:01:52
363,-204,-477,0,-7,-11,87,-977,67,0:01:52
375,-205,-477,0,-4,-11,89,-979,66,0:01:53
379,-189,-471,-2,0,-11,90,-980,64,0:01:53
370,-193,-477,-2,7,-11,89,-977,62,0:01:53
390,-196,-502,-3,5,-8,86,-976,66,0:01:53
384,-204,-483,-2,2,-9,86,-976,66,0:01:53
369,-205,-477,-1,0,-11,86,-976,64,0:01:53
387,-195,-484,-1,-2,-13,83,-979,65,0:01:53
379,-190,-493,1,-2,-12,77,-978,62,0:01:53
369,-195,-462,2,0,-13,78,-976,60,0:01:53
363,-196,-486,0,-6,-12,83,-979,63,0:01:53
363,-196,-486,-2,-11,-15,83,-978,62,0:01:53
393,-204,-487,-2,-7,-16,81,-974,58,0:01:53
369,-199,-483,0,-11,-13,84,-977,59,0:01:53
367,-187,-489,1,-14,-11,86,-978,64,0:01:53
367,-201,-489,1,-9,-12,87,-977,63,0:01:53
388,-208,-478,0,-7,-13,88,-975,63,0:01:53
382,-216,-481,0,-5,-15,86,-976,67,0:01:53
372,-208,-481,0,-5,-14,84,-976,65,0:01:53
385,-214,-463,1,-9,-14,86,-976,63,0:01:53
382,-210,-475,0,-7,-15,84,-976,63,0:01:53
372,-187,-480,0,-7,-16,83,-975,66,0:01:53
375,-204,-480,-1,-4,-16,83,-977,66,0:01:53
384,-193,-489,1,-6,-16,83,-977,66,0:01:53
385,-193,-495,1,-9,-15,83,-980,67,0:01:53
363,-201,-490,-1,-3,-16,82,-979,64,0:01:53
363,-201,-490,-2,-3,-16,82,-976,67,0:01:53
382,-192,-484,-1,-9,-14,82,-975,68,0:01:53
378,-210,-492,-1,-10,-14,79,-976,65,0:01:53
370,-199,-484,-2,-13,-14,82,-977,69,0:01:53
376,-201,-474,-3,-8,-14,86,-978,68,0:01:53
381,-189,-483,-3,-7,-14,89,-979,67,0:01:53
385,-186,-483,-3,-5,-15,89,-979,69,0:01:53
370,-204,-477,-4,-11,-15,87,-978,71,0:01:53
376,-196,-487,-2,-9,-14,86,-978,72,0:01:53
372,-195,-474,-2,-8,-15,81,-979,72,0:01:53
370,-207,-487,-2,-7,-15,83,-979,76,0:01:53
391,-204,-484,-1,-5,-15,83,-974,73,0:01:53
384,-180,-472,0,-4,-15,80,-974,69,0:01:53
384,-180,-472,0,-4,-14,80,-977,74,0:01:53
376,-196,-483,-2,-4,-13,80,-978,72,0:01:53
382,-202,-477,0,-2,-14,80,-978,72,0:01:53
370,-211,-484,1,-4,-14,83,-976,68,0:01:53
390,-183,-480,2,-4,-14,84,-974,71,0:01:53
379,-202,-472,4,-3,-15,81,-973,72,0:01:53
364,-193,-483,2,-4,-14,81,-976,70,0:01:53
376,-205,-490,0,-7,-14,83,-980,73,0:01:53
387,-189,-490,-1,-4,-14,81,-980,73,0:01:53
387,-198,-477,0,-2,-16,80,-980,70,0:01:53
358,-205,-469,3,-4,-14,80,-978,70,0:01:53
378,-190,-481,4,-9,-14,82,-977,70,0:01:53
388,-192,-480,2,-6,-14,84,-976,70,0:01:53
378,-207,-490,2,-2,-14,84,-975,69,0:01:54
378,-199,-480,2,0,-14,83,-976,68,0:01:54
375,-187,-496,0,1,-14,84,-977,72,0:01:54
375,-187,-496,0,0,-16,84,-980,73,0:01:54
373,-207,-486,3,-3,-17,82,-981,71,0:01:54
388,-213,-477,5,-2,-18,78,-976,67,0:01:54
385,-196,-489,5,-7,-18,83,-974,69,0:01:54
375,-198,-471,4,-7,-18,83,-974,69,0:01:54
378,-195,-483,3,-5,-21,84,-975,68,0:01:54
363,-205,-490,2,-9,-21,80,-976,71,0:01:54
378,-202,-471,1,-9,-21,79,-978,73,0:01:54
379,-199,-499,2,-10,-21,80,-978,68,0:01:54
373,-204,-480,2,-6,-20,82,-979,64,0:01:54
373,-199,-495,4,-3,-18,85,-979,64,0:01:54
396,-186,-487,7,-6,-19,82,-977,66,0:01:54
409,-196,-481,5,-7,-18,78,-978,66,0:01:54
358,-195,-469,1,-8,-18,79,-976,67,0:01:54
376,-190,-484,0,-2,-19,81,-973,66,0:01:54
391,-201,-489,2,2,-19,79,-977,64,0:01:54
384,-201,-495,2,4,-19,79,-979,68,0:01:54
385,-207,-483,4,0,-18,77,-978,72,0:01:54
382,-205,-480,4,2,-18,77,-977,68,0:01:54
382,-205,-480,5,5,-18,77,-977,67,0:01:54
375,-205,-481,3,7,-18,74,-975,66,0:01:54
375,-217,-468,2,6,-18,74,-975,66,0:01:54
375,-217,-468,2,2,-18,73,-979,69,0:01:54
390,-204,-475,4,-1,-18,73,-980,71,0:01:54
358,-202,-471,6,-7,-18,74,-979,71,0:01:54
375,-211,-481,4,-6,-17,76,-978,68,0:01:54
381,-211,-478,4,-2,-17,78,-976,69,0:01:54
381,-193,-490,4,-1,-18,77,-978,73,0:01:54
385,-178,-465,4,-6,-18,77,-978,74,0:01:54
384,-192,-489,5,-4,-16,78,-975,74,0:01:54
393,-184,-483,7,-2,-15,77,-976,74,0:01:54
384,-195,-469,8,-1,-15,78,-978,74,0:01:54
379,-205,-499,9,0,-15,80,-981,73,0:01:54
379,-205,-499,10,0,-13,81,-980,70,0:01:54
375,-199,-487,9,1,-14,80,-978,69,0:01:54
357,-186,-463,7,4,-14,77,-977,70,0:01:54
372,-190,-478,7,2,-12,75,-977,71,0:01:54
366,-202,-465,8,1,-11,73,-978,66,0:01:54
391,-198,-481,7,-1,-11,73,-978,66,0:01:54
394,-199,-481,7,-3,-11,71,-980,64,0:01:54
391,-202,-486,6,-4,-10,73,-981,62,0:01:54
382,-195,-472,6,-6,-10,73,-981,65,0:01:54
376,-192,-477,4,-9,-11,73,-983,66,0:01:54
373,-207,-477,4,-9,-12,74,-981,65,0:01:54
379,-199,-462,5,-5,-12,75,-979,66,0:01:54
381,-195,-471,9,-7,-11,77,-976,68,0:01:54
381,-195,-471,7,-1,-12,77,-976,66,0:01:54
378,-189,-471,5,9,-15,79,-984,67,0:01:55
390,-189,-483,8,7,-15,84,-988,73,0:01:55
382,-195,-483,9,9,-14,83,-981,68,0:01:55
373,-204,-487,12,8,-11,81,-972,66,0:01:55
375,-181,-459,18,9,-11,84,-968,68,0:01:55
384,-201,-478,20,14,-12,84,-972,63,0:01:55
366,-210,-463,18,11,-11,81,-975,60,0:01:55
378,-216,-472,14,6,-11,78,-973,60,0:01:55
393,-210,-465,16,7,-12,80,-982,58,0:01:55
391,-205,-487,14,7,-14,80,-982,58,0:01:55
369,-190,-471,11,4,-14,80,-984,61,0:01:55
367,-222,-483,8,7,-15,78,-979,57,0:01:55
367,-222,-483,8,4,-14,76,-976,56,0:01:55
390,-220,-486,9,0,-11,80,-978,55,0:01:55
385,-198,-477,4,-6,-14,80,-979,51,0:01:55
375,-192,-456,4,-6,-16,74,-980,49,0:01:55
384,-202,-472,5,-11,-14,70,-979,52,0:01:55
375,-199,-463,8,-13,-14,73,-978,56,0:01:55
369,-198,-480,9,-7,-15,76,-980,55,0:01:55
375,-204,-475,9,-3,-17,80,-980,55,0:01:55
381,-193,-475,10,3,-19,84,-979,55,0:01:55
385,-199,-483,8,9,-19,83,-977,61,0:01:55
394,-205,-502,9,15,-16,81,-976,63,0:01:55
394,-205,-502,7,17,-14,81,-974,62,0:01:55
385,-178,-480,4,20,-14,80,-977,65,0:01:55
370,-183,-468,7,27,-14,78,-979,62,0:01:55
388,-193,-489,9,31,-14,78,-978,62,0:01:55
379,-195,-466,12,34,-13,78,-978,62,0:01:55
373,-199,-475,16,31,-11,78,-978,64,0:01:55
367,-186,-462,14,25,-11,77,-978,63,0:01:55
369,-208,-463,12,21,-11,73,-976,56,0:01:55
379,-184,-478,7,15,-11,69,-980,54,0:01:55
376,-208,-486,1,9,-9,71,-981,58,0:01:55
379,-205,-495,2,4,-9,75,-982,59,0:01:55
391,-187,-459,6,14,-14,77,-981,53,0:01:55
394,-208,-469,5,13,-14,79,-980,49,0:01:55
378,-213,-478,2,4,-11,76,-980,56,0:01:55
378,-199,-469,0,-2,-10,74,-981,56,0:01:55
375,-207,-490,0,-1,-13,69,-982,52,0:01:55
375,-207,-490,-2,-5,-14,64,-983,50,0:01:55
394,-222,-475,-2,-8,-13,64,-981,48,0:01:55
397,-207,-483,0,-18,-12,63,-978,47,0:01:55
385,-193,-489,0,-21,-14,65,-979,48,0:01:55
399,-199,-462,0,-23,-14,71,-983,54,0:01:55
387,-204,-484,-1,-24,-12,72,-980,55,0:01:55
387,-198,-475,-3,-20,-11,72,-980,55,0:01:55
378,-190,-478,-2,-9,-11,76,-976,52,0:01:55
387,-204,-454,-3,-7,-11,78,-975,55,0:01:55
382,-169,-469,0,-1,-12,81,-978,60,0:01:55
388,-183,-475,-1,2,-14,82,-979,57,0:01:55
376,-207,-498,0,0,-12,80,-979,58,0:01:55
379,-210,-469,0,0,-10,77,-979,57,0:01:56
379,-205,-471,1,2,-9,75,-977,54,0:01:56
388,-187,-471,2,-2,-8,76,-977,58,0:01:56
375,-213,-466,0,0,-8,78,-978,61,0:01:56
393,-220,-457,-5,2,-11,78,-979,61,0:01:56
384,-202,-478,-6,3,-10,77,-978,59,0:01:56
384,-201,-468,-7,0,-9,76,-979,59,0:01:56
382,-190,-463,-4,-5,-7,76,-980,60,0:01:56
382,-190,-463,-2,-4,-8,77,-981,61,0:01:56
361,-210,-481,0,-4,-9,78,-978,61,0:01:56
385,-198,-471,3,0,-10,78,-976,58,0:01:56
385,-198,-471,3,0,-9,78,-976,58,0:01:56
376,-192,-495,4,0,-10,79,-977,60,0:01:56
384,-190,-480,3,4,-10,78,-978,62,0:01:56
376,-190,-480,3,10,-11,73,-978,60,0:01:56
387,-205,-483,1,7,-9,74,-977,61,0:01:56
385,-220,-454,1,2,-8,77,-976,62,0:01:56
379,-204,-468,0,6,-8,75,-979,59,0:01:56
394,-211,-489,-2,9,-8,75,-982,60,0:01:56
375,-210,-472,-4,7,-7,78,-982,62,0:01:56
390,-211,-493,0,4,-7,76,-979,61,0:01:56
372,-181,-478,0,4,-7,73,-977,57,0:01:56
388,-198,-483,-4,2,-7,71,-976,57,0:01:56
379,-211,-454,-3,2,-7,73,-978,60,0:01:56
379,-211,-454,0,0,-7,76,-976,59,0:01:56
376,-210,-465,2,0,-7,75,-976,56,0:01:56
393,-198,-474,1,-5,-4,77,-981,59,0:01:56
393,-207,-463,0,-7,-5,76,-979,62,0:01:56
391,-222,-487,-1,-2,-9,78,-982,60,0:01:56
376,-199,-489,-1,2,-8,78,-982,60,0:01:56
363,-195,-450,0,-1,-7,80,-981,59,0:01:56
376,-184,-465,3,-9,-6,79,-976,60,0:01:56
376,-193,-474,3,-9,-7,79,-977,61,0:01:56
384,-207,-478,2,-9,-8,79,-980,63,0:01:56
373,-202,-483,4,-9,-9,81,-980,62,0:01:56
382,-214,-490,4,-7,-9,85,-978,60,0:01:56
379,-213,-478,3,-7,-7,84,-976,61,0:01:56
378,-198,-480,2,-4,-7,81,-976,61,0:01:56
370,-219,-471,-2,-2,-7,80,-977,63,0:01:56
370,-205,-478,-6,-2,-7,80,-980,65,0:01:56
390,-201,-480,-7,-5,-7,83,-982,64,0:01:56
376,-207,-474,-6,-2,-7,85,-980,61,0:01:56
366,-217,-481,-4,2,-8,82,-977,60,0:01:56
379,-196,-481,0,2,-8,80,-977,63,0:01:56
376,-193,-480,0,-1,-7,82,-978,65,0:01:56
376,-193,-480,2,-7,-9,83,-978,64,0:01:56
384,-202,-484,4,-5,-12,83,-978,64,0:01:56
384,-205,-487,5,-7,-12,80,-979,64,0:01:56
388,-190,-489,3,-7,-10,82,-979,67,0:01:56
378,-204,-483,3,-14,-7,88,-976,68,0:01:56
378,-201,-468,3,-11,-8,91,-975,63,0:01:56
381,-198,-475,1,-4,-11,89,-976,60,0:01:57
385,-192,-454,0,0,-14,85,-977,61,0:01:57
372,-192,-465,0,-6,-13,86,-974,64,0:01:57
390,-196,-466,0,-12,-14,89,-973,66,0:01:57
378,-210,-486,2,-7,-16,89,-978,65,0:01:57
375,-187,-468,4,-2,-21,85,-978,65,0:01:57
366,-202,-495,8,-3,-21,85,-975,67,0:01:57
366,-202,-495,11,0,-17,87,-973,65,0:01:57
387,-201,-474,15,6,-16,89,-971,60,0:01:57
376,-204,-475,11,11,-17,86,-972,58,0:01:57
378,-205,-478,8,7,-17,79,-979,64,0:01:57
379,-204,-477,6,5,-16,79,-983,58,0:01:57
387,-193,-489,7,3,-14,78,-980,56,0:01:57
394,-195,-477,9,6,-11,78,-980,56,0:01:57
402,-213,-477,10,7,-11,78,-978,55,0:01:57
412,-190,-480,9,7,-12,78,-978,56,0:01:57
381,-213,-483,7,-3,-11,74,-978,59,0:01:57
375,-210,-483,8,-10,-10,70,-978,61,0:01:57
385,-201,-475,7,-6,-9,71,-977,55,0:01:57
402,-193,-472,2,-7,-7,71,-973,55,0:01:57
391,-205,-493,-2,-15,-2,73,-975,62,0:01:57
382,-193,-481,-5,-15,-4,79,-981,64,0:01:57
382,-193,-481,-4,-9,-6,85,-982,64,0:01:57
361,-204,-475,-1,-3,-7,89,-981,62,0:01:57
370,-199,-483,4,6,-4,90,-976,62,0:01:57
388,-210,-474,7,10,-1,90,-971,65,0:01:57
381,-205,-480,14,11,2,92,-975,72,0:01:57
390,-207,-475,18,14,2,94,-982,74,0:01:57
370,-211,-490,21,12,4,91,-982,72,0:01:57
375,-198,-490,18,14,3,72,-968,63,0:01:57
390,-211,-486,18,17,2,72,-968,63,0:01:57
376,-214,-463,22,11,7,70,-971,66,0:01:57
379,-202,-492,25,5,9,71,-974,69,0:01:57
373,-207,-471,27,0,10,73,-974,69,0:01:57
375,-196,-468,28,6,9,76,-975,65,0:01:57
363,-220,-480,33,7,8,77,-974,64,0:01:57
375,-205,-465,36,3,11,78,-972,67,0:01:57
375,-205,-465,38,-4,15,80,-968,72,0:01:57
358,-198,-448,39,2,17,83,-957,69,0:01:57
373,-190,-481,32,10,21,79,-944,63,0:01:57
366,-190,-456,27,6,28,75,-945,76,0:01:57
385,-213,-484,31,-10,35,79,-965,93,0:01:57
373,-210,-487,37,-21,42,89,-980,95,0:01:57
369,-202,-463,38,-31,44,95,-977,92,0:01:57
379,-195,-471,46,-25,46,91,-964,84,0:01:57
381,-192,-475,60,-34,61,88,-953,76,0:01:57
358,-204,-475,67,-48,74,91,-950,74,0:01:57
373,-216,-487,80,-65,82,89,-974,79,0:01:57
372,-202,-477,77,-101,74,89,-974,79,0:01:57
360,-204,-447,67,-123,51,95,-970,76,0:01:57
360,-204,-447,44,-130,29,103,-949,55,0:01:58
376,-217,-460,30,-136,28,132,-953,33,0:01:58
360,-204,-466,28,-182,51,157,-971,36,0:01:58
358,-210,-451,30,-209,72,164,-993,58,0:01:58
366,-208,-468,27,-240,72,185,-1015,76,0:01:58
372,-205,-460,21,-239,59,200,-998,78,0:01:58
375,-199,-471,21,-240,43,191,-971,68,0:01:58
351,-217,-474,40,-203,37,193,-972,51,0:01:58
354,-220,-454,53,-149,33,208,-982,48,0:01:58
340,-205,-465,67,-147,51,214,-978,53,0:01:58
349,-177,-436,112,-154,82,214,-968,43,0:01:58
336,-210,-454,124,-159,102,231,-958,26,0:01:58
340,-180,-424,90,-158,98,233,-946,29,0:01:58
334,-195,-432,58,-154,82,205,-952,50,0:01:58
349,-199,-430,51,-156,64,177,-952,77,0:01:58
340,-198,-435,64,-161,45,177,-952,77,0:01:58
358,-205,-435,95,-151,29,178,-915,57,0:01:58
358,-205,-435,134,-138,10,190,-886,60,0:01:58
351,-205,-429,162,-126,-9,197,-872,64,0:01:58
313,-192,-436,177,-123,-29,213,-902,71,0:01:58
331,-210,-429,202,-98,-63,221,-938,74,0:01:58
334,-213,-415,201,-85,-79,197,-904,70,0:01:58
339,-202,-412,220,-98,-86,210,-891,75,0:01:58
345,-201,-427,242,-101,-95,242,-912,65,0:01:58
330,-223,-403,244,-102,-107,245,-919,40,0:01:58
339,-189,-402,240,-95,-112,254,-942,34,0:01:58
336,-214,-405,256,-106,-119,265,-966,45,0:01:58
337,-193,-390,238,-128,-151,245,-957,77,0:01:58
345,-223,-382,221,-127,-193,258,-963,85,0:01:58
330,-220,-394,201,-93,-237,275,-984,67,0:01:58
342,-234,-394,224,-86,-273,259,-992,66,0:01:58
357,-247,-367,196,-133,-244,265,-1042,104,0:01:58
345,-216,-396,291,-151,-288,263,-1043,135,0:01:58
345,-216,-396,158,-158,-268,306,-1065,218,0:01:58
358,-213,-372,30,-109,-275,306,-1065,218,0:01:58
358,-213,-372,-77,0,-313,354,-1117,221,0:01:58
361,-228,-367,-326,213,-205,424,-1215,171,0:01:58
385,-250,-384,-539,470,-86,458,-1235,7,0:01:58
385,-232,-387,-765,602,-69,343,-1129,-149,0:01:58
378,-249,-390,-991,643,-12,115,-1089,-117,0:01:58
387,-229,-415,-1131,669,80,-71,-1093,-27,0:01:58
390,-228,-447,-1207,590,118,-141,-1042,-25,0:01:58
390,-225,-459,-1246,128,194,-119,-1102,71,0:01:58
394,-217,-472,-1284,-66,207,-88,-1189,123,0:01:58
399,-210,-481,-1227,49,153,-16,-1220,24,0:01:58
396,-190,-508,-1055,403,33,26,-1129,-84,0:01:58
393,-174,-529,-921,705,77,86,-988,-92,0:01:58
397,-172,-555,-884,898,166,183,-1027,35,0:01:58
397,-172,-555,-814,1004,206,205,-1058,151,0:01:58
417,-160,-577,-809,1132,136,5,-933,202,0:01:58
429,-160,-586,-725,1171,151,-90,-861,199,0:01:58
429,-160,-597,-568,1169,168,-90,-861,199,0:01:59
447,-156,-628,-459,1188,75,-93,-791,141,0:01:59
465,-130,-622,-364,1080,5,-105,-764,134,0:01:59
466,-132,-654,-135,812,-17,-158,-699,208,0:01:59
481,-117,-652,118,501,-60,-192,-659,272,0:01:59
498,-115,-643,179,166,61,-139,-746,387,0:01:59
481,-126,-642,241,112,92,-62,-759,366,0:01:59
486,-126,-637,310,119,58,-55,-642,286,0:01:59
508,-132,-631,349,44,81,-19,-627,332,0:01:59
493,-157,-640,464,9,79,-1,-620,355,0:01:59
502,-139,-634,513,-5,95,-9,-634,380,0:01:59
502,-139,-634,485,-54,165,4,-694,427,0:01:59
501,-171,-631,496,4,193,22,-728,461,0:01:59
499,-165,-616,448,34,259,23,-792,556,0:01:59
502,-168,-600,269,145,219,28,-898,657,0:01:59
492,-181,-610,-43,-28,198,97,-1062,753,0:01:59
489,-183,-621,66,-165,235,118,-1179,546,0:01:59
490,-171,-618,135,313,132,-23,-850,617,0:01:59
480,-183,-610,21,633,-12,-23,-850,617,0:01:59
504,-171,-619,-93,254,10,-176,-549,610,0:01:59
498,-180,-616,91,-513,-53,-303,-889,233,0:01:59
495,-172,-598,-68,-285,-234,-377,-1642,-142,0:01:59
511,-183,-621,-105,-313,-92,-98,-1905,33,0:01:59
505,-184,-636,-94,-692,-135,95,-1184,101,0:01:59
487,-190,-615,-204,-472,-130,-30,-546,-80,0:01:59
502,-187,-622,329,-959,46,72,-599,-63,0:01:59
477,-181,-619,709,-1286,188,232,-800,-135,0:01:59
462,-184,-616,662,-800,336,349,-1174,-178,0:01:59
472,-201,-609,233,-723,229,259,-1258,-2,0:01:59
454,-213,-603,-13,-938,7,-103,-933,364,0:01:59
454,-213,-603,221,-1213,-28,-257,-711,363,0:01:59
445,-195,-586,406,-1255,61,-74,-746,48,0:01:59
433,-231,-594,513,-1162,134,204,-863,-154,0:01:59
412,-213,-582,576,-1047,149,304,-814,30,0:01:59
411,-231,-559,556,-665,102,272,-835,6,0:01:59
396,-232,-532,519,-457,48,272,-835,6,0:01:59
396,-232,-532,438,-386,-24,292,-901,0,0:01:59
399,-234,-531,340,-373,-88,268,-895,66,0:01:59
393,-250,-523,296,-373,-106,233,-897,131,0:01:59
370,-255,-516,303,-347,-139,214,-902,115,0:01:59
403,-258,-481,361,-280,-179,195,-871,67,0:01:59
376,-265,-489,454,-243,-211,186,-865,55,0:01:59
390,-283,-492,535,-254,-259,177,-865,68,0:01:59
399,-276,-460,563,-287,-298,157,-849,90,0:01:59
399,-280,-430,551,-345,-324,147,-863,108,0:01:59
382,-282,-429,512,-378,-324,190,-906,96,0:01:59
391,-286,-439,456,-380,-287,256,-933,67,0:01:59
391,-286,-439,372,-357,-228,265,-958,57,0:01:59
397,-304,-405,275,-300,-167,235,-1036,100,0:01:59
415,-304,-411,240,-197,-139,243,-1088,98,0:01:59
402,-319,-421,229,-144,-156,263,-1049,98,0:01:59
399,-288,-396,112,-148,-154,335,-1104,282,0:02:00
420,-292,-382,-72,-132,-134,466,-1150,135,0:02:00
400,-297,-369,-222,56,-63,466,-1150,135,0:02:00
426,-298,-381,-463,396,77,590,-1251,-45,0:02:00
420,-295,-390,-840,703,133,544,-1325,-151,0:02:00
429,-289,-397,-1127,879,142,275,-1358,-220,0:02:00
429,-285,-408,-1188,1036,188,-26,-1290,-206,0:02:00
430,-285,-435,-1315,899,218,-110,-1194,-116,0:02:00
435,-267,-448,-1261,492,258,-53,-1249,45,0:02:00
424,-238,-484,-1206,273,200,-18,-1270,52,0:02:00
402,-225,-499,-1232,68,141,-44,-1168,22,0:02:00
418,-217,-510,-1110,89,86,-69,-1071,76,0:02:00
414,-204,-528,-991,595,191,106,-1104,-1,0:02:00
432,-195,-535,-1074,903,305,305,-1174,-41,0:02:00
444,-190,-558,-1045,1341,171,226,-1101,52,0:02:00
456,-171,-570,-917,1507,24,72,-884,20,0:02:00
456,-171,-570,-701,1355,11,-18,-708,74,0:02:00
466,-162,-567,-544,1232,3,-98,-784,188,0:02:00
487,-160,-600,-356,1180,11,-145,-673,154,0:02:00
493,-144,-594,-153,1067,-67,-153,-522,148,0:02:00
510,-154,-601,167,714,-126,-153,-522,148,0:02:00
522,-133,-589,387,298,-51,-133,-477,206,0:02:00
520,-130,-597,450,164,-4,-69,-536,263,0:02:00
532,-148,-588,441,202,30,-27,-603,311,0:02:00
535,-147,-573,584,246,37,-17,-616,355,0:02:00
516,-156,-580,722,213,72,14,-604,411,0:02:00
538,-150,-567,702,183,160,70,-666,485,0:02:00
525,-178,-568,563,205,262,110,-836,620,0:02:00
544,-174,-558,264,210,304,111,-968,742,0:02:00
535,-169,-549,-65,98,306,123,-1096,821,0:02:00
529,-187,-567,51,-140,303,84,-1230,780,0:02:00
520,-180,-552,105,291,142,-7,-1214,577,0:02:00
505,-171,-544,73,838,-70,-73,-872,496,0:02:00
513,-162,-522,-10,730,-80,-152,-460,517,0:02:00
513,-162,-522,-3,4,51,-269,-633,441,0:02:00
502,-183,-532,93,-448,-106,-142,-1994,103,0:02:00
495,-165,-532,-86,-345,121,16,-1260,10,0:02:00
516,-163,-543,-4,-633,-69,16,-1260,10,0:02:00
504,-172,-528,-483,-312,-183,-123,-454,-47,0:02:00
513,-165,-558,110,-889,102,-11,-515,35,0:02:00
507,-171,-552,725,-1403,172,231,-691,-89,0:02:00
475,-172,-546,717,-709,301,337,-1056,-259,0:02:00
454,-172,-528,348,-618,273,414,-1361,-86,0:02:00
448,-189,-514,90,-901,50,48,-1059,347,0:02:00
453,-175,-504,275,-1085,10,-285,-710,376,0:02:00
421,-178,-508,490,-1252,99,-68,-718,76,0:02:00
411,-177,-478,658,-1318,219,241,-872,-94,0:02:00
406,-193,-462,714,-1223,233,366,-904,-79,0:02:00
406,-193,-462,657,-837,149,345,-772,5,0:02:00
381,-186,-436,549,-459,0,283,-709,-16,0:02:00
381,-186,-436,409,-386,-82,297,-816,-22,0:02:01
385,-205,-438,342,-372,-98,314,-915,60,0:02:01
355,-192,-420,368,-362,-99,279,-878,77,0:02:01
376,-204,-400,458,-314,-114,263,-832,37,0:02:01
352,-211,-414,546,-225,-160,206,-845,60,0:02:01
363,-201,-382,603,-189,-224,206,-845,60,0:02:01
397,-213,-388,627,-228,-288,145,-864,92,0:02:01
369,-222,-372,592,-289,-336,116,-896,108,0:02:01
363,-231,-361,507,-339,-352,150,-937,112,0:02:01
375,-238,-358,438,-350,-320,239,-970,82,0:02:01
397,-237,-369,369,-345,-251,322,-1009,64,0:02:01
369,-226,-342,264,-282,-177,317,-1064,90,0:02:01
385,-244,-351,203,-219,-134,283,-1097,95,0:02:01
376,-237,-333,135,-249,-158,224,-1080,129,0:02:01
382,-225,-319,-6,-342,-163,206,-1103,262,0:02:01
376,-249,-340,-180,-312,-190,289,-1116,316,0:02:01
376,-244,-336,-366,-81,-173,555,-1152,-91,0:02:01
376,-244,-336,-620,417,-7,555,-1152,-91,0:02:01
369,-252,-324,-978,847,113,656,-1270,-232,0:02:01
352,-249,-358,-1320,1030,219,443,-1291,-268,0:02:01
352,-249,-358,-1393,1108,301,-151,-1310,-40,0:02:01
372,-225,-408,-1327,789,268,-110,-1364,66,0:02:01
361,-228,-421,-1293,287,254,-110,-1364,66,0:02:01
388,-222,-432,-1262,36,207,-98,-1360,79,0:02:01
360,-207,-478,-1306,-98,79,-93,-1182,45,0:02:01
361,-202,-492,-1087,213,81,-59,-1025,90,0:02:01
385,-192,-499,-1057,747,226,73,-941,-71,0:02:01
366,-178,-505,-1076,1071,237,243,-1008,-26,0:02:01
375,-157,-550,-961,1465,103,219,-987,91,0:02:01
393,-157,-565,-751,1460,-11,65,-760,67,0:02:01
423,-147,-588,-538,1244,51,-22,-656,195,0:02:01
436,-136,-586,-288,1106,114,-26,-748,249,0:02:01
436,-136,-586,-113,1111,49,-47,-750,187,0:02:01
448,-136,-607,70,905,-32,-117,-633,143,0:02:01
460,-133,-619,334,451,-37,-181,-519,181,0:02:01
459,-136,-636,528,154,-18,-172,-484,229,0:02:01
453,-162,-625,565,73,-5,-118,-519,252,0:02:01
463,-124,-603,625,95,10,-68,-560,323,0:02:01
460,-150,-606,739,112,19,36,-623,508,0:02:01
462,-168,-610,721,59,88,36,-623,508,0:02:01
475,-172,-583,559,77,193,106,-792,611,0:02:01
466,-183,-579,269,122,271,174,-1049,744,0:02:01
462,-162,-592,-79,109,249,171,-1228,774,0:02:01
451,-154,-588,-46,-112,275,54,-1281,706,0:02:01
457,-183,-574,216,97,171,-25,-1301,670,0:02:01
450,-201,-574,206,718,-66,-26,-986,630,0:02:01
450,-201,-574,141,915,-98,-78,-447,619,0:02:01
459,-184,-580,-56,417,133,-149,-337,570,0:02:01
483,-177,-600,274,-723,151,-247,-926,294,0:02:01
468,-184,-588,75,-357,102,-301,-1685,-118,0:02:01
462,-172,-580,161,-364,95,157,-1934,91,0:02:01
451,-193,-585,-372,-379,-306,62,-1003,78,0:02:02
453,-177,-579,-442,-197,-252,-231,-343,-181,0:02:02
442,-196,-582,317,-1128,39,145,-617,-88,0:02:02
456,-183,-570,802,-1162,229,236,-771,-209,0:02:02
415,-195,-561,719,-730,464,353,-1201,-236,0:02:02
400,-189,-540,284,-1000,349,-55,-962,449,0:02:02
390,-195,-538,183,-1189,84,-55,-962,449,0:02:02
402,-193,-547,477,-1253,36,-129,-689,213,0:02:02
358,-192,-496,704,-1126,154,181,-762,-97,0:02:02
340,-195,-493,690,-966,163,366,-867,-93,0:02:02
340,-195,-493,667,-673,105,370,-803,-44,0:02:02
351,-205,-484,662,-412,41,323,-772,-17,0:02:02
334,-232,-475,563,-375,-35,312,-836,-26,0:02:02
346,-213,-439,492,-383,-89,296,-883,6,0:02:02
343,-207,-453,512,-352,-132,221,-846,47,0:02:02
327,-217,-450,557,-312,-181,154,-805,56,0:02:02
361,-228,-430,580,-260,-228,151,-796,92,0:02:02
337,-220,-424,610,-254,-252,186,-803,116,0:02:02
349,-234,-414,617,-291,-273,197,-838,117,0:02:02
336,-231,-403,590,-301,-287,179,-931,130,0:02:02
342,-246,-381,518,-315,-292,202,-1021,144,0:02:02
342,-246,-381,420,-347,-262,275,-1044,132,0:02:02
336,-252,-366,268,-401,-219,299,-1076,157,0:02:02
339,-261,-346,142,-329,-191,321,-1058,120,0:02:02
346,-267,-367,81,-216,-173,321,-1058,120,0:02:02
343,-249,-343,-67,-224,-163,317,-1050,128,0:02:02
345,-258,-361,-297,-182,-93,341,-1153,183,0:02:02
348,-235,-361,-522,112,0,377,-1210,55,0:02:02
346,-238,-378,-857,483,76,447,-1222,-129,0:02:02
343,-238,-385,-1310,619,131,404,-1313,-193,0:02:02
345,-232,-394,-1418,823,215,94,-1348,-185,0:02:02
354,-214,-441,-1307,781,248,-94,-1297,-132,0:02:02
352,-217,-457,-1314,270,273,-108,-1310,20,0:02:02
363,-210,-463,-1215,-88,214,-84,-1379,135,0:02:02
349,-175,-514,-1297,-99,123,-37,-1272,88,0:02:02
351,-183,-507,-1348,163,8,-2,-1100,82,0:02:02
354,-178,-498,-1133,716,11,106,-1045,21,0:02:02
354,-178,-498,-1097,940,112,264,-1085,-64,0:02:02
345,-157,-513,-1078,1149,92,243,-1074,55,0:02:02
360,-144,-552,-891,1336,-53,-69,-708,114,0:02:02
382,-117,-586,-723,1251,-135,-48,-726,172,0:02:02
390,-102,-583,-490,944,7,-48,-726,172,0:02:02
390,-102,-583,-261,828,58,-3,-806,197,0:02:02
412,-109,-624,-9,750,7,-78,-676,162,0:02:02
442,-102,-634,284,489,-7,-158,-514,144,0:02:02
432,-87,-616,548,188,17,-138,-477,198,0:02:02
450,-105,-609,653,54,47,-88,-478,259,0:02:02
418,-117,-609,620,97,56,-41,-504,328,0:02:02
447,-99,-595,662,205,44,16,-529,415,0:02:02
435,-124,-586,721,262,76,58,-520,466,0:02:02
435,-133,-607,674,294,168,97,-611,514,0:02:02
442,-133,-576,527,400,261,129,-835,636,0:02:03
429,-132,-592,90,346,280,132,-1077,775,0:02:03
438,-135,-580,-68,-194,385,131,-1316,889,0:02:03
436,-135,-589,179,-112,269,1,-1360,740,0:02:03
430,-132,-589,6,772,-27,-138,-1082,556,0:02:03
432,-112,-591,-264,1078,-181,-194,-574,584,0:02:03
432,-112,-591,-136,128,-107,-336,-1395,141,0:02:03
436,-115,-594,-82,-160,-187,-136,-1993,95,0:02:03
462,-129,-577,-176,-176,97,-136,-1993,95,0:02:03
450,-111,-589,-161,-455,-121,33,-1173,64,0:02:03
448,-109,-585,-499,-158,-201,-96,-449,-71,0:02:03
444,-111,-586,138,-747,56,48,-633,15,0:02:03
435,-112,-592,641,-1310,121,231,-754,-39,0:02:03
430,-112,-576,666,-635,270,272,-1104,-184,0:02:03
420,-117,-555,538,-497,347,368,-1399,-133,0:02:03
412,-111,-552,216,-896,170,115,-1120,284,0:02:03
411,-118,-540,191,-1110,75,-227,-746,400,0:02:03
364,-124,-520,466,-1302,117,-166,-708,130,0:02:03
373,-106,-517,632,-1347,238,145,-859,-66,0:02:03
369,-124,-507,640,-1237,252,351,-929,-77,0:02:03
369,-124,-507,697,-978,196,324,-840,3,0:02:03
355,-120,-492,657,-654,81,255,-740,28,0:02:03
340,-127,-483,553,-536,-49,280,-747,-35,0:02:03
354,-145,-463,466,-487,-132,283,-799,-11,0:02:03
348,-129,-472,466,-443,-165,226,-854,100,0:02:03
331,-126,-442,513,-453,-192,208,-833,96,0:02:03
322,-130,-453,581,-428,-225,208,-833,96,0:02:03
333,-153,-420,665,-373,-278,192,-822,62,0:02:03
330,-166,-429,701,-338,-343,147,-810,74,0:02:03
339,-166,-408,663,-349,-385,125,-843,137,0:02:03
342,-163,-408,588,-372,-385,184,-916,168,0:02:03
337,-163,-394,499,-393,-321,280,-965,129,0:02:03
345,-172,-370,348,-401,-247,325,-1015,119,0:02:03
340,-174,-349,254,-284,-178,351,-1070,123,0:02:03
330,-181,-355,189,-179,-174,328,-1090,139,0:02:03
330,-181,-355,21,-247,-179,250,-1136,216,0:02:03
334,-177,-352,-220,-233,-178,262,-1168,272,0:02:03
351,-180,-348,-389,30,-97,377,-1129,117,0:02:03
342,-171,-360,-679,466,-1,529,-1185,-87,0:02:03
358,-157,-349,-1173,669,77,549,-1279,-194,0:02:03
348,-159,-375,-1376,817,235,221,-1341,-233,0:02:03
364,-156,-399,-1255,876,334,-161,-1347,-30,0:02:03
349,-157,-429,-1290,367,401,-120,-1444,166,0:02:03
346,-142,-457,-1157,-181,389,-120,-1444,166,0:02:03
343,-124,-448,-1324,-310,249,-80,-1407,144,0:02:03
336,-112,-474,-1367,-212,127,-63,-1173,92,0:02:03
324,-121,-468,-1048,293,56,53,-1016,39,0:02:03
327,-106,-483,-1110,933,172,238,-974,-194,0:02:03
343,-100,-513,-1111,1378,138,308,-1033,-95,0:02:03
334,-81,-514,-931,1682,-84,167,-937,38,0:02:03
334,-81,-514,-726,1352,-111,-8,-737,80,0:02:04
364,-67,-561,-547,1054,-3,-49,-728,244,0:02:04
381,-54,-583,-376,1044,42,-55,-772,231,0:02:04
378,-37,-576,-193,997,-20,-101,-713,150,0:02:04
415,-46,-595,65,743,-75,-175,-554,129,0:02:04
429,-61,-589,449,362,-46,-174,-476,151,0:02:04
423,-64,-583,706,45,8,-119,-464,183,0:02:04
432,-67,-588,732,-36,55,-74,-468,256,0:02:04
403,-72,-582,709,60,84,-9,-524,353,0:02:04
424,-45,-591,751,140,86,93,-607,532,0:02:04
427,-84,-589,677,173,141,130,-838,683,0:02:04
438,-66,-580,536,259,263,130,-838,683,0:02:04
417,-85,-556,227,318,310,143,-1065,785,0:02:04
442,-76,-568,-133,-9,364,148,-1279,836,0:02:04
421,-73,-565,99,-301,359,18,-1453,812,0:02:04
429,-58,-576,28,436,87,-117,-1332,673,0:02:04
429,-58,-576,-222,1169,-126,-142,-846,662,0:02:04
451,-91,-594,-284,616,0,-159,-596,702,0:02:04
429,-66,-568,163,-827,63,-144,-1144,437,0:02:04
445,-69,-574,-85,-233,67,-138,-1815,-125,0:02:04
441,-67,-571,-55,-261,-69,12,-1489,12,0:02:04
444,-63,-571,-569,32,-219,-55,-720,145,0:02:04
442,-58,-585,-126,-476,112,-99,-617,55,0:02:04
445,-54,-594,672,-1811,263,161,-775,167,0:02:04
415,-48,-579,659,-1185,351,292,-1024,-271,0:02:04
405,-57,-559,437,-610,371,308,-1332,-279,0:02:04
400,-69,-544,122,-945,144,63,-1127,296,0:02:04
400,-58,-538,83,-1092,-23,-67,-779,212,0:02:04
375,-64,-546,375,-1368,72,-67,-779,212,0:02:04
366,-69,-522,692,-1359,210,260,-800,-92,0:02:04
370,-67,-511,788,-1194,251,408,-810,-198,0:02:04
363,-84,-484,798,-903,146,360,-829,-87,0:02:04
363,-84,-484,798,-616,35,267,-765,15,0:02:04
354,-78,-451,646,-483,-104,223,-790,73,0:02:04
349,-78,-477,480,-489,-187,193,-871,84,0:02:04
360,-84,-451,485,-495,-226,178,-895,86,0:02:04
361,-75,-433,552,-465,-257,168,-846,60,0:02:04
345,-109,-445,632,-441,-299,179,-799,36,0:02:04
355,-97,-421,701,-411,-357,210,-794,63,0:02:04
342,-102,-430,704,-387,-389,226,-818,61,0:02:04
348,-112,-429,626,-415,-394,230,-887,115,0:02:04
367,-139,-393,512,-419,-355,258,-956,156,0:02:04
369,-120,-397,398,-432,-268,306,-968,124,0:02:04
361,-124,-391,281,-425,-200,360,-999,108,0:02:04
367,-124,-378,176,-298,-159,412,-1061,128,0:02:04
343,-132,-384,54,-266,-151,237,-1197,308,0:02:04
379,-127,-369,-211,-350,-173,237,-1197,308,0:02:04
382,-132,-379,-409,-170,-33,297,-1204,189,0:02:04
366,-138,-370,-672,324,87,453,-1195,-68,0:02:04
366,-138,-370,-1081,616,116,616,-1246,-198,0:02:04
358,-133,-402,-1418,735,179,381,-1298,-218,0:02:04
379,-127,-394,-1446,835,209,-111,-1358,-138,0:02:05
361,-129,-405,-1381,339,240,-254,-1425,9,0:02:05
354,-99,-418,-1348,162,161,-186,-1494,133,0:02:05
363,-111,-441,-1306,237,4,-106,-1446,68,0:02:05
381,-103,-466,-1289,438,-200,-79,-1181,4,0:02:05
381,-105,-460,-1349,777,-230,-17,-994,25,0:02:05
372,-79,-478,-1233,832,-103,155,-1071,62,0:02:05
396,-78,-502,-1194,805,-73,241,-1107,116,0:02:05
394,-82,-513,-1012,1099,-224,54,-944,158,0:02:05
406,-64,-534,-713,1013,-214,-174,-676,131,0:02:05
423,-45,-550,-504,830,-99,-141,-666,143,0:02:05
412,-45,-549,-263,704,-61,-65,-558,102,0:02:05
423,-45,-559,54,542,-87,-65,-558,102,0:02:05
439,-46,-544,341,377,-111,-108,-428,158,0:02:05
439,-46,-544,605,160,-67,-113,-399,204,0:02:05
433,-54,-576,674,11,6,-88,-449,263,0:02:05
420,-63,-544,693,-28,54,-61,-516,357,0:02:05
436,-64,-537,774,-33,109,-52,-514,461,0:02:05
435,-84,-537,721,49,161,2,-556,576,0:02:05
432,-88,-513,539,241,228,87,-739,714,0:02:05
444,-85,-528,340,427,249,115,-932,819,0:02:05
450,-93,-526,-49,33,279,138,-1206,882,0:02:05
442,-82,-517,116,-456,392,80,-1597,870,0:02:05
453,-79,-528,-10,444,176,-60,-1545,695,0:02:05
439,-97,-525,-320,1213,-184,-221,-873,689,0:02:05
438,-81,-525,-273,346,-156,-357,-435,706,0:02:05
444,-85,-537,-189,-46,-250,-311,-1010,64,0:02:05
439,-84,-520,-226,-66,-86,-232,-1797,-162,0:02:05
462,-70,-540,-63,-582,-207,127,-1417,77,0:02:05
459,-70,-516,-353,-195,-233,-65,-804,29,0:02:05
466,-73,-525,236,-619,-33,-65,-804,29,0:02:05
466,-73,-525,590,-1211,117,20,-835,69,0:02:05
450,-81,-523,695,-903,385,208,-1045,-78,0:02:05
424,-57,-523,661,-795,455,314,-1230,-143,0:02:05
402,-79,-496,303,-1157,172,70,-1034,185,0:02:05
406,-97,-468,303,-1249,29,-240,-745,366,0:02:05
393,-94,-486,482,-1157,22,-141,-694,128,0:02:05
354,-102,-444,731,-1097,154,200,-845,-75,0:02:05
366,-102,-454,805,-1015,214,380,-906,-103,0:02:05
381,-91,-430,776,-827,158,348,-789,-10,0:02:05
361,-85,-411,677,-579,46,241,-712,101,0:02:05
363,-97,-406,591,-487,-58,219,-779,58,0:02:05
375,-90,-381,562,-440,-135,264,-841,29,0:02:05
352,-117,-384,616,-326,-190,260,-817,22,0:02:05
358,-115,-393,672,-249,-238,229,-784,44,0:02:05
358,-115,-393,717,-228,-289,217,-797,102,0:02:05
370,-118,-372,740,-247,-334,174,-893,118,0:02:05
367,-118,-370,683,-275,-382,142,-933,134,0:02:05
385,-136,-340,577,-301,-404,142,-933,134,0:02:05
385,-136,-340,487,-317,-333,201,-1021,128,0:02:05
382,-132,-355,354,-321,-242,276,-1085,114,0:02:05
385,-132,-328,236,-205,-172,312,-1075,116,0:02:06
364,-118,-324,122,-93,-154,355,-1057,133,0:02:06
382,-139,-337,-74,-53,-156,352,-1146,184,0:02:06
384,-148,-334,-268,74,-14,383,-1321,175,0:02:06
387,-121,-333,-478,359,46,521,-1384,18,0:02:06
391,-141,-345,-926,678,35,502,-1338,-145,0:02:06
397,-138,-361,-1323,848,68,238,-1336,-162,0:02:06
397,-127,-375,-1290,1201,105,-13,-1248,-186,0:02:06
373,-123,-411,-1182,1038,165,-112,-1134,-156,0:02:06
399,-138,-417,-1148,640,227,-72,-1191,18,0:02:06
405,-117,-448,-1120,355,194,-6,-1242,52,0:02:06
396,-106,-459,-1263,154,28,-9,-1175,59,0:02:06
400,-103,-466,-1252,286,-121,-74,-1101,103,0:02:06
400,-103,-466,-1212,626,35,40,-1125,15,0:02:06
385,-100,-456,-1216,918,155,245,-1172,-35,0:02:06
402,-84,-495,-1150,1088,114,197,-1034,53,0:02:06
417,-81,-505,-935,1052,32,37,-843,140,0:02:06
412,-51,-517,-690,1033,49,-60,-759,165,0:02:06
394,-61,-532,-390,1026,169,-2,-822,86,0:02:06
433,-63,-540,-111,983,175,23,-810,64,0:02:06
451,-52,-558,158,809,86,-89,-567,121,0:02:06
427,-52,-547,394,527,39,-135,-400,159,0:02:06
447,-61,-561,499,284,88,-95,-410,244,0:02:06
445,-60,-549,539,198,146,-61,-486,303,0:02:06
447,-75,-546,665,229,137,-69,-495,360,0:02:06
451,-70,-555,746,330,95,-52,-451,407,0:02:06
453,-76,-550,656,422,117,-1,-537,508,0:02:06
456,-88,-546,418,515,189,74,-792,657,0:02:06
469,-88,-538,21,395,257,179,-1096,761,0:02:06
448,-82,-549,-94,-57,356,168,-1355,826,0:02:06
457,-73,-553,95,80,272,23,-1383,757,0:02:06
457,-73,-553,-128,917,35,-78,-1071,670,0:02:06
445,-70,-546,-567,1147,18,-134,-661,671,0:02:06
469,-69,-556,4,-490,126,-99,-922,530,0:02:06
492,-81,-562,-49,-114,53,-114,-1673,9,0:02:06
469,-61,-555,-53,-21,-255,-133,-1468,-56,0:02:06
481,-55,-574,-699,235,-304,-248,-765,135,0:02:06
475,-75,-558,-57,-555,119,-113,-802,187,0:02:06
481,-37,-558,716,-1617,203,46,-923,226,0:02:06
480,-52,-559,591,-949,270,104,-1034,-167,0:02:06
442,-60,-553,527,-538,409,376,-1349,-236,0:02:06
456,-69,-541,356,-844,268,216,-1192,174,0:02:06
445,-76,-529,221,-1001,57,-124,-813,369,0:02:06
432,-64,-532,428,-1183,80,-158,-713,210,0:02:06
421,-61,-534,618,-1131,177,20,-761,40,0:02:06
418,-60,-507,802,-966,289,283,-844,-109,0:02:06
402,-72,-511,805,-921,230,361,-828,-132,0:02:06
366,-79,-468,758,-560,89,229,-750,45,0:02:06
382,-81,-471,689,-462,-12,211,-826,91,0:02:06
381,-102,-465,632,-419,-109,211,-826,91,0:02:06
381,-102,-465,609,-414,-175,210,-843,81,0:02:07
366,-81,-441,620,-445,-232,201,-838,58,0:02:07
363,-90,-442,671,-410,-282,185,-809,75,0:02:07
357,-97,-445,728,-380,-340,206,-795,53,0:02:07
384,-105,-441,762,-351,-397,231,-818,61,0:02:07
384,-115,-424,674,-376,-410,211,-886,145,0:02:07
393,-123,-424,552,-389,-370,192,-929,211,0:02:07
399,-130,-432,417,-431,-275,245,-963,173,0:02:07
393,-133,-405,263,-415,-167,317,-1000,127,0:02:07
394,-129,-427,198,-249,-119,406,-1033,107,0:02:07
397,-132,-397,107,-175,-120,383,-1070,144,0:02:07
384,-136,-421,-175,-224,-140,258,-1194,289,0:02:07
391,-141,-430,-285,9,44,337,-1314,191,0:02:07
405,-138,-397,-478,372,68,489,-1249,-59,0:02:07
402,-126,-424,-929,674,70,520,-1202,-202,0:02:07
406,-135,-438,-1309,891,84,281,-1278,-262,0:02:07
390,-126,-429,-1397,1117,105,-170,-1303,-110,0:02:07
417,-112,-468,-1313,814,189,-170,-1303,-110,0:02:07
418,-90,-490,-1160,399,247,-112,-1379,75,0:02:07
418,-90,-490,-1148,116,141,-16,-1364,35,0:02:07
399,-97,-475,-1249,-157,-20,-58,-1183,71,0:02:07
432,-103,-520,-1209,193,-85,-123,-1052,169,0:02:07
406,-67,-517,-1067,681,49,99,-1092,-20,0:02:07
427,-51,-541,-1232,1178,62,317,-1121,-88,0:02:07
435,-60,-564,-1060,1258,-51,216,-969,80,0:02:07
462,-36,-571,-860,1113,-133,17,-749,172,0:02:07
459,-40,-577,-555,893,-6,-5,-692,179,0:02:07
471,-60,-576,-380,883,93,34,-762,139,0:02:07
478,-13,-597,-187,847,72,-46,-726,125,0:02:07
505,-30,-607,58,738,-14,-151,-566,158,0:02:07
501,-31,-600,349,524,-30,-196,-459,180,0:02:07
511,-28,-586,571,253,30,-142,-473,206,0:02:07
511,-28,-586,637,146,70,-81,-524,272,0:02:07
514,-42,-582,698,177,88,0,-541,445,0:02:07
514,-42,-582,721,216,128,29,-640,587,0:02:07
513,-48,-601,625,308,172,29,-640,587,0:02:07
499,-51,-591,407,385,237,66,-879,762,0:02:07
523,-69,-591,67,368,257,140,-1100,858,0:02:07
550,-78,-582,-86,11,317,165,-1228,831,0:02:07
522,-61,-576,23,56,254,-2,-1259,694,0:02:07
514,-85,-580,-224,841,1,-151,-1114,566,0:02:07
529,-69,-591,-360,756,-72,-235,-954,560,0:02:07
543,-57,-565,9,-248,-36,-236,-1297,430,0:02:07
547,-54,-561,-221,-133,-27,-157,-1629,166,0:02:07
543,-67,-591,-282,-212,-113,-180,-1112,152,0:02:07
544,-58,-565,-385,-308,-143,-186,-580,18,0:02:07
544,-58,-565,125,-748,72,13,-685,-105,0:02:07
540,-45,-591,523,-1339,86,213,-868,-15,0:02:07
519,-55,-600,449,-702,161,309,-1124,-144,0:02:07
508,-60,-573,459,-454,308,330,-1357,-113,0:02:07
496,-69,-553,391,-810,277,140,-1122,213,0:02:07
492,-66,-568,287,-1008,128,-133,-743,223,0:02:08
456,-66,-561,338,-1072,126,-133,-915,223,0:02:08
459,-72,-555,417,-1098,177,52,-909,131,0:02:08
460,-76,-562,762,-1173,347,264,-978,53,0:02:08
442,-73,-535,868,-974,291,351,-866,-47,0:02:08
429,-103,-535,836,-697,163,305,-765,-40,0:02:08
396,-100,-498,702,-513,9,237,-773,79,0:02:08
390,-111,-498,625,-470,-114,181,-797,130,0:02:08
388,-120,-477,606,-429,-182,177,-803,78,0:02:08
387,-117,-484,621,-454,-214,214,-813,27,0:02:08
387,-117,-484,652,-402,-259,205,-809,61,0:02:08
394,-117,-460,708,-371,-322,189,-807,55,0:02:08
396,-130,-460,764,-354,-382,202,-807,60,0:02:08
396,-147,-454,701,-386,-414,202,-843,126,0:02:08
396,-144,-427,560,-411,-400,209,-911,186,0:02:08
372,-150,-418,429,-429,-328,254,-949,126,0:02:08
394,-157,-432,261,-448,-223,280,-978,69,0:02:08
381,-154,-417,188,-271,-154,370,-1029,104,0:02:08
394,-159,-420,151,-133,-159,282,-1077,197,0:02:08
381,-193,-409,0,-193,-144,282,-1077,197,0:02:08
403,-180,-397,-240,-215,-88,256,-1189,292,0:02:08
393,-184,-391,-380,87,40,396,-1203,99,0:02:08
408,-169,-402,-658,483,51,569,-1207,-100,0:02:08
397,-160,-408,-1115,658,59,566,-1287,-172,0:02:08
400,-169,-442,-1336,887,149,201,-1363,-203,0:02:08
370,-148,-453,-1281,1026,182,-185,-1290,-153,0:02:08
370,-148,-453,-1316,487,283,-218,-1254,-12,0:02:08
405,-141,-477,-1262,72,296,-91,-1353,152,0:02:08
403,-121,-505,-1260,-21,164,12,-1326,65,0:02:08
411,-115,-516,-1276,8,14,1,-1146,9,0:02:08
391,-100,-510,-1166,287,-20,-32,-1065,72,0:02:08
387,-91,-535,-1110,655,81,122,-1111,-14,0:02:08
403,-73,-541,-1076,838,168,288,-1153,-10,0:02:08
415,-72,-556,-947,1090,86,167,-1041,115,0:02:08
409,-87,-564,-835,1318,-87,0,-845,152,0:02:08
423,-61,-580,-504,1080,-7,-59,-735,259,0:02:08
420,-57,-594,-348,905,47,-59,-735,259,0:02:08
435,-52,-585,-162,770,-16,-20,-748,182,0:02:08
453,-45,-588,71,623,-74,-102,-597,202,0:02:08
456,-49,-597,309,419,-87,-145,-507,209,0:02:08
468,-51,-571,527,177,-26,-128,-503,218,0:02:08
468,-51,-571,613,54,39,-88,-531,252,0:02:08
436,-69,-573,675,87,63,-61,-516,312,0:02:08
468,-72,-577,773,180,66,-16,-480,419,0:02:08
468,-79,-571,766,267,114,50,-519,501,0:02:08
456,-81,-568,634,335,212,132,-719,564,0:02:08
466,-76,-565,323,287,294,205,-1016,666,0:02:08
481,-96,-555,-89,-28,399,230,-1276,748,0:02:08
466,-96,-544,79,-212,475,110,-1403,747,0:02:08
471,-96,-561,74,413,200,-47,-1249,677,0:02:08
454,-96,-571,-245,1060,-157,-114,-801,671,0:02:09
448,-97,-555,-481,832,-170,-152,-512,621,0:02:09
478,-96,-580,-15,-82,-67,-127,-943,272,0:02:09
469,-96,-567,-331,247,-46,149,-1876,388,0:02:09
475,-112,-561,-47,61,49,149,-1876,388,0:02:09
475,-78,-571,-194,14,-271,94,-992,201,0:02:09
477,-90,-577,-219,341,-269,-160,-343,-246,0:02:09
484,-96,-579,266,-445,-19,139,-626,88,0:02:09
484,-96,-579,537,-749,184,298,-968,-6,0:02:09
480,-129,-579,582,-324,379,279,-1256,-235,0:02:09
475,-87,-580,354,-464,387,132,-1261,44,0:02:09
466,-111,-564,195,-814,291,-71,-1035,480,0:02:09
457,-105,-541,220,-972,181,-153,-866,403,0:02:09
457,-105,-541,240,-1026,137,-1,-874,124,0:02:09
441,-120,-544,353,-994,157,189,-946,-20,0:02:09
411,-123,-522,502,-922,199,280,-913,-48,0:02:09
399,-130,-520,552,-704,170,269,-842,30,0:02:09
388,-147,-520,526,-501,96,216,-820,70,0:02:09
393,-139,-528,469,-432,18,203,-847,63,0:02:09
387,-150,-504,430,-354,-28,203,-875,55,0:02:09
409,-141,-486,401,-317,-65,169,-858,109,0:02:09
360,-145,-490,394,-333,-96,185,-863,123,0:02:09
379,-165,-481,375,-338,-134,185,-863,123,0:02:09
379,-154,-474,403,-340,-162,178,-866,117,0:02:09
373,-166,-457,439,-357,-192,124,-868,124,0:02:09
373,-166,-457,427,-404,-207,113,-887,139,0:02:09
387,-174,-456,414,-441,-229,128,-906,156,0:02:09
367,-186,-460,411,-454,-248,162,-917,136,0:02:09
369,-177,-450,399,-430,-235,207,-944,115,0:02:09
373,-189,-439,355,-416,-196,243,-971,110,0:02:09
379,-181,-418,294,-397,-154,262,-984,101,0:02:09
360,-186,-420,237,-307,-133,282,-1001,97,0:02:09
372,-207,-409,179,-170,-114,335,-1006,97,0:02:09
376,-204,-414,109,-149,-89,361,-1004,136,0:02:09
372,-211,-396,51,-223,-108,302,-1018,231,0:02:09
370,-213,-406,-43,-227,-164,243,-992,257,0:02:09
381,-213,-399,-126,-16,-133,281,-966,113,0:02:09
367,-232,-403,-260,319,-46,386,-1054,-53,0:02:09
397,-231,-414,-461,651,-28,211,-1246,-154,0:02:09
387,-237,-432,-710,696,13,211,-1246,-154,0:02:09
387,-237,-432,-885,630,93,-18,-1275,-102,0:02:09
387,-213,-463,-880,541,165,-125,-1296,-121,0:02:09
387,-213,-463,-890,298,177,-142,-1250,-99,0:02:09
411,-193,-465,-919,23,112,-115,-1184,4,0:02:09
376,-192,-496,-870,-125,44,-91,-1119,24,0:02:09
396,-195,-483,-980,70,-84,-84,-1037,-55,0:02:09
382,-196,-498,-826,282,-228,-91,-1010,-59,0:02:09
391,-196,-517,-662,466,-275,-58,-998,-67,0:02:09
388,-184,-529,-604,514,-229,15,-986,-64,0:02:09
409,-184,-544,-599,454,-151,35,-987,60,0:02:09
433,-181,-550,-399,169,-81,20,-955,176,0:02:09
423,-165,-562,-220,87,-56,-12,-926,181,0:02:10
420,-175,-580,-81,254,-75,-74,-920,116,0:02:10
421,-171,-567,56,353,-82,-136,-894,99,0:02:10
424,-163,-544,285,249,-93,-159,-831,153,0:02:10
433,-187,-549,469,114,-111,-151,-762,231,0:02:10
450,-183,-535,483,25,-95,-89,-764,321,0:02:10
450,-183,-535,407,-42,-39,28,-834,416,0:02:10
415,-195,-553,286,-28,32,115,-864,402,0:02:10
423,-202,-547,223,64,93,123,-847,301,0:02:10
420,-181,-519,296,126,123,94,-825,214,0:02:10
424,-208,-511,311,127,107,32,-809,176,0:02:10
418,-199,-529,235,49,75,-27,-798,233,0:02:10
429,-214,-531,228,7,35,-32,-757,294,0:02:10
426,-202,-531,318,-54,7,-16,-742,214,0:02:10
432,-195,-520,351,0,37,-25,-888,72,0:02:10
408,-196,-516,338,-30,95,-19,-1212,79,0:02:10
433,-201,-523,298,-143,147,-6,-1402,228,0:02:10
408,-213,-507,191,-286,147,13,-1276,285,0:02:10
408,-213,-507,203,-315,79,51,-1055,153,0:02:10
412,-220,-499,198,-82,-48,52,-887,-3,0:02:10
417,-216,-507,182,210,-105,36,-821,-16,0:02:10
415,-211,-483,265,190,-32,54,-853,66,0:02:10
417,-210,-496,358,13,35,129,-945,121,0:02:10
418,-216,-481,361,-96,61,107,-982,70,0:02:10
421,-235,-478,333,-102,83,107,-982,70,0:02:10
408,-234,-480,284,-61,74,95,-1025,59,0:02:10
406,-238,-490,237,-3,37,86,-1032,49,0:02:10
399,-244,-454,184,81,-2,66,-1016,24,0:02:10
408,-252,-469,123,112,-14,51,-1004,23,0:02:10
424,-246,-483,84,79,10,68,-1000,50,0:02:10
391,-255,-459,62,139,28,93,-973,36,0:02:10
418,-237,-478,49,227,27,95,-941,-43,0:02:10
396,-252,-478,56,282,32,107,-944,-52,0:02:10
396,-252,-478,107,208,80,150,-969,-7,0:02:10
414,-235,-457,161,112,123,180,-976,12,0:02:10
418,-235,-462,144,52,110,170,-959,27,0:02:10
406,-226,-462,111,36,51,138,-941,35,0:02:10
406,-226,-462,126,49,-5,119,-955,64,0:02:10
412,-232,-463,159,107,-18,149,-1017,61,0:02:10
409,-234,-468,119,70,-31,141,-1049,120,0:02:10
411,-231,-453,60,17,-65,78,-998,131,0:02:10
420,-243,-457,13,63,-120,78,-998,131,0:02:10
418,-241,-459,-27,130,-168,79,-956,95,0:02:10
414,-244,-463,-3,154,-148,134,-954,85,0:02:10
424,-243,-465,92,171,-70,169,-992,56,0:02:10
415,-231,-460,84,37,-26,158,-1009,62,0:02:10
429,-258,-475,46,-79,-18,110,-998,114,0:02:10
418,-246,-459,47,-51,-39,88,-1011,69,0:02:10
411,-250,-445,31,-57,-60,74,-1034,33,0:02:10
433,-250,-462,18,-93,-60,37,-1015,47,0:02:10
427,-253,-465,5,-90,-63,28,-973,6,0:02:10
427,-253,-465,2,-59,-70,35,-938,-40,0:02:11
414,-243,-430,10,-59,-67,50,-932,-29,0:02:11
423,-252,-462,8,-67,-67,57,-951,24,0:02:11
418,-238,-457,4,-116,-58,48,-962,67,0:02:11
411,-250,-450,-2,-166,-44,45,-972,77,0:02:11
417,-243,-454,-10,-180,-29,46,-993,61,0:02:11
438,-243,-436,-11,-153,-24,53,-1003,36,0:02:11
433,-238,-453,-16,-124,-32,59,-993,40,0:02:11
435,-250,-435,-17,-107,-45,59,-993,40,0:02:11
444,-246,-439,-16,-102,-51,59,-982,41,0:02:11
426,-244,-462,-12,-107,-46,59,-975,40,0:02:11
432,-256,-462,-11,-112,-39,57,-978,39,0:02:11
436,-256,-438,-6,-105,-35,55,-977,33,0:02:11
427,-247,-453,0,-85,-42,49,-971,26,0:02:11
417,-267,-430,0,-70,-41,52,-968,31,0:02:11
417,-267,-430,-3,-75,-38,57,-975,35,0:02:11
415,-250,-469,-3,-83,-35,53,-982,41,0:02:11
423,-234,-451,-3,-81,-36,50,-984,47,0:02:11
414,-259,-448,-8,-69,-36,54,-983,48,0:02:11
438,-241,-454,-12,-51,-35,64,-982,51,0:02:11
412,-264,-444,-13,-44,-34,66,-985,55,0:02:11
423,-252,-456,-9,-39,-32,65,-984,59,0:02:11
424,-244,-451,-7,-36,-30,67,-979,59,0:02:11
429,-258,-453,-4,-31,-27,64,-976,56,0:02:11
411,-258,-454,-7,-23,-25,52,-978,60,0:02:11
409,-241,-447,-9,-28,-23,52,-978,60,0:02:11
433,-234,-450,-7,-30,-21,47,-978,62,0:02:11
441,-252,-441,-8,-29,-21,46,-981,57,0:02:11
426,-246,-451,-7,-25,-20,48,-983,56,0:02:11
420,-253,-441,-11,-26,-19,49,-982,56,0:02:11
420,-253,-441,-13,-28,-16,53,-977,56,0:02:11
432,-246,-445,-12,-25,-16,55,-975,57,0:02:11
439,-246,-441,-6,-23,-14,52,-974,56,0:02:11
430,-237,-442,0,-16,-13,50,-982,56,0:02:11
400,-240,-444,0,-23,-10,49,-984,60,0:02:11
415,-244,-435,4,-24,-8,53,-980,63,0:02:11
414,-238,-447,5,-16,-10,54,-979,57,0:02:11
418,-259,-456,2,-14,-9,55,-979,54,0:02:11
417,-237,-447,0,-17,-9,55,-979,57,0:02:11
418,-247,-445,-4,-11,-10,50,-979,58,0:02:11
436,-240,-441,-4,-7,-6,54,-981,56,0:02:11
409,-258,-450,-2,-5,-4,61,-983,52,0:02:11
403,-258,-460,-4,-4,-7,55,-980,52,0:02:11
406,-240,-459,0,-7,-9,55,-980,52,0:02:11
408,-241,-448,0,-3,-12,48,-980,49,0:02:11
408,-241,-448,0,-7,-11,45,-978,49,0:02:11
408,-253,-429,2,-16,-9,48,-975,54,0:02:11
417,-235,-448,0,-20,-9,49,-977,52,0:02:11
402,-247,-457,0,-12,-9,51,-983,48,0:02:11
418,-246,-430,-5,-10,-9,56,-982,48,0:02:11
409,-261,-450,-10,-7,-7,60,-976,50,0:02:11
406,-261,-444,-12,2,-7,60,-978,47,0:02:12
420,-247,-441,-12,11,-6,61,-982,48,0:02:12
426,-249,-459,-13,11,-6,59,-983,51,0:02:12
423,-249,-456,-11,11,-7,57,-985,53,0:02:12
418,-250,-432,-8,11,-11,53,-986,55,0:02:12
390,-243,-441,-8,11,-16,50,-982,56,0:02:12
390,-243,-441,-4,11,-18,52,-980,57,0:02:12
415,-231,-456,-2,9,-18,52,-978,55,0:02:12
414,-240,-441,1,3,-17,52,-983,62,0:02:12
414,-240,-441,0,-7,-14,61,-984,61,0:02:12
429,-252,-447,-4,-6,-13,61,-984,61,0:02:12
430,-235,-435,-4,0,-14,66,-985,60,0:02:12
414,-241,-459,-9,5,-16,62,-983,61,0:02:12
412,-256,-438,-9,2,-16,62,-979,60,0:02:12
402,-237,-454,-5,2,-18,59,-976,62,0:02:12
423,-262,-457,-7,-4,-14,56,-979,66,0:02:12
414,-268,-441,-5,-9,-11,62,-977,67,0:02:12
417,-250,-444,-5,-4,-11,66,-974,63,0:02:12
414,-258,-462,-6,0,-12,66,-975,63,0:02:12
429,-250,-448,-5,2,-15,65,-979,66,0:02:12
417,-225,-429,-10,6,-17,62,-978,68,0:02:12
417,-261,-439,-10,6,-16,62,-979,68,0:02:12
403,-249,-447,-9,6,-14,63,-981,65,0:02:12
421,-244,-418,-9,7,-15,65,-980,64,0:02:12
418,-241,-448,-9,4,-16,62,-982,65,0:02:12
418,-241,-448,-12,4,-17,57,-980,65,0:02:12
420,-234,-442,-13,5,-18,61,-978,63,0:02:12
418,-237,-471,-14,4,-18,61,-978,63,0:02:12
414,-238,-445,-16,3,-16,61,-981,65,0:02:12
426,-256,-454,-18,-1,-12,63,-985,68,0:02:12
415,-247,-468,-19,2,-11,62,-978,69,0:02:12
436,-243,-469,-23,8,-12,56,-973,64,0:02:12
411,-258,-457,-16,9,-13,57,-984,60,0:02:12
411,-231,-453,-15,13,-20,54,-997,65,0:02:12
418,-246,-465,-15,-11,-23,44,-989,76,0:02:12
424,-247,-447,-11,-13,-25,43,-976,71,0:02:12
429,-241,-444,-7,-7,-23,49,-976,63,0:02:12
417,-238,-462,-1,-11,-18,56,-976,71,0:02:12
424,-244,-453,0,-21,-14,63,-976,76,0:02:12
424,-244,-453,1,-24,-13,61,-978,78,0:02:12
430,-253,-459,1,-18,-14,55,-981,77,0:02:12
412,-256,-454,0,-16,-16,56,-984,80,0:02:12
415,-252,-456,-4,-12,-17,60,-981,83,0:02:12
406,-267,-463,-4,-9,-16,60,-979,83,0:02:12
427,-240,-456,-4,-11,-14,61,-979,80,0:02:12
424,-246,-454,-3,-8,-11,61,-979,80,0:02:12
430,-229,-466,-4,-10,-9,63,-979,77,0:02:12
424,-252,-441,-5,-7,-10,60,-980,77,0:02:12
426,-256,-450,-1,-3,-12,56,-978,76,0:02:12
438,-243,-444,-2,2,-14,54,-979,75,0:02:12
420,-247,-439,-2,-2,-11,54,-982,81,0:02:13
420,-231,-474,0,-9,-9,55,-979,82,0:02:13
409,-240,-456,0,-14,-10,54,-977,79,0:02:13
409,-240,-456,2,-16,-10,54,-977,80,0:02:13
426,-243,-465,2,-12,-10,56,-975,79,0:02:13
424,-250,-459,0,-7,-9,58,-977,78,0:02:13
420,-237,-433,-1,-6,-8,61,-980,77,0:02:13
430,-252,-462,-2,-7,-7,60,-978,77,0:02:13
432,-256,-462,-3,-6,-9,57,-978,78,0:02:13
421,-243,-444,-4,-2,-11,55,-980,79,0:02:13
417,-241,-450,-4,-2,-10,57,-981,77,0:02:13
423,-249,-454,-2,-2,-9,57,-973,71,0:02:13
420,-244,-448,0,-2,-9,57,-973,71,0:02:13
429,-247,-451,2,-2,-9,58,-974,71,0:02:13
411,-243,-463,2,-6,-9,53,-978,73,0:02:13
420,-229,-459,4,-7,-9,51,-982,73,0:02:13
415,-243,-456,2,-6,-11,55,-980,71,0:02:13
417,-246,-466,0,-4,-11,55,-981,72,0:02:13
417,-246,-466,0,-4,-9,56,-979,73,0:02:13
426,-234,-433,0,-3,-10,56,-977,75,0:02:13
435,-252,-465,0,-5,-10,57,-981,77,0:02:13
420,-235,-454,0,-7,-10,60,-986,76,0:02:13
432,-229,-469,1,-2,-9,62,-983,75,0:02:13
411,-256,-465,2,1,-11,60,-974,74,0:02:13
409,-241,-457,2,2,-9,58,-972,73,0:02:13
418,-240,-447,3,0,-7,59,-976,78,0:02:13
423,-258,-441,6,-2,-7,59,-977,80,0:02:13
418,-241,-453,4,-1,-8,55,-977,78,0:02:13
409,-249,-447,3,-2,-9,53,-978,78,0:02:13
400,-229,-457,2,0,-10,61,-980,76,0:02:13
400,-229,-457,4,-2,-8,61,-980,76,0:02:13
397,-237,-441,9,-3,-7,60,-976,78,0:02:13
420,-240,-456,9,-7,-7,60,-977,76,0:02:13
420,-237,-436,10,-8,-6,61,-979,79,0:02:13
402,-246,-442,7,-4,-7,61,-979,80,0:02:13
423,-237,-472,4,-2,-8,62,-980,79,0:02:13
423,-237,-468,4,-2,-7,63,-982,77,0:02:13
411,-247,-451,6,-6,-4,62,-980,77,0:02:13
424,-261,-448,4,0,-6,63,-978,76,0:02:13
418,-240,-463,2,3,-6,63,-979,78,0:02:13
412,-247,-457,0,3,-7,62,-977,82,0:02:13
436,-246,-447,-3,2,-7,59,-975,79,0:02:13
414,-247,-448,-3,2,-7,58,-975,76,0:02:13
414,-247,-448,-4,5,-7,60,-979,75,0:02:13
418,-250,-450,-7,4,-6,62,-980,78,0:02:13
402,-241,-441,-7,4,-4,64,-979,77,0:02:13
411,-255,-453,-6,4,-3,62,-978,79,0:02:13
411,-246,-468,-2,0,-4,66,-980,81,0:02:13
411,-246,-468,-1,-4,-3,66,-980,81,0:02:13
421,-229,-459,0,-4,-3,65,-981,83,0:02:13
415,-238,-462,2,-3,-4,66,-981,81,0:02:13
415,-246,-447,3,-4,-4,69,-978,78,0:02:14
424,-231,-451,4,-1,-6,67,-977,78,0:02:14
400,-240,-451,4,-2,-5,67,-977,78,0:02:14
414,-241,-468,6,-1,-4,69,-979,78,0:02:14
421,-238,-453,7,-4,-4,65,-980,79,0:02:14
423,-225,-456,6,-7,-4,63,-978,80,0:02:14
408,-249,-465,7,-4,-5,64,-976,81,0:02:14
408,-250,-439,5,-2,-4,65,-976,80,0:02:14
406,-244,-459,6,-4,-5,66,-977,78,0:02:14
417,-244,-453,7,-2,-9,67,-978,77,0:02:14
417,-244,-453,7,-6,-9,68,-980,79,0:02:14
426,-261,-459,9,-3,-9,69,-982,77,0:02:14
426,-225,-472,9,-2,-9,66,-975,75,0:02:14
412,-241,-457,9,-6,-8,68,-974,75,0:02:14
427,-247,-462,10,-3,-7,68,-974,75,0:02:14
421,-246,-447,10,0,-9,73,-977,75,0:02:14
417,-253,-447,9,4,-9,76,-980,76,0:02:14
426,-243,-450,9,9,-11,76,-980,77,0:02:14
424,-243,-457,9,14,-11,79,-977,76,0:02:14
420,-241,-457,9,18,-11,80,-977,76,0:02:14
414,-226,-454,8,17,-9,77,-980,74,0:02:14
406,-232,-462,7,14,-9,74,-981,73,0:02:14
411,-231,-454,3,12,-7,69,-978,72,0:02:14
418,-240,-466,2,11,-6,65,-978,72,0:02:14
418,-241,-460,0,11,-8,65,-980,69,0:02:14
418,-241,-460,-3,7,-7,67,-981,69,0:02:14
426,-252,-456,-2,3,-7,69,-980,75,0:02:14
418,-238,-450,-2,0,-8,69,-979,73,0:02:14
423,-243,-447,-2,0,-9,67,-975,72,0:02:14
418,-247,-441,1,4,-10,66,-977,73,0:02:14
411,-235,-460,3,2,-10,66,-978,75,0:02:14
421,-237,-457,7,-3,-10,67,-980,76,0:02:14
423,-226,-466,8,-4,-11,67,-980,76,0:02:14
409,-250,-459,7,-2,-12,70,-978,75,0:02:14
427,-250,-433,7,0,-11,71,-977,72,0:02:14
417,-246,-448,4,0,-9,70,-978,70,0:02:14
423,-241,-417,4,-2,-8,71,-979,71,0:02:14
415,-238,-462,4,0,-9,73,-980,72,0:02:14
418,-238,-453,2,-2,-9,72,-980,75,0:02:14
420,-235,-448,1,-3,-9,71,-976,74,0:02:14
420,-235,-448,0,-1,-9,69,-975,71,0:02:14
417,-252,-450,-1,0,-7,68,-979,69,0:02:14
418,-252,-460,-1,-2,-7,69,-980,68,0:02:14
412,-240,-448,-2,-5,-9,69,-977,71,0:02:14
405,-240,-465,-3,-5,-12,70,-977,73,0:02:14
417,-247,-442,-2,-8,-12,72,-977,73,0:02:14
411,-237,-448,2,-9,-12,72,-977,72,0:02:14
414,-243,-466,2,-8,-12,72,-978,70,0:02:14
417,-255,-460,4,-10,-14,69,-976,70,0:02:14
396,-256,-465,4,-7,-14,69,-976,70,0:02:14
417,-241,-477,4,-6,-14,71,-978,67,0:02:14
412,-255,-454,3,-6,-14,72,-979,70,0:02:15
409,-240,-459,2,-7,-14,71,-981,73,0:02:15
408,-255,-447,0,-5,-14,72,-980,74,0:02:15
421,-238,-469,0,-3,-13,74,-977,72,0:02:15
406,-249,-459,1,3,-13,72,-975,72,0:02:15
406,-249,-459,0,2,-13,69,-977,73,0:02:15
424,-228,-465,1,-1,-12,71,-978,74,0:02:15
411,-232,-453,3,-1,-14,73,-980,75,0:02:15
403,-244,-450,2,-2,-13,71,-981,76,0:02:15
411,-232,-441,2,-5,-11,68,-977,76,0:02:15
409,-249,-447,3,-2,-12,67,-976,73,0:02:15
424,-255,-444,2,-2,-11,70,-976,74,0:02:15
415,-256,-453,1,-2,-11,73,-976,76,
