magX[mG],magY[mG],magZ[mG],gyroX[mdps],gyroY[mdps],gyroZ[mdps],accX[mg],accY[mg],accZ[mg],hh:mm:ss.ms
328,-253,-435,1,-49,-3,49,-972,-36,12:37:00
328,-253,-435,1,-49,-3,49,-972,-36,12:37:00
328,-253,-435,1,-49,-3,49,-972,-36,12:37:00
328,-253,-435,1,-49,-3,49,-972,-36,12:37:00
328,-253,-435,1,-49,-3,49,-972,-36,12:37:00
319,-243,-424,1,-46,-3,52,-981,-29,12:37:00
322,-256,-424,0,-42,-3,56,-988,-32,12:37:00
321,-244,-427,-3,-42,-2,59,-994,-39,12:37:00
334,-235,-453,-3,-41,-4,59,-999,-42,12:37:00
322,-244,-438,-3,-46,-5,55,-996,-43,12:37:00
322,-244,-438,-3,-52,-7,54,-994,-44,12:37:00
310,-250,-426,-6,-53,-9,57,-991,-42,12:37:00
307,-246,-444,-9,-55,-9,59,-982,-41,12:37:00
318,-234,-433,-15,-56,-11,59,-974,-43,12:37:00
300,-262,-421,-23,-56,-15,59,-974,-43,12:37:00
322,-229,-429,-34,-51,-19,56,-971,-43,12:37:00
328,-244,-423,-44,-44,-23,53,-974,-40,12:37:00
328,-244,-423,-53,-37,-24,52,-982,-37,12:37:00
315,-249,-439,-60,-20,-27,54,-989,-42,12:37:00
327,-241,-426,-64,-2,-29,56,-994,-47,12:37:00
334,-261,-433,-64,-2,-29,60,-996,-43,12:37:00
325,-250,-444,-66,14,-29,71,-991,-33,12:37:00
334,-259,-436,-63,16,-27,80,-985,-30,12:37:00
310,-255,-424,-56,12,-23,84,-977,-32,12:37:00
310,-255,-424,-55,7,-23,83,-964,-34,12:37:00
328,-256,-435,-51,2,-23,77,-955,-34,12:37:00
319,-258,-456,-47,3,-27,71,-951,-38,12:37:00
324,-250,-435,-38,18,-30,68,-952,-41,12:37:00
321,-253,-424,-27,51,-33,66,-953,-34,12:37:00
337,-253,-435,-16,60,-31,68,-954,-18,12:37:00
324,-250,-444,-1,49,-23,72,-953,-10,12:37:00
324,-250,-444,13,22,-13,73,-954,-15,12:37:00
339,-244,-445,23,-2,-6,64,-961,-23,12:37:00
309,-259,-432,28,-13,-4,50,-972,-32,12:37:00
313,-244,-442,32,-13,-4,43,-980,-35,12:37:00
327,-237,-448,35,-11,-4,43,-980,-35,12:37:00
315,-240,-442,33,-16,-3,42,-982,-29,12:37:00
330,-258,-435,29,-21,-2,41,-979,-27,12:37:00
330,-258,-435,28,-26,-3,40,-975,-24,12:37:00
312,-232,-442,31,-35,-4,41,-975,-24,12:37:00
322,-258,-426,31,-35,-4,44,-981,-31,12:37:00
328,-258,-438,37,-42,-3,45,-985,-37,12:37:00
300,-244,-411,41,-51,-2,44,-985,-40,12:37:00
321,-234,-438,46,-65,2,46,-985,-42,12:37:00
330,-262,-436,53,-88,7,48,-984,-46,12:37:00
330,-262,-436,59,-108,10,50,-984,-47,12:37:00
325,-249,-435,63,-118,10,49,-985,-43,12:37:00
318,-238,-429,62,-114,8,51,-987,-34,12:37:00
339,-249,-418,56,-106,4,59,-989,-22,12:37:00
295,-238,-411,35,-124,2,65,-991,-5,12:37:00
328,-258,-420,23,-126,2,65,-990,-9,12:37:00
328,-258,-420,14,-123,0,68,-990,-18,12:37:00
312,-250,-411,10,-115,1,77,-990,-24,12:37:00
297,-256,-412,9,-99,2,83,-986,-21,12:37:00
336,-246,-417,9,-90,6,83,-986,-21,12:37:00
324,-235,-409,9,-86,9,94,-982,-17,12:37:00
313,-247,-430,4,-84,14,104,-981,-17,12:37:00
313,-247,-430,3,-83,14,106,-979,-22,12:37:00
307,-247,-444,4,-77,11,101,-976,-29,12:37:00
301,-261,-424,4,-77,11,95,-977,-36,12:37:00
306,-237,-417,2,-58,4,91,-977,-41,12:37:00
327,-250,-424,3,-40,0,86,-977,-47,12:37:00
316,-241,-426,7,-31,-4,79,-980,-44,12:37:00
316,-241,-426,7,-20,-7,73,-979,-33,12:37:00
318,-252,-426,2,-16,-11,71,-978,-30,12:37:00
321,-255,-432,2,-19,-12,72,-980,-34,12:37:00
318,-250,-433,4,-18,-12,75,-981,-43,12:37:00
327,-249,-412,7,-13,-10,73,-981,-48,12:37:00
304,-261,-409,13,-11,-7,73,-977,-47,12:37:00
304,-261,-409,15,-11,-4,79,-974,-45,12:37:00
313,-259,-414,14,-10,-4,79,-978,-43,12:37:00
321,-240,-415,9,-8,-6,77,-980,-44,12:37:00
319,-244,-421,3,-7,-8,75,-984,-48,12:37:00
327,-256,-424,3,0,-10,70,-986,-53,12:37:00
313,-241,-436,4,20,-14,70,-986,-53,12:37:00
313,-241,-436,4,32,-18,64,-984,-51,12:37:00
313,-241,-424,1,28,-18,62,-982,-45,12:37:00
294,-238,-399,0,12,-16,65,-978,-38,12:37:01
294,-238,-399,3,0,-14,70,-972,-39,12:37:01
313,-258,-414,3,0,-14,72,-974,-48,12:37:01
325,-243,-423,8,-1,-11,71,-977,-53,12:37:01
324,-247,-415,11,3,-11,70,-979,-48,12:37:01
324,-247,-415,11,6,-11,70,-981,-41,12:37:01
315,-232,-436,7,0,-10,70,-982,-37,12:37:01
306,-250,-409,4,-18,-7,67,-986,-40,12:37:01
310,-241,-432,7,-9,-10,58,-988,-47,12:37:01
312,-250,-423,5,10,-14,51,-984,-48,12:37:01
300,-247,-417,3,14,-17,56,-982,-42,12:37:01
300,-247,-417,0,2,-19,65,-980,-38,12:37:01
304,-234,-415,0,-6,-18,73,-976,-40,12:37:01
327,-261,-427,1,-12,-16,78,-975,-43,12:37:01
307,-246,-412,0,-13,-15,78,-974,-48,12:37:01
312,-246,-415,0,-11,-14,74,-977,-48,12:37:01
309,-250,-433,0,-1,-16,74,-977,-48,12:37:01
318,-250,-423,-3,2,-17,73,-981,-43,12:37:01
318,-250,-423,-4,-4,-15,77,-978,-39,12:37:01
327,-247,-406,-2,-4,-14,80,-979,-39,12:37:01
319,-253,-420,-1,4,-16,70,-985,-38,12:37:01
318,-253,-420,-1,4,-16,61,-981,-36,12:37:01
318,-253,-420,-2,5,-18,64,-977,-33,12:37:01
298,-244,-426,-8,-2,-20,72,-976,-34,12:37:01
319,-234,-441,-10,-4,-21,76,-976,-41,12:37:01
319,-234,-441,-7,-2,-18,78,-977,-47,12:37:01
327,-244,-417,-2,5,-18,80,-978,-50,12:37:01
316,-240,-424,1,15,-18,80,-979,-47,12:37:01
313,-252,-424,-1,11,-18,81,-978,-43,12:37:01
324,-246,-432,0,11,-19,79,-976,-40,12:37:01
312,-237,-414,3,9,-19,73,-977,-39,12:37:01
304,-249,-423,7,9,-21,67,-979,-42,12:37:01
304,-249,-423,4,13,-23,62,-980,-40,12:37:01
312,-252,-402,2,10,-23,63,-983,-39,12:37:01
315,-249,-418,2,1,-21,66,-981,-43,12:37:01
307,-255,-391,2,0,-20,64,-980,-42,12:37:01
306,-238,-432,2,2,-18,64,-981,-37,12:37:01
298,-246,-420,3,7,-15,67,-981,-37,12:37:01
315,-273,-433,4,4,-16,74,-980,-36,12:37:01
315,-273,-433,2,-2,-16,76,-979,-37,12:37:01
316,-267,-436,1,-1,-16,76,-983,-40,12:37:01
318,-265,-439,1,-1,-16,70,-985,-43,12:37:01
334,-252,-412,0,7,-18,61,-981,-39,12:37:01
334,-252,-412,-6,14,-23,60,-979,-36,12:37:01
328,-247,-421,-11,9,-28,64,-978,-36,12:37:01
310,-252,-429,-13,8,-30,72,-974,-36,12:37:01
310,-252,-429,-10,5,-28,82,-973,-36,12:37:01
312,-252,-432,-5,4,-23,85,-978,-39,12:37:01
310,-253,-415,2,3,-18,83,-982,-46,12:37:01
321,-258,-396,11,2,-13,78,-980,-49,12:37:01
309,-235,-429,18,4,-10,74,-976,-47,12:37:01
316,-249,-424,21,7,-9,70,-974,-42,12:37:01
312,-235,-424,21,10,-10,66,-975,-44,12:37:01
312,-235,-424,16,12,-13,62,-974,-45,12:37:01
331,-247,-411,11,16,-16,56,-975,-47,12:37:01
313,-253,-418,7,19,-19,54,-977,-51,12:37:01
312,-244,-418,4,11,-18,55,-978,-55,12:37:01
312,-244,-418,1,15,-18,55,-978,-55,12:37:01
322,-244,-406,2,10,-17,53,-980,-56,12:37:01
312,-244,-417,7,2,-14,53,-982,-57,12:37:01
312,-244,-417,7,2,-14,51,-986,-56,12:37:01
322,-250,-429,10,13,-14,37,-991,-51,12:37:01
316,-276,-409,8,21,-16,30,-993,-43,12:37:01
313,-246,-423,2,-2,-17,33,-990,-42,12:37:01
309,-238,-424,-2,-30,-17,33,-981,-52,12:37:01
315,-264,-429,-2,-34,-21,36,-975,-60,12:37:01
322,-261,-426,-2,-22,-23,49,-975,-53,12:37:01
322,-261,-426,0,-23,-21,68,-977,-45,12:37:01
307,-240,-436,0,-31,-17,77,-980,-44,12:37:01
310,-232,-436,0,-39,-13,74,-983,-46,12:37:01
307,-252,-421,1,-46,-12,67,-985,-48,12:37:01
319,-277,-421,0,-42,-14,61,-989,-49,12:37:01
325,-246,-436,0,-37,-14,58,-991,-49,12:37:01
316,-258,-433,2,-35,-14,56,-985,-47,12:37:01
316,-258,-433,4,-39,-12,58,-979,-41,12:37:01
307,-258,-423,5,-43,-11,61,-974,-43,12:37:01
309,-246,-411,7,-41,-12,61,-974,-43,12:37:01
286,-253,-411,7,-37,-13,63,-972,-46,12:37:01
286,-253,-411,9,-32,-13,67,-973,-46,12:37:01
322,-264,-426,10,-32,-12,74,-972,-47,12:37:01
322,-264,-426,10,-32,-12,77,-974,-48,12:37:01
307,-253,-417,12,-30,-13,78,-977,-49,12:37:01
316,-261,-436,14,-19,-14,76,-976,-45,12:37:01
318,-258,-403,18,-14,-15,72,-974,-39,12:37:01
304,-235,-397,21,-15,-16,75,-975,-39,12:37:01
303,-241,-420,21,-16,-14,77,-976,-38,12:37:01
316,-261,-415,27,-25,-10,79,-977,-37,12:37:01
316,-261,-415,36,-36,-3,81,-980,-37,12:37:01
322,-246,-426,44,-44,2,78,-984,-38,12:37:01
309,-244,-420,51,-42,8,75,-987,-36,12:37:01
312,-247,-420,54,-40,9,73,-988,-29,12:37:01
315,-264,-403,52,-34,6,67,-989,-24,12:37:01
301,-247,-415,49,-28,3,59,-986,-24,12:37:01
318,-256,-423,36,-17,-3,52,-977,-23,12:37:01
318,-256,-423,21,-23,-9,48,-968,-31,12:37:01
322,-259,-406,12,-28,-14,48,-963,-47,12:37:01
312,-256,-415,10,-14,-19,48,-963,-47,12:37:01
325,-255,-412,11,0,-19,55,-965,-50,12:37:01
310,-255,-403,17,-5,-11,80,-977,-41,12:37:01
304,-252,-418,17,-5,-11,80,-983,-46,12:37:01
304,-252,-418,18,-9,-9,74,-987,-52,12:37:01
330,-249,-411,20,-8,-8,64,-987,-57,12:37:01
310,-249,-409,22,-9,-9,56,-987,-61,12:37:01
316,-238,-408,23,-6,-10,51,-985,-56,12:37:01
298,-240,-412,23,-4,-11,48,-982,-50,12:37:01
319,-258,-397,20,-21,-11,43,-982,-53,12:37:01
316,-231,-421,18,-37,-10,40,-980,-58,12:37:02
316,-231,-421,18,-44,-9,44,-979,-62,12:37:02
321,-264,-411,22,-53,-7,51,-982,-68,12:37:02
322,-258,-421,24,-55,-6,53,-984,-73,12:37:02
315,-273,-414,22,-48,-7,53,-984,-69,12:37:02
307,-256,-411,16,-44,-7,55,-986,-61,12:37:02
309,-249,-414,11,-58,-6,58,-985,-61,12:37:02
319,-253,-409,7,-64,-4,61,-981,-65,12:37:02
319,-253,-409,5,-60,-4,66,-983,-71,12:37:02
288,-247,-415,5,-53,-3,66,-983,-71,12:37:02
313,-264,-400,7,-51,-2,70,-983,-74,12:37:02
312,-255,-421,8,-49,-4,71,-979,-71,12:37:02
309,-241,-402,8,-51,-5,68,-977,-67,12:37:02
304,-238,-429,8,-51,-5,65,-977,-65,12:37:02
310,-256,-415,7,-57,-6,63,-981,-58,12:37:02
310,-256,-415,7,-72,-2,61,-984,-54,12:37:02
327,-259,-417,9,-88,1,61,-990,-57,12:37:02
307,-267,-432,14,-93,4,59,-993,-62,12:37:02
327,-246,-414,14,-93,5,55,-989,-63,12:37:02
289,-237,-411,12,-90,4,55,-983,-60,12:37:02
289,-237,-411,7,-89,2,56,-974,-57,12:37:02
316,-256,-414,0,-83,0,59,-970,-55,12:37:02
304,-237,-414,-8,-75,-4,68,-971,-52,12:37:02
304,-247,-402,-14,-72,-4,73,-972,-54,12:37:02
313,-253,-403,-16,-66,-4,74,-972,-60,12:37:02
298,-243,-415,-12,-55,-6,79,-974,-58,12:37:02
298,-243,-415,-9,-31,-9,81,-977,-52,12:37:02
309,-262,-406,-4,-23,-8,82,-978,-50,12:37:02
309,-238,-409,2,-21,-8,81,-979,-48,12:37:02
303,-249,-415,8,-21,-8,81,-979,-48,12:37:02
301,-243,-411,13,-14,-9,81,-977,-48,12:37:02
301,-243,-417,15,-4,-11,75,-974,-50,12:37:02
301,-243,-417,15,-4,-11,72,-974,-50,12:37:02
306,-240,-376,14,6,-14,73,-975,-51,12:37:02
306,-240,-376,13,14,-17,77,-973,-51,12:37:02
318,-246,-418,13,19,-19,84,-973,-53,12:37:02
295,-241,-402,13,25,-18,87,-974,-56,12:37:02
310,-252,-397,14,32,-17,86,-976,-57,12:37:02
310,-252,-397,14,36,-16,80,-978,-57,12:37:02
316,-237,-408,13,38,-15,72,-978,-56,12:37:02
309,-259,-417,14,44,-15,67,-977,-56,12:37:02
298,-241,-403,12,39,-14,63,-974,-60,12:37:02
303,-261,-403,9,38,-12,60,-973,-61,12:37:02
307,-255,-405,7,38,-13,61,-972,-64,12:37:02
307,-255,-405,5,36,-14,60,-975,-65,12:37:02
309,-247,-406,2,32,-15,59,-983,-63,12:37:02
324,-244,-417,-8,34,-17,61,-982,-73,12:37:02
298,-241,-390,-8,30,-17,61,-982,-73,12:37:02
309,-256,-400,-3,10,-17,64,-983,-69,12:37:02
310,-243,-406,-4,10,-16,67,-987,-63,12:37:02
310,-256,-405,0,10,-11,71,-986,-70,12:37:02
310,-256,-405,4,4,-9,75,-986,-68,12:37:02
318,-241,-406,9,-2,-7,74,-984,-66,12:37:02
324,-240,-414,9,-2,-7,71,-979,-63,12:37:02
298,-249,-397,9,-4,-9,71,-978,-63,12:37:02
298,-249,-397,8,-4,-10,73,-980,-64,12:37:02
313,-259,-397,6,-3,-11,73,-980,-63,12:37:02
297,-256,-409,6,-3,-11,74,-979,-61,12:37:02
297,-256,-409,6,-1,-12,78,-978,-59,12:37:02
310,-261,-405,6,1,-12,80,-977,-57,12:37:02
313,-253,-409,2,8,-13,82,-978,-60,12:37:02
301,-246,-406,7,0,-11,83,-980,-59,12:37:02
309,-225,-415,7,4,-12,78,-981,-60,12:37:02
342,-244,-399,4,15,-13,73,-980,-64,12:37:02
312,-244,-391,3,18,-14,71,-976,-61,12:37:02
312,-244,-391,1,21,-16,69,-974,-62,12:37:02
312,-253,-406,0,22,-15,70,-976,-64,12:37:02
313,-240,-408,2,25,-13,75,-977,-65,12:37:02
298,-262,-409,3,31,-11,75,-977,-65,12:37:02
301,-249,-426,7,30,-9,75,-978,-66,12:37:02
310,-259,-402,6,36,-9,71,-979,-65,12:37:02
310,-259,-402,4,37,-11,66,-981,-64,12:37:02
300,-244,-412,0,32,-12,61,-980,-65,12:37:02
307,-249,-430,0,32,-12,56,-976,-67,12:37:02
310,-258,-412,0,32,-13,51,-976,-69,12:37:02
304,-253,-411,0,31,-16,50,-976,-68,12:37:02
306,-246,-399,0,35,-19,55,-980,-67,12:37:02
315,-252,-430,2,35,-20,62,-980,-67,12:37:02
315,-252,-430,6,29,-17,65,-980,-71,12:37:02
315,-247,-411,8,29,-14,66,-982,-74,12:37:02
297,-237,-418,8,34,-13,64,-982,-71,12:37:02
306,-238,-409,7,34,-13,59,-984,-69,12:37:02
301,-225,-399,7,35,-14,58,-982,-65,12:37:02
307,-250,-417,6,29,-14,61,-979,-60,12:37:02
304,-256,-394,4,18,-13,61,-978,-61,12:37:02
304,-256,-394,2,14,-13,64,-980,-64,12:37:02
309,-252,-414,2,9,-11,68,-980,-65,12:37:02
321,-234,-412,3,6,-10,70,-979,-64,12:37:02
309,-243,-415,4,2,-9,70,-979,-64,12:37:02
288,-247,-391,4,-1,-8,70,-980,-67,12:37:02
324,-259,-417,3,-4,-7,71,-980,-70,12:37:02
324,-259,-417,3,-4,-7,73,-979,-72,12:37:02
301,-265,-424,2,0,-8,75,-979,-75,12:37:02
304,-261,-406,2,0,-8,75,-982,-74,12:37:02
322,-240,-393,2,9,-9,71,-983,-71,12:37:02
304,-247,-420,1,12,-11,71,-981,-65,12:37:02
312,-253,-412,2,5,-11,73,-979,-58,12:37:02
312,-253,-412,0,-4,-11,73,-978,-60,12:37:02
303,-261,-408,2,-9,-10,73,-978,-64,12:37:02
297,-238,-405,7,-9,-9,77,-979,-65,12:37:02
303,-250,-418,10,-10,-6,79,-981,-67,12:37:02
309,-253,-411,12,-6,-7,77,-978,-66,12:37:02
319,-249,-396,11,-4,-7,77,-977,-62,12:37:02
319,-249,-396,9,0,-8,78,-978,-59,12:37:02
312,-240,-394,7,-4,-8,78,-976,-61,12:37:02
292,-252,-417,7,-4,-9,78,-975,-61,12:37:02
312,-259,-397,6,0,-9,81,-975,-59,12:37:02
309,-235,-412,5,2,-7,83,-975,-58,12:37:03
316,-246,-391,5,0,-4,83,-975,-58,12:37:03
316,-246,-391,7,-4,-3,81,-977,-59,12:37:03
318,-249,-400,6,-5,-4,77,-978,-61,12:37:03
310,-243,-412,7,-3,-4,76,-977,-61,12:37:03
306,-228,-409,7,175,-4,75,-979,-61,12:37:03
319,-256,-405,5,0,-4,76,-981,-61,12:37:03
307,-237,-421,5,2,-5,76,-981,-60,12:37:03
307,-237,-421,4,4,-7,73,-980,-60,12:37:03
307,-253,-408,3,2,-9,72,-977,-62,12:37:03
315,-237,-399,2,8,-11,73,-974,-66,12:37:03
307,-244,-408,3,-2,-9,74,-973,-66,12:37:03
300,-246,-382,4,-8,-8,76,-973,-65,12:37:03
316,-244,-402,7,-9,-7,78,-976,-66,12:37:03
301,-250,-417,5,-5,-6,79,-979,-64,12:37:03
301,-250,-417,6,-6,-4,79,-980,-60,12:37:03
318,-255,-408,6,-7,-3,76,-980,-60,12:37:03
297,-238,-412,7,-9,-4,73,-982,-64,12:37:03
297,-238,-412,6,-9,-5,74,-982,-64,12:37:03
310,-244,-409,3,-11,-6,76,-977,-63,12:37:03
301,-247,-411,2,-13,-6,76,-977,-63,12:37:03
312,-253,-406,2,-18,-6,78,-976,-62,12:37:03
312,-253,-406,2,-16,-4,81,-976,-62,12:37:03
300,-250,-409,0,-7,-4,82,-976,-67,12:37:03
306,-261,-408,0,1,-4,81,-981,-68,12:37:03
298,-241,-409,0,1,-4,81,-980,-63,12:37:03
288,-256,-405,0,2,-4,83,-975,-57,12:37:03
306,-252,-409,-4,1,-3,81,-976,-57,12:37:03
312,-253,-405,-4,-1,-4,76,-976,-58,12:37:03
312,-253,-405,-2,-2,-4,76,-973,-59,12:37:03
321,-249,-405,0,-7,-4,79,-974,-60,12:37:03
312,-258,-388,-2,-4,-5,79,-974,-62,12:37:03
312,-258,-388,2,-12,-4,77,-973,-62,12:37:03
283,-255,-403,4,-14,-3,76,-972,-65,12:37:03
316,-250,-384,8,-9,-2,77,-973,-67,12:37:03
319,-240,-417,11,-2,-2,78,-977,-68,12:37:03
319,-240,-417,14,1,-2,80,-977,-66,12:37:03
303,-247,-399,14,2,-3,82,-976,-62,12:37:03
298,-237,-393,15,1,-3,79,-975,-64,12:37:03
288,-241,-406,15,0,-5,75,-975,-66,12:37:03
307,-256,-406,15,1,-8,75,-975,-66,12:37:03
304,-249,-420,16,2,-7,73,-975,-67,12:37:03
294,-259,-397,17,3,-6,74,-974,-70,12:37:03
294,-259,-397,16,9,-6,73,-975,-72,12:37:03
304,-249,-406,14,14,-6,72,-977,-71,12:37:03
300,-214,-393,14,14,-6,76,-976,-69,12:37:03
300,-214,-393,13,13,-4,80,-976,-71,12:37:03
318,-241,-415,15,13,-5,76,-976,-77,12:37:03
313,-244,-408,16,20,-6,76,-976,-79,12:37:03
322,-235,-409,18,26,-5,79,-975,-79,12:37:03
322,-235,-409,20,29,-5,80,-973,-77,12:37:03
310,-244,-399,19,30,-4,78,-972,-75,12:37:03
298,-247,-406,17,25,-3,75,-970,-77,12:37:03
298,-247,-406,16,28,-4,74,-969,-82,12:37:03
307,-252,-382,16,31,-3,74,-971,-85,12:37:03
291,-247,-405,19,38,0,75,-970,-79,12:37:03
291,-247,-405,21,45,0,77,-973,-74,12:37:03
310,-252,-417,23,48,3,80,-980,-73,12:37:03
298,-250,-403,24,58,5,75,-984,-73,12:37:03
300,-241,-400,27,69,5,69,-982,-75,12:37:03
289,-246,-402,28,61,8,69,-982,-75,12:37:03
297,-249,-405,30,50,10,67,-977,-76,12:37:03
303,-225,-424,27,42,8,64,-970,-75,12:37:03
303,-225,-424,21,40,5,63,-970,-74,12:37:03
304,-264,-400,16,43,4,64,-971,-73,12:37:03
315,-234,-408,16,43,4,68,-972,-74,12:37:03
289,-243,-402,16,44,7,73,-978,-71,12:37:03
289,-243,-402,16,47,7,75,-983,-72,12:37:03
321,-264,-400,18,53,8,77,-987,-73,12:37:03
307,-256,-397,22,58,9,77,-987,-71,12:37:03
307,-256,-397,27,61,11,71,-983,-71,12:37:03
288,-247,-423,30,60,11,65,-975,-66,12:37:03
298,-240,-402,32,63,10,68,-970,-65,12:37:03
303,-249,-397,29,60,11,74,-969,-70,12:37:03
300,-234,-412,31,58,14,76,-967,-78,12:37:03
319,-253,-403,35,57,18,76,-965,-84,12:37:03
298,-255,-394,36,58,21,77,-963,-85,12:37:03
298,-255,-394,33,60,24,73,-961,-77,12:37:03
285,-249,-421,28,69,25,71,-965,-65,12:37:03
301,-252,-417,25,82,25,72,-978,-53,12:37:03
288,-231,-378,29,86,27,72,-978,-53,12:37:03
291,-225,-409,32,89,30,73,-984,-46,12:37:03
288,-256,-414,39,72,36,77,-986,-44,12:37:03
295,-238,-397,44,51,41,81,-983,-51,12:37:03
295,-238,-397,44,51,41,79,-972,-64,12:37:03
307,-252,-412,48,45,43,71,-963,-75,12:37:03
313,-228,-400,49,54,42,67,-962,-78,12:37:03
306,-265,-414,51,74,41,68,-968,-70,12:37:03
298,-249,-391,53,91,42,76,-971,-53,12:37:03
286,-240,-393,63,84,42,88,-968,-48,12:37:03
283,-237,-405,68,60,46,92,-965,-51,12:37:03
283,-237,-405,69,47,49,87,-962,-54,12:37:03
301,-234,-415,70,42,49,82,-953,-49,12:37:03
303,-231,-397,74,37,45,82,-948,-42,12:37:03
303,-261,-399,88,16,45,96,-954,-48,12:37:03
286,-226,-397,109,-8,46,115,-967,-63,12:37:03
301,-244,-411,118,-39,45,115,-976,-64,12:37:03
292,-241,-391,118,-43,42,106,-968,-85,12:37:03
292,-241,-391,93,-22,25,103,-965,-97,12:37:03
303,-250,-400,82,-42,25,86,-975,-61,12:37:03
295,-234,-399,74,-72,21,86,-975,-61,12:37:03
276,-225,-393,67,-71,14,65,-973,-39,12:37:03
276,-225,-393,56,-56,9,64,-966,-55,12:37:03
295,-238,-381,56,-56,9,72,-965,-62,12:37:03
298,-237,-397,49,-43,14,83,-954,-64,12:37:03
298,-237,-397,45,-88,14,80,-936,-34,12:37:03
300,-243,-391,53,-131,7,79,-937,-18,12:37:03
297,-244,-384,40,-160,0,89,-948,-21,12:37:04
282,-226,-402,32,-184,-8,106,-943,-9,12:37:04
286,-223,-390,6,-222,-19,155,-944,-35,12:37:04
306,-244,-379,6,-231,-24,214,-963,-72,12:37:04
301,-240,-399,8,-253,-7,254,-991,-89,12:37:04
301,-240,-399,31,-249,21,269,-999,-100,12:37:04
288,-241,-391,46,-261,64,278,-1012,-108,12:37:04
309,-241,-390,48,-274,88,276,-1031,-80,12:37:04
280,-244,-364,23,-268,82,255,-1020,-57,12:37:04
286,-220,-373,-4,-205,51,221,-992,-61,12:37:04
298,-241,-382,4,-118,18,191,-973,-49,12:37:04
297,-234,-367,6,-86,2,175,-951,-22,12:37:04
297,-234,-367,13,-113,-7,150,-921,-22,12:37:04
271,-240,-370,57,-168,-3,150,-921,-22,12:37:04
291,-243,-385,97,-249,4,115,-930,-9,12:37:04
276,-216,-399,112,-331,2,129,-954,-63,12:37:04
276,-216,-399,145,-347,14,129,-954,-63,12:37:04
292,-225,-376,145,-347,14,115,-994,-86,12:37:04
274,-231,-355,157,-306,28,142,-998,-116,12:37:04
274,-231,-355,140,-244,39,162,-986,-126,12:37:04
277,-223,-361,130,-196,49,173,-977,-111,12:37:04
277,-235,-361,116,-186,55,191,-963,-109,12:37:04
280,-220,-345,126,-197,66,178,-959,-88,12:37:04
268,-232,-355,107,-157,37,173,-940,-132,12:37:04
282,-225,-369,86,-107,14,192,-921,-169,12:37:04
282,-225,-369,74,-86,1,189,-932,-122,12:37:04
268,-241,-348,58,-70,-7,191,-941,-109,12:37:04
270,-237,-343,43,-51,-13,199,-945,-107,12:37:04
282,-259,-367,39,-39,-12,199,-958,-94,12:37:04
271,-241,-343,33,-39,-11,189,-983,-69,12:37:04
276,-216,-351,24,-51,-13,177,-992,-50,12:37:04
280,-222,-349,31,-81,-16,160,-992,-55,12:37:04
280,-222,-349,46,-109,-23,160,-987,-55,12:37:04
295,-219,-357,57,-125,-38,145,-987,-66,12:37:04
276,-222,-354,63,-132,-53,144,-976,-67,12:37:04
288,-240,-351,67,-121,-67,148,-968,-89,12:37:04
274,-234,-367,62,-102,-77,150,-964,-119,12:37:04
282,-234,-358,62,-102,-77,161,-973,-114,12:37:04
297,-244,-364,83,-98,-81,166,-978,-108,12:37:04
297,-244,-364,89,-90,-83,161,-981,-99,12:37:04
259,-246,-364,88,-79,-84,158,-997,-64,12:37:04
279,-238,-357,94,-86,-84,160,-999,-56,12:37:04
271,-243,-358,100,-76,-88,166,-992,-58,12:37:04
265,-223,-339,105,-80,-87,176,-997,-34,12:37:04
271,-244,-354,113,-114,-86,191,-1003,-24,12:37:04
288,-238,-342,123,-147,-84,204,-1006,-44,12:37:04
288,-238,-342,125,-163,-88,207,-1002,-68,12:37:04
271,-238,-334,118,-158,-98,208,-994,-77,12:37:04
274,-238,-352,115,-140,-105,213,-980,-88,12:37:04
274,-244,-346,103,-103,-115,214,-968,-97,12:37:04
277,-238,-328,85,-82,-126,209,-964,-84,12:37:04
277,-238,-328,74,-69,-133,209,-964,-84,12:37:04
258,-240,-321,70,-70,-136,214,-965,-73,12:37:04
258,-240,-321,70,-91,-135,222,-972,-66,12:37:04
268,-246,-337,75,-128,-135,223,-973,-62,12:37:04
286,-241,-333,89,-159,-140,208,-962,-61,12:37:04
280,-247,-321,105,-171,-146,183,-950,-65,12:37:04
273,-250,-316,105,-171,-146,168,-942,-81,12:37:04
273,-250,-316,121,-173,-154,159,-936,-81,12:37:04
285,-249,-321,135,-167,-165,158,-928,-61,12:37:04
292,-241,-339,131,-156,-175,165,-911,-50,12:37:04
280,-252,-328,121,-135,-184,174,-889,-61,12:37:04
280,-256,-316,112,-117,-196,187,-887,-76,12:37:04
276,-261,-322,116,-102,-203,194,-893,-80,12:37:04
280,-253,-315,135,-101,-211,195,-903,-66,12:37:04
280,-253,-315,155,-102,-216,192,-919,-55,12:37:04
285,-258,-325,172,-110,-221,183,-929,-35,12:37:04
301,-270,-327,183,-124,-229,177,-937,-17,12:37:04
300,-268,-303,189,-138,-243,172,-935,-18,12:37:04
297,-250,-307,183,-140,-255,163,-927,-27,12:37:04
294,-256,-318,172,-123,-269,163,-934,-29,12:37:04
294,-256,-318,162,-102,-280,172,-964,3,12:37:04
297,-264,-295,149,-107,-289,172,-964,3,12:37:04
307,-259,-315,125,-137,-294,180,-997,54,12:37:04
292,-270,-319,92,-165,-293,196,-1032,92,12:37:04
300,-256,-315,44,-178,-288,234,-1071,111,12:37:04
303,-276,-295,44,-178,-288,280,-1113,119,12:37:04
303,-276,-295,-19,-182,-277,320,-1163,118,12:37:04
316,-270,-307,-100,-162,-259,366,-1207,76,12:37:04
316,-270,-307,-188,-88,-220,425,-1243,-3,12:37:04
319,-283,-315,-277,49,-160,485,-1270,-67,12:37:04
306,-276,-325,-394,266,-80,510,-1286,-84,12:37:04
309,-268,-318,-462,324,-44,366,-1266,-88,12:37:04
309,-268,-318,-524,359,-8,183,-1258,-95,12:37:04
292,-274,-337,-628,522,36,78,-1257,-59,12:37:04
309,-268,-349,-753,663,64,-21,-1235,11,12:37:04
309,-268,-349,-928,705,69,-87,-1216,69,12:37:04
310,-256,-352,-1117,683,54,-113,-1204,108,12:37:04
301,-247,-372,-1293,584,49,-102,-1204,112,12:37:04
301,-247,-372,-1410,440,79,-101,-1174,84,12:37:04
313,-249,-396,-1448,303,105,-93,-1134,-2,12:37:04
300,-243,-390,-1379,216,138,-75,-1134,-49,12:37:04
300,-256,-426,-1315,-61,188,-75,-1134,-49,12:37:04
294,-231,-442,-1255,-429,231,-77,-1170,24,12:37:04
324,-238,-453,-1169,-664,313,-65,-1223,44,12:37:04
300,-237,-453,-1090,-831,352,-60,-1230,-18,12:37:04
300,-237,-453,-1090,-831,352,-90,-1166,-80,12:37:04
303,-231,-468,-1009,-847,413,-57,-1137,-159,12:37:04
298,-222,-457,-963,-707,442,2,-1111,-195,12:37:04
268,-196,-453,-978,-481,426,41,-1086,-235,12:37:04
268,-196,-453,-905,16,440,119,-1070,-377,12:37:04
270,-196,-475,-707,599,504,188,-1073,-342,12:37:04
279,-183,-492,-641,896,611,264,-1149,-132,12:37:04
279,-183,-492,-721,1092,654,292,-1153,-55,12:37:04
267,-204,-492,-790,1205,647,240,-1101,-56,12:37:04
280,-205,-501,-841,1141,651,216,-1066,-33,12:37:04
285,-160,-526,-844,1097,668,171,-1016,-13,12:37:05
276,-159,-546,-814,1115,661,89,-956,-31,12:37:05
259,-163,-544,-770,1181,649,28,-901,-30,12:37:05
291,-154,-553,-743,1145,632,-3,-880,-10,12:37:05
291,-154,-553,-634,1296,651,-11,-893,-30,12:37:05
277,-145,-579,-613,1438,646,4,-907,-42,12:37:05
277,-133,-583,-670,1502,584,4,-907,-42,12:37:05
282,-133,-591,-671,1576,522,29,-913,-38,12:37:05
301,-85,-625,-655,1633,466,-1,-912,-7,12:37:05
315,-111,-622,-691,1668,394,-41,-893,49,12:37:05
304,-120,-630,-691,1668,394,-85,-854,120,12:37:05
304,-120,-630,-658,1565,364,-126,-795,216,12:37:05
309,-109,-645,-580,1376,345,-114,-737,267,12:37:05
331,-99,-630,-541,1169,308,-120,-693,261,12:37:05
343,-79,-648,-504,1051,277,-144,-672,277,12:37:05
334,-78,-657,-403,964,270,-53,-665,242,12:37:05
349,-76,-661,-332,926,270,38,-679,186,12:37:05
333,-75,-685,-263,898,292,67,-713,194,12:37:05
333,-75,-685,-168,832,312,107,-720,178,12:37:05
357,-69,-691,-76,772,321,106,-693,170,12:37:05
370,-60,-675,4,735,308,84,-656,190,12:37:05
361,-76,-673,76,702,280,66,-645,219,12:37:05
369,-84,-679,173,623,257,43,-621,264,12:37:05
372,-73,-690,298,506,242,4,-575,309,12:37:05
378,-58,-706,408,394,215,-11,-539,347,12:37:05
378,-58,-706,490,301,190,-11,-539,347,12:37:05
373,-70,-690,558,217,172,-7,-528,396,12:37:05
373,-72,-678,615,142,145,-15,-528,430,12:37:05
390,-72,-678,670,48,106,40,-570,418,12:37:05
378,-85,-661,670,48,106,72,-642,426,12:37:05
378,-85,-661,669,14,100,108,-717,443,12:37:05
375,-90,-676,660,-4,109,157,-833,488,12:37:05
385,-108,-675,634,24,125,195,-898,543,12:37:05
390,-100,-664,606,56,161,214,-886,585,12:37:05
367,-108,-649,573,58,224,260,-935,693,12:37:05
381,-108,-658,475,31,214,280,-1039,738,12:37:05
381,-108,-658,279,10,178,325,-1196,751,12:37:05
375,-88,-663,37,18,140,360,-1358,704,12:37:05
393,-88,-658,-163,45,108,347,-1465,649,12:37:05
369,-105,-664,-308,209,75,296,-1489,693,12:37:05
363,-91,-670,-390,513,39,159,-1219,736,12:37:05
387,-102,-658,-359,770,-7,-36,-775,693,12:37:05
397,-75,-682,-197,825,-32,-191,-526,597,12:37:05
397,-75,-682,-2,744,-56,-191,-526,597,12:37:05
417,-79,-678,140,540,-28,-247,-533,467,12:37:05
405,-91,-672,169,254,16,-194,-770,371,12:37:05
433,-78,-675,82,-19,5,-134,-1120,307,12:37:05
399,-85,-660,-100,-209,-81,-134,-1468,266,12:37:05
400,-79,-664,-100,-209,-81,-131,-1700,265,12:37:05
426,-81,-675,-231,-311,-161,-86,-1666,276,12:37:05
426,-81,-675,-245,-376,-204,-89,-1343,249,12:37:05
411,-69,-666,-158,-505,-216,-147,-931,137,12:37:05
403,-93,-681,44,-808,-205,-210,-624,-89,12:37:05
390,-73,-657,287,-1110,-206,-248,-492,-262,12:37:05
391,-78,-645,448,-1227,-230,-228,-513,-203,12:37:05
388,-84,-646,448,-1166,-270,-118,-673,-19,12:37:05
399,-91,-642,401,-1168,-304,72,-856,45,12:37:05
399,-91,-642,419,-1335,-329,288,-995,-90,12:37:05
390,-82,-645,499,-1507,-284,477,-1142,-279,12:37:05
393,-72,-616,590,-1594,-172,569,-1215,-367,12:37:05
366,-82,-627,628,-1475,-102,573,-1216,-332,12:37:05
343,-76,-597,661,-1313,-1,488,-1166,-209,12:37:05
354,-120,-592,671,-1195,57,488,-1166,-209,12:37:05
333,-105,-606,650,-1121,32,315,-1023,-33,12:37:05
333,-105,-606,664,-1087,-18,137,-849,96,12:37:05
334,-105,-586,671,-1018,-93,7,-748,151,12:37:05
339,-112,-555,721,-1045,-121,-37,-717,100,12:37:05
334,-105,-583,756,-1134,-158,-38,-744,57,12:37:05
328,-112,-546,756,-1134,-158,-27,-823,45,12:37:05
322,-106,-547,781,-1192,-151,36,-899,2,12:37:05
330,-112,-559,812,-1271,-135,138,-903,-83,12:37:05
330,-112,-559,816,-1266,-130,249,-948,-206,12:37:05
316,-130,-546,846,-1087,-86,374,-1028,-192,12:37:05
327,-109,-520,722,-998,-100,404,-1009,-137,12:37:05
310,-118,-496,666,-836,-72,354,-997,-71,12:37:05
298,-114,-477,615,-709,-85,328,-971,-71,12:37:05
303,-139,-489,651,-564,-57,299,-935,-100,12:37:05
312,-132,-498,643,-531,-53,242,-895,-88,12:37:05
312,-132,-498,578,-495,-96,186,-861,-91,12:37:05
298,-129,-490,499,-443,-140,164,-888,-68,12:37:05
300,-129,-462,457,-389,-145,169,-938,-34,12:37:05
297,-121,-477,408,-386,-173,144,-939,39,12:37:05
304,-132,-471,291,-289,-223,161,-934,40,12:37:05
298,-120,-450,219,-297,-261,161,-934,40,12:37:05
303,-127,-472,193,-337,-247,233,-968,22,12:37:05
303,-127,-472,214,-352,-228,254,-975,25,12:37:05
321,-141,-435,260,-331,-218,262,-966,-20,12:37:05
309,-145,-435,301,-326,-220,242,-945,-54,12:37:05
312,-142,-438,301,-326,-220,216,-925,-58,12:37:05
303,-130,-436,319,-336,-234,206,-926,-57,12:37:05
303,-130,-436,328,-350,-255,183,-929,-50,12:37:05
309,-139,-445,378,-328,-273,154,-899,-54,12:37:05
319,-138,-447,396,-287,-305,130,-876,-63,12:37:05
309,-147,-447,400,-263,-335,117,-883,-67,12:37:05
330,-154,-423,418,-229,-358,124,-880,-89,12:37:05
325,-145,-409,464,-208,-368,140,-866,-78,12:37:05
325,-145,-409,513,-224,-375,149,-867,-30,12:37:05
318,-159,-406,560,-263,-384,167,-894,9,12:37:05
312,-136,-396,590,-323,-382,201,-926,30,12:37:05
321,-154,-396,588,-392,-366,228,-933,21,12:37:05
312,-165,-403,557,-431,-369,238,-918,2,12:37:05
301,-168,-391,481,-426,-380,241,-904,-19,12:37:05
301,-168,-391,418,-410,-387,240,-938,-32,12:37:05
328,-148,-381,346,-385,-379,240,-938,-32,12:37:05
325,-144,-355,278,-359,-343,235,-1004,-28,12:37:05
331,-154,-358,213,-357,-309,210,-1065,9,12:37:06
340,-150,-358,119,-364,-282,205,-1123,58,12:37:06
340,-154,-360,119,-364,-282,224,-1147,52,12:37:06
340,-154,-360,41,-347,-252,229,-1122,8,12:37:06
331,-159,-349,23,-322,-215,202,-1060,-3,12:37:06
313,-169,-354,13,-294,-198,153,-1019,27,12:37:06
313,-169,-354,-10,-186,-224,139,-1036,102,12:37:06
336,-168,-340,-46,-100,-271,175,-1104,227,12:37:06
331,-163,-352,-79,-91,-266,250,-1143,269,12:37:06
354,-154,-366,-121,-142,-225,359,-1159,144,12:37:06
354,-154,-366,-200,-203,-168,437,-1213,-27,12:37:06
357,-154,-348,-308,-154,-125,478,-1287,-127,12:37:06
346,-159,-357,-430,-4,-86,533,-1353,-99,12:37:06
327,-154,-333,-558,124,-25,585,-1371,-55,12:37:06
345,-150,-361,-710,287,74,555,-1368,-97,12:37:06
343,-147,-355,-820,423,207,329,-1361,-96,12:37:06
345,-141,-367,-963,486,301,31,-1341,-30,12:37:06
345,-141,-367,-1146,548,345,31,-1309,-29,12:37:06
340,-138,-370,-1255,592,392,-113,-1309,-29,12:37:06
309,-121,-378,-1232,687,381,-89,-1270,-120,12:37:06
309,-121,-378,-1194,800,347,-69,-1236,-184,12:37:06
328,-132,-406,-1276,656,275,-123,-1262,-144,12:37:06
337,-118,-400,-1276,656,275,-183,-1371,41,12:37:06
331,-120,-421,-1428,243,215,-186,-1421,121,12:37:06
331,-120,-421,-1470,-141,189,-141,-1366,-13,12:37:06
340,-127,-427,-1500,-431,144,-119,-1291,-90,12:37:06
303,-91,-430,-1573,-662,153,-67,-1299,-95,12:37:06
303,-91,-430,-1492,-730,387,23,-1343,-137,12:37:06
309,-90,-432,-1325,-748,529,-65,-1259,-134,12:37:06
303,-91,-423,-1201,-574,543,-142,-1161,-261,12:37:06
301,-76,-433,-944,43,546,7,-1154,-536,12:37:06
301,-76,-433,-848,511,661,206,-1206,-504,12:37:06
283,-79,-451,-891,683,805,266,-1266,-143,12:37:06
277,-84,-444,-1271,731,738,176,-1245,128,12:37:06
295,-51,-475,-1361,686,673,263,-1207,-285,12:37:06
282,-52,-471,-1159,1148,730,265,-1130,-516,12:37:06
294,-39,-481,-1101,1714,775,265,-1130,-516,12:37:06
297,-15,-496,-1110,1915,780,78,-1036,-265,12:37:06
297,-15,-496,-1085,1971,722,41,-976,-44,12:37:06
297,-36,-501,-917,1894,648,85,-857,97,12:37:06
294,-22,-519,-780,1637,497,22,-650,141,12:37:06
309,-12,-529,-780,1637,497,11,-635,65,12:37:06
330,-4,-529,-737,1653,408,19,-630,37,12:37:06
339,-7,-559,-751,1716,308,-21,-624,74,12:37:06
339,-7,-559,-669,1756,251,-81,-615,94,12:37:06
321,12,-561,-533,1654,220,-149,-575,106,12:37:06
349,21,-568,-412,1585,169,-185,-531,97,12:37:06
360,27,-591,-310,1474,125,-184,-538,91,12:37:06
372,28,-568,-229,1330,89,-175,-553,123,12:37:06
360,22,-571,-149,1125,71,-143,-537,178,12:37:06
361,34,-583,-51,898,73,-112,-510,222,12:37:06
361,34,-583,40,716,74,-88,-492,244,12:37:06
382,13,-594,119,595,73,-69,-489,265,12:37:06
396,18,-582,227,497,91,-52,-494,293,12:37:06
366,12,-576,373,389,109,-40,-479,322,12:37:06
379,21,-598,538,266,125,-26,-464,330,12:37:06
378,10,-585,689,158,132,-26,-464,330,12:37:06
384,21,-595,787,61,144,14,-482,342,12:37:06
384,21,-595,837,8,149,71,-537,371,12:37:06
376,4,-574,862,4,147,110,-583,397,12:37:06
385,9,-592,854,26,142,146,-638,442,12:37:06
360,3,-565,854,26,142,162,-714,515,12:37:06
360,3,-565,829,35,156,147,-746,565,12:37:06
360,3,-565,806,9,184,108,-782,631,12:37:06
384,-1,-574,767,-39,238,101,-846,705,12:37:06
370,-7,-570,711,2,273,144,-954,774,12:37:06
387,-18,-565,569,81,295,200,-1139,864,12:37:06
366,9,-567,301,186,302,271,-1395,942,12:37:06
381,10,-537,-40,188,311,342,-1636,886,12:37:06
381,10,-537,-282,116,291,361,-1739,701,12:37:06
366,-10,-580,-403,155,281,298,-1606,589,12:37:06
361,9,-571,-474,524,204,131,-1186,668,12:37:06
378,12,-570,-441,905,121,-111,-608,788,12:37:06
393,6,-561,-245,1071,41,-302,-129,773,12:37:06
405,6,-577,9,1068,-39,-311,79,647,12:37:06
405,6,-577,231,917,-52,-254,-1,497,12:37:06
379,24,-577,287,436,-16,-254,-1,497,12:37:06
393,19,-583,157,-102,-4,-221,-415,328,12:37:06
408,16,-570,-71,-210,-21,-139,-1116,164,12:37:06
387,7,-555,-377,8,-121,-38,-1756,79,12:37:06
406,1,-573,-377,8,-121,32,-1996,150,12:37:06
406,1,-573,-472,127,-172,109,-1998,376,12:37:06
384,-7,-591,-471,56,-114,208,-1588,477,12:37:06
391,13,-562,-114,-584,0,13,-799,60,12:37:06
379,21,-558,342,-889,-84,-372,-333,-374,12:37:06
375,19,-561,479,-583,-235,-477,-281,-131,12:37:06
387,15,-555,315,-355,-345,-255,-405,294,12:37:06
387,15,-555,181,-633,-377,55,-584,297,12:37:06
391,4,-567,361,-1301,-319,270,-767,-78,12:37:06
384,21,-538,674,-1779,-213,353,-991,-425,12:37:06
384,21,-538,808,-1710,-102,398,-1251,-473,12:37:06
346,16,-529,743,-1281,18,485,-1412,-302,12:37:06
334,-4,-529,686,-950,121,580,-1394,-109,12:37:06
355,-4,-510,683,-884,198,549,-1233,41,12:37:06
355,-4,-510,741,-1034,203,330,-1002,113,12:37:06
346,-13,-526,786,-1201,151,57,-838,155,12:37:06
336,4,-504,808,-1266,62,57,-838,155,12:37:06
318,-1,-507,847,-1222,-18,-98,-788,149,12:37:06
331,-9,-490,839,-1269,-88,-148,-803,112,12:37:06
321,-21,-484,895,-1419,-109,-158,-813,118,12:37:06
325,-7,-478,895,-1419,-109,-98,-806,65,12:37:06
325,-7,-478,903,-1446,-155,-13,-833,-15,12:37:06
312,-40,-478,805,-1369,-230,117,-881,-122,12:37:06
300,-25,-438,739,-1206,-233,311,-938,-241,12:37:06
295,-28,-445,679,-1060,-212,427,-1008,-225,12:37:06
288,-30,-453,562,-999,-201,433,-1010,-162,12:37:06
298,-42,-430,543,-956,-175,393,-918,-151,12:37:07
310,-37,-414,583,-774,-135,322,-911,-121,12:37:07
310,-37,-414,630,-620,-71,301,-950,-74,12:37:07
298,-28,-415,674,-572,-21,283,-888,-38,12:37:07
310,-30,-384,689,-511,-49,224,-855,-11,12:37:07
310,-30,-384,637,-480,-92,163,-854,-7,12:37:07
280,-36,-412,570,-432,-134,119,-852,-23,12:37:07
295,-45,-412,441,-407,-183,113,-907,-22,12:37:07
288,-45,-390,347,-374,-191,106,-953,-15,12:37:07
288,-45,-390,250,-301,-213,106,-954,-15,12:37:07
304,-51,-405,231,-257,-231,116,-954,-27,12:37:07
297,-54,-379,283,-230,-234,135,-930,-26,12:37:07
286,-34,-382,355,-244,-235,158,-877,-22,12:37:07
268,-46,-379,407,-282,-239,184,-828,-30,12:37:07
300,-57,-381,407,-282,-239,200,-831,-48,12:37:07
315,-51,-376,422,-293,-245,215,-847,-90,12:37:07
315,-51,-376,452,-270,-241,214,-847,-113,12:37:07
291,-54,-378,509,-265,-240,192,-843,-84,12:37:07
295,-52,-358,569,-308,-246,162,-853,-26,12:37:07
295,-52,-358,622,-346,-254,140,-868,2,12:37:07
285,-48,-369,659,-354,-281,132,-889,-5,12:37:07
295,-52,-358,677,-317,-313,138,-922,2,12:37:07
282,-69,-354,681,-280,-334,152,-947,21,12:37:07
282,-69,-354,665,-259,-346,157,-956,50,12:37:07
277,-64,-346,613,-268,-364,155,-942,44,12:37:07
312,-94,-337,569,-265,-368,159,-938,4,12:37:07
304,-91,-325,515,-287,-380,168,-967,-16,12:37:07
286,-66,-348,445,-329,-389,191,-1015,-25,12:37:07
294,-88,-339,373,-363,-385,217,-1074,0,12:37:07
294,-88,-339,321,-394,-338,217,-1074,0,12:37:07
303,-100,-325,224,-448,-302,225,-1114,55,12:37:07
318,-100,-322,122,-479,-267,233,-1126,96,12:37:07
298,-73,-301,40,-465,-242,249,-1147,102,12:37:07
310,-84,-318,-17,-390,-225,272,-1133,51,12:37:07
316,-91,-304,-17,-390,-225,289,-1074,5,12:37:07
321,-102,-318,-44,-256,-237,260,-1049,47,12:37:07
321,-102,-318,-65,-130,-282,213,-1037,137,12:37:07
318,-90,-313,-90,-33,-327,212,-1040,211,12:37:07
330,-93,-315,-105,7,-326,259,-1037,218,12:37:07
318,-106,-310,-157,97,-306,313,-1026,161,12:37:07
318,-106,-310,-209,42,-275,328,-1061,142,12:37:07
322,-94,-310,-319,-109,-260,325,-1143,85,12:37:07
322,-91,-324,-485,-38,-219,380,-1256,-42,12:37:07
322,-91,-324,-660,260,-193,456,-1339,-78,12:37:07
309,-84,-325,-812,501,-102,504,-1342,-51,12:37:07
316,-105,-325,-975,704,9,514,-1320,-67,12:37:07
319,-105,-340,-1159,765,323,-40,-1329,-58,12:37:07
309,-103,-349,-1234,870,411,-163,-1285,-145,12:37:07
330,-88,-354,-1252,889,417,-163,-1285,-145,12:37:07
330,-88,-354,-1240,750,382,-118,-1307,-131,12:37:07
324,-93,-351,-1351,518,312,-164,-1362,-81,12:37:07
322,-91,-361,-1446,115,247,-208,-1445,12,12:37:07
325,-100,-375,-1477,-230,226,-243,-1453,55,12:37:07
322,-72,-388,-1489,-477,207,-231,-1415,-55,12:37:07
316,-87,-399,-1517,-628,226,-184,-1354,-77,12:37:07
316,-87,-399,-1498,-833,322,-127,-1304,-84,12:37:07
303,-87,-403,-1331,-969,536,-20,-1250,-115,12:37:07
318,-85,-412,-1135,-1092,583,-62,-1154,-100,12:37:07
304,-67,-388,-1172,-700,515,-81,-1126,-207,12:37:07
307,-51,-403,-880,96,543,76,-1139,-407,12:37:07
303,-75,-394,-711,410,737,249,-1228,-294,12:37:07
303,-75,-394,-786,422,859,336,-1276,-127,12:37:07
327,-72,-415,-875,790,824,242,-1179,-91,12:37:07
304,-37,-414,-965,1105,821,143,-1128,-116,12:37:07
282,-40,-433,-1027,1382,811,140,-1054,-255,12:37:07
304,-37,-459,-966,1648,739,102,-937,-179,12:37:07
295,-31,-468,-907,1759,657,102,-937,-179,12:37:07
295,-31,-468,-950,1780,516,31,-825,-32,12:37:07
318,-40,-475,-859,1766,392,37,-722,-22,12:37:07
306,-15,-483,-725,1738,343,19,-658,6,12:37:07
303,-28,-484,-648,1708,329,-11,-690,56,12:37:07
333,-31,-504,-546,1719,324,-18,-732,84,12:37:07
352,-27,-499,-546,1719,324,-40,-693,79,12:37:07
352,-27,-499,-472,1674,303,-76,-645,97,12:37:07
343,-15,-508,-389,1579,284,-107,-604,111,12:37:07
355,3,-541,-335,1476,227,-163,-548,145,12:37:07
352,-25,-540,-309,1327,175,-213,-531,200,12:37:07
348,-22,-516,-249,1132,172,-200,-562,207,12:37:07
372,-13,-552,-158,970,198,-142,-580,188,12:37:07
372,-13,-552,-48,849,235,-85,-573,182,12:37:07
369,-10,-558,75,735,268,-57,-535,206,12:37:07
364,-15,-559,197,633,280,-33,-487,256,12:37:07
384,-22,-541,318,512,275,-13,-454,318,12:37:07
373,-21,-538,458,374,266,21,-442,350,12:37:07
361,-21,-555,595,224,263,58,-451,344,12:37:07
361,-21,-555,684,112,245,93,-464,348,12:37:07
384,-16,-561,732,79,233,142,-504,388,12:37:07
375,-24,-528,753,63,219,176,-560,439,12:37:07
375,-24,-528,755,58,193,176,-560,439,12:37:07
390,-22,-556,737,74,165,177,-605,494,12:37:07
375,-46,-513,718,86,179,153,-642,560,12:37:07
358,-37,-561,718,86,179,125,-667,600,12:37:07
358,-37,-561,707,116,194,153,-726,626,12:37:07
376,-39,-526,693,144,221,168,-856,717,12:37:07
370,-69,-547,640,225,263,193,-966,807,12:37:07
394,-49,-522,516,381,289,273,-1062,867,12:37:07
382,-49,-537,334,464,305,339,-1198,901,12:37:07
381,-42,-534,132,392,294,364,-1385,870,12:37:07
381,-42,-534,-113,189,310,362,-1524,759,12:37:07
396,-54,-535,-263,95,265,301,-1454,637,12:37:07
378,-58,-549,-385,393,136,192,-1161,645,12:37:07
385,-60,-531,-419,877,2,21,-738,701,12:37:07
390,-49,-568,-290,1227,-81,-142,-392,655,12:37:07
373,-60,-540,-102,1291,-116,-211,-278,580,12:37:07
409,-52,-571,46,1012,-47,-306,-520,573,12:37:07
409,-52,-571,-27,491,30,-269,-1065,449,12:37:08
409,-69,-550,-160,49,72,-269,-1679,449,12:37:08
399,-75,-547,-322,-50,-2,-135,-1679,147,12:37:08
403,-78,-558,-364,-95,-132,-153,-1988,-45,12:37:08
403,-78,-558,-356,-102,-156,-118,-1998,37,12:37:08
405,-67,-558,-220,-396,-89,25,-1710,225,12:37:08
421,-69,-582,-220,-396,-89,-30,-1029,44,12:37:08
421,-69,-582,154,-767,-130,-328,-479,-355,12:37:08
414,-72,-574,454,-776,-242,-535,-354,-266,12:37:08
397,-81,-553,431,-702,-354,-423,-473,107,12:37:08
408,-79,-541,282,-931,-396,-151,-620,170,12:37:08
387,-75,-556,344,-1449,-327,45,-722,-88,12:37:08
396,-78,-564,605,-1899,-206,146,-873,-345,12:37:08
382,-85,-523,819,-1995,-102,235,-1117,-416,12:37:08
382,-85,-523,874,-1771,37,420,-1328,-321,12:37:08
376,-93,-538,819,-1519,131,621,-1385,-147,12:37:08
388,-91,-531,772,-1446,197,667,-1264,-17,12:37:08
354,-103,-496,781,-1495,221,512,-1040,47,12:37:08
354,-103,-496,781,-1549,151,220,-854,123,12:37:08
349,-108,-484,768,-1551,64,-22,-782,175,12:37:08
349,-120,-471,762,-1548,-25,-138,-772,207,12:37:08
349,-120,-471,846,-1653,-105,-138,-772,207,12:37:08
342,-123,-481,923,-1778,-113,-112,-751,157,12:37:08
336,-120,-469,932,-1815,-141,-6,-779,51,12:37:08
331,-117,-454,868,-1738,-209,82,-813,-42,12:37:08
334,-129,-439,819,-1596,-205,162,-858,-140,12:37:08
334,-124,-432,819,-1596,-205,295,-947,-257,12:37:08
319,-136,-403,688,-1366,-181,401,-979,-309,12:37:08
319,-136,-403,645,-1235,-162,416,-943,-269,12:37:08
337,-147,-424,693,-1126,-116,379,-898,-199,12:37:08
324,-142,-412,632,-988,-138,317,-882,-165,12:37:08
304,-148,-391,667,-791,-142,291,-877,-177,12:37:08
318,-136,-376,639,-578,-142,287,-899,-155,12:37:08
330,-157,-382,592,-443,-156,268,-904,-115,12:37:08
325,-160,-375,554,-382,-178,221,-908,-48,12:37:08
325,-160,-375,504,-368,-200,179,-911,-19,12:37:08
333,-162,-369,435,-350,-213,167,-928,20,12:37:08
351,-162,-363,307,-320,-235,166,-954,51,12:37:08
309,-153,-349,242,-295,-253,182,-938,9,12:37:08
309,-153,-349,290,-282,-240,206,-904,-35,12:37:08
310,-175,-355,379,-273,-224,206,-904,-35,12:37:08
340,-153,-354,417,-282,-242,204,-870,-49,12:37:08
340,-153,-354,408,-287,-269,184,-870,-24,12:37:08
325,-153,-348,384,-286,-280,189,-905,-8,12:37:08
325,-163,-336,396,-294,-287,212,-926,-22,12:37:08
327,-165,-331,439,-305,-301,216,-923,-43,12:37:08
316,-160,-360,439,-305,-301,203,-923,-47,12:37:08
336,-171,-349,478,-294,-326,179,-922,-34,12:37:08
334,-175,-328,509,-239,-360,152,-928,-25,12:37:08
334,-175,-328,517,-157,-394,142,-942,-9,12:37:08
346,-183,-334,506,-109,-438,150,-946,15,12:37:08
334,-196,-324,536,-119,-442,165,-954,62,12:37:08
343,-189,-327,534,-168,-455,194,-949,92,12:37:08
343,-189,-327,508,-238,-441,221,-936,83,12:37:08
337,-189,-310,424,-298,-439,238,-927,45,12:37:08
355,-175,-315,356,-353,-397,224,-947,16,12:37:08
355,-175,-315,260,-373,-368,187,-990,23,12:37:08
345,-186,-324,189,-360,-325,184,-1033,48,12:37:08
357,-190,-303,123,-357,-288,220,-1076,72,12:37:08
351,-210,-297,57,-466,-200,240,-1065,115,12:37:08
355,-196,-291,18,-457,-205,240,-1065,115,12:37:08
363,-214,-307,-37,-309,-245,220,-1043,117,12:37:08
363,-214,-307,-89,-169,-267,253,-1075,134,12:37:08
364,-214,-315,-155,-58,-233,314,-1145,195,12:37:08
369,-211,-303,-229,-4,-182,377,-1184,170,12:37:08
376,-229,-319,-229,-4,-182,426,-1187,72,12:37:08
358,-196,-312,-316,38,-135,462,-1221,-2,12:37:08
366,-211,-313,-440,117,-102,447,-1292,12,12:37:08
354,-202,-334,-595,245,-119,407,-1363,81,12:37:08
354,-202,-334,-784,455,-125,430,-1382,58,12:37:08
364,-214,-333,-1001,700,-77,491,-1368,-36,12:37:08
375,-192,-354,-1127,825,98,405,-1358,-57,12:37:08
379,-213,-358,-1203,861,253,61,-1308,-12,12:37:08
381,-219,-355,-1297,949,347,-131,-1270,-42,12:37:08
360,-210,-376,-1349,935,329,-130,-1327,-96,12:37:08
360,-210,-376,-1354,863,323,-139,-1402,-83,12:37:08
360,-210,-396,-1372,626,315,-154,-1449,-8,12:37:08
375,-195,-414,-1406,247,322,-199,-1469,69,12:37:08
369,-195,-412,-1459,-195,289,-221,-1441,76,12:37:08
378,-187,-450,-1526,-471,258,-231,-1386,14,12:37:08
355,-180,-450,-1570,-602,287,-162,-1312,-85,12:37:08
355,-180,-450,-1529,-703,385,-162,-1312,-85,12:37:08
352,-180,-475,-1442,-790,448,-49,-1247,-75,12:37:08
352,-192,-468,-1422,-573,355,-83,-1186,-94,12:37:08
363,-166,-484,-1422,-573,355,-148,-1122,-262,12:37:08
336,-144,-492,-1369,-101,310,-42,-1081,-325,12:37:08
361,-151,-502,-1275,307,447,226,-1167,-249,12:37:08
361,-151,-502,-1152,604,679,394,-1276,-156,12:37:08
349,-153,-489,-1133,987,808,262,-1268,-66,12:37:08
357,-153,-505,-1260,1155,765,169,-1192,-80,12:37:08
340,-130,-534,-1273,1318,739,163,-1103,-168,12:37:08
354,-121,-531,-1247,1511,703,65,-1003,-198,12:37:08
346,-112,-555,-1141,1684,645,-16,-848,-135,12:37:08
346,-112,-555,-1055,1696,532,-45,-703,-66,12:37:08
358,-102,-565,-1048,1801,382,-75,-629,-12,12:37:08
364,-94,-573,-1021,1808,264,-86,-611,38,12:37:08
376,-82,-589,-908,1774,202,-81,-600,61,12:37:08
391,-79,-622,-722,1785,202,-79,-611,121,12:37:08
400,-90,-612,-555,1704,207,-69,-605,157,12:37:08
400,-90,-612,-458,1624,175,-70,-567,149,12:37:08
405,-88,-628,-380,1514,144,-70,-567,149,12:37:08
405,-72,-633,-259,1344,116,-96,-516,130,12:37:08
405,-72,-633,-140,1141,106,-145,-452,131,12:37:08
402,-64,-658,-31,939,91,-196,-414,144,12:37:08
432,-75,-648,-31,939,91,-186,-449,158,12:37:08
438,-87,-639,80,744,95,-151,-478,190,12:37:09
438,-87,-639,214,564,120,-132,-466,233,12:37:09
435,-52,-645,369,400,149,-98,-462,264,12:37:09
427,-82,-640,527,277,165,-70,-452,291,12:37:09
412,-73,-628,665,174,177,-42,-444,333,12:37:09
442,-63,-646,769,94,179,-5,-427,377,12:37:09
438,-100,-627,844,12,169,23,-410,419,12:37:09
448,-96,-633,900,-65,170,51,-430,439,12:37:09
448,-96,-633,931,-82,159,75,-496,481,12:37:09
454,-99,-639,940,-40,145,100,-591,570,12:37:09
448,-99,-619,933,24,153,111,-699,671,12:37:09
448,-99,-619,890,70,191,124,-786,717,12:37:09
447,-114,-624,826,120,225,127,-919,798,12:37:09
444,-102,-607,714,186,268,127,-919,798,12:37:09
426,-102,-618,495,319,269,142,-1076,874,12:37:09
426,-102,-618,167,398,262,215,-1291,914,12:37:09
436,-106,-616,-130,317,284,283,-1594,955,12:37:09
439,-106,-607,-289,155,308,332,-1805,849,12:37:09
439,-106,-607,-415,292,273,337,-1803,682,12:37:09
427,-129,-609,-415,292,273,238,-1507,663,12:37:09
441,-115,-615,-477,687,186,-33,-887,730,12:37:09
457,-96,-595,-368,1049,84,-346,-226,765,12:37:09
457,-96,-595,-113,1128,5,-429,128,692,12:37:09
466,-105,-619,88,1039,-72,-377,183,558,12:37:09
471,-108,-627,162,709,-78,-379,-101,430,12:37:09
480,-91,-618,77,84,-66,-336,-724,223,12:37:09
480,-94,-631,10,-202,-16,-325,-1544,71,12:37:09
471,-105,-622,-290,137,-130,-280,-1994,28,12:37:09
471,-105,-622,-544,466,-265,20,-1998,273,12:37:09
465,-97,-631,-687,463,-161,491,-1997,720,12:37:09
471,-85,-642,-387,-434,156,576,-1360,322,12:37:09
471,-79,-612,256,-1239,296,-36,-456,-549,12:37:09
471,-79,-612,591,-1036,104,-618,-204,-493,12:37:09
472,-97,-640,462,-555,-179,-618,-204,-493,12:37:09
445,-97,-618,203,-583,-366,-620,-247,111,12:37:09
445,-97,-618,140,-1126,-361,-246,-331,292,12:37:09
451,-87,-625,406,-1690,-273,75,-412,2,12:37:09
444,-79,-637,761,-1856,-158,209,-546,-327,12:37:09
430,-90,-606,761,-1856,-158,262,-878,-471,12:37:09
430,-102,-594,955,-1588,-65,352,-1258,-396,12:37:09
414,-99,-592,976,-1163,9,530,-1501,-178,12:37:09
424,-84,-589,924,-977,55,627,-1533,31,12:37:09
424,-84,-589,852,-1012,79,509,-1358,166,12:37:09
421,-106,-577,793,-1103,66,264,-1115,215,12:37:09
400,-105,-577,827,-989,42,73,-965,207,12:37:09
390,-108,-558,900,-945,17,-53,-865,214,12:37:09
382,-115,-562,935,-1145,-28,-135,-741,218,12:37:09
381,-126,-543,984,-1360,-81,-156,-681,176,12:37:09
382,-112,-537,1033,-1437,-150,-39,-737,-31,12:37:09
382,-112,-537,1068,-1308,-132,172,-881,-226,12:37:09
384,-132,-538,996,-1182,-158,260,-929,-112,12:37:09
370,-144,-516,835,-1022,-298,330,-923,-140,12:37:09
352,-126,-504,784,-858,-268,419,-973,-209,12:37:09
352,-126,-504,734,-788,-186,411,-983,-62,12:37:09
369,-142,-477,692,-707,-123,411,-983,-62,12:37:09
369,-142,-477,707,-606,-70,355,-959,-36,12:37:09
363,-156,-495,655,-460,-86,262,-909,-33,12:37:09
369,-148,-489,586,-306,-116,190,-849,-13,12:37:09
366,-171,-495,548,-226,-120,170,-822,-30,12:37:09
352,-147,-465,548,-226,-120,138,-826,22,12:37:09
355,-159,-477,531,-269,-132,134,-838,46,12:37:09
355,-159,-477,523,-338,-162,151,-838,19,12:37:09
376,-163,-483,508,-402,-193,160,-857,5,12:37:09
375,-144,-451,518,-436,-207,170,-887,-5,12:37:09
354,-157,-450,518,-443,-223,164,-889,-1,12:37:09
367,-168,-472,525,-438,-226,143,-882,-5,12:37:09
339,-177,-429,518,-411,-234,127,-872,3,12:37:09
339,-177,-429,513,-385,-252,125,-867,17,12:37:09
366,-163,-439,545,-391,-261,137,-862,3,12:37:09
379,-172,-450,588,-403,-268,158,-858,-18,12:37:09
361,-156,-438,620,-455,-274,159,-853,-31,12:37:09
360,-171,-435,681,-455,-281,160,-854,-33,12:37:09
349,-190,-420,728,-406,-294,162,-873,9,12:37:09
363,-178,-391,725,-399,-336,176,-880,39,12:37:09
363,-178,-391,725,-332,-347,176,-880,39,12:37:09
370,-180,-391,676,-291,-368,185,-889,65,12:37:09
369,-195,-408,623,-289,-386,179,-912,113,12:37:09
382,-195,-397,536,-298,-399,206,-927,108,12:37:09
376,-190,-387,536,-298,-399,242,-979,88,12:37:09
378,-198,-381,413,-317,-392,243,-1052,117,12:37:09
378,-198,-381,294,-326,-370,270,-1100,111,12:37:09
382,-196,-391,172,-322,-352,340,-1128,51,12:37:09
382,-196,-391,103,-350,-291,332,-1132,58,12:37:09
373,-189,-382,83,-466,-200,197,-1111,124,12:37:09
399,-192,-390,47,-461,-200,67,-1119,187,12:37:09
396,-202,-382,-42,-274,-277,48,-1160,315,12:37:09
396,-202,-382,-114,-133,-317,141,-1178,405,12:37:09
385,-205,-412,-161,-35,-297,299,-1188,335,12:37:09
391,-175,-384,-215,-32,-291,373,-1131,237,12:37:09
391,-175,-384,-260,-51,-311,371,-1062,106,12:37:09
381,-193,-388,-479,84,-376,362,-1138,-43,12:37:09
388,-187,-418,-663,198,-321,428,-1302,-122,12:37:09
402,-205,-427,-836,497,-234,539,-1426,-134,12:37:09
402,-205,-427,-1026,770,-116,539,-1426,-134,12:37:09
396,-190,-421,-1157,938,134,603,-1469,-143,12:37:09
400,-177,-409,-1227,849,428,580,-1527,-134,12:37:09
396,-171,-433,-1201,854,614,85,-1492,-125,12:37:09
412,-165,-465,-1181,889,649,-241,-1372,-253,12:37:09
387,-159,-450,-1181,889,649,-159,-1408,-214,12:37:09
387,-159,-450,-1345,650,621,-224,-1530,9,12:37:09
412,-156,-472,-1446,308,575,-269,-1576,100,12:37:09
396,-135,-484,-1515,-58,487,-272,-1553,82,12:37:09
373,-133,-496,-1588,-336,389,-280,-1523,15,12:37:09
373,-133,-496,-1622,-520,325,-291,-1436,-62,12:37:09
388,-111,-519,-1589,-727,302,-240,-1238,-104,12:37:09
390,-126,-496,-1677,-1063,202,-133,-1139,-55,12:37:09
390,-126,-496,-1724,-1200,249,-16,-1254,-84,12:37:09
357,-90,-520,-1628,-962,317,-60,-1299,-123,12:37:10
360,-88,-505,-1519,-392,412,-89,-1208,-132,12:37:10
370,-94,-513,-1201,179,525,105,-1174,-314,12:37:10
372,-84,-531,-877,542,754,316,-1233,-331,12:37:10
358,-75,-526,-723,845,1010,343,-1286,-197,12:37:10
355,-81,-528,-938,984,977,268,-1224,-174,12:37:10
355,-81,-528,-1004,1139,941,268,-1224,-174,12:37:10
379,-64,-538,-926,1433,907,183,-1096,-232,12:37:10
351,-57,-544,-988,1682,831,61,-1009,-280,12:37:10
361,-42,-568,-961,2060,640,40,-869,-299,12:37:10
381,-28,-573,-1001,2153,438,42,-723,-221,12:37:10
385,-27,-591,-1001,2153,438,-4,-637,-74,12:37:10
403,-43,-588,-1033,2069,250,-75,-535,28,12:37:10
403,-43,-588,-939,2023,133,-120,-483,47,12:37:10
400,-37,-615,-792,1966,103,-117,-523,55,12:37:10
411,-13,-610,-595,1848,165,-116,-581,101,12:37:10
438,-1,-603,-396,1712,228,-128,-581,104,12:37:10
438,-1,-603,-281,1543,253,-173,-562,125,12:37:10
432,1,-634,-231,1361,250,-203,-560,119,12:37:10
447,-19,-631,-159,1192,248,-223,-528,117,12:37:10
447,-19,-631,-75,1044,222,-235,-472,132,12:37:10
442,-4,-633,43,869,217,-190,-445,156,12:37:10
445,4,-615,200,667,233,-139,-416,194,12:37:10
448,4,-618,396,486,247,-113,-354,236,12:37:10
462,-16,-627,588,311,245,-72,-292,259,12:37:10
469,-12,-637,761,175,228,-72,-292,259,12:37:10
471,-22,-621,892,61,195,-31,-271,282,12:37:10
471,-22,-621,982,-2,154,-13,-287,323,12:37:10
450,-30,-624,1031,-40,139,3,-334,379,12:37:10
463,-22,-625,1047,-30,127,42,-413,443,12:37:10
445,-42,-609,1021,-9,133,84,-516,537,12:37:10
445,-42,-609,1021,-9,133,147,-643,676,12:37:10
438,-37,-607,973,9,157,206,-778,800,12:37:10
474,-37,-610,899,67,189,248,-929,902,12:37:10
474,-37,-610,754,213,205,298,-1127,994,12:37:10
465,-45,-616,489,421,193,367,-1381,1039,12:37:10
469,-55,-574,135,564,202,424,-1642,998,12:37:10
466,-61,-597,-182,505,250,402,-1798,860,12:37:10
468,-58,-594,-364,257,329,274,-1763,670,12:37:10
460,-48,-594,-456,242,310,89,-1497,591,12:37:10
457,-49,-603,-499,579,200,-167,-1032,696,12:37:10
457,-49,-603,-466,973,73,-442,-573,766,12:37:10
462,-51,-595,-414,1127,-12,-538,-450,691,12:37:10
472,-45,-628,-392,1012,-178,-390,-829,544,12:37:10
480,-37,-615,-505,627,-253,-90,-1366,256,12:37:10
490,-31,-616,-686,198,-242,-28,-1705,18,12:37:10
501,-21,-624,-586,16,-214,-28,-1705,18,12:37:10
489,-19,-630,-364,-14,-135,-203,-1595,13,12:37:10
489,-19,-630,-122,-313,-81,-235,-1154,161,12:37:10
489,-22,-645,169,-685,-123,-221,-740,116,12:37:10
484,-22,-636,331,-757,-201,-256,-559,-103,12:37:10
480,-37,-615,331,-757,-201,-187,-622,-57,12:37:10
477,-37,-615,276,-753,-275,-16,-757,77,12:37:10
462,-19,-619,238,-987,-289,125,-836,-2,12:37:10
471,-16,-634,450,-1383,-232,155,-866,-212,12:37:10
471,-16,-634,707,-1558,-162,126,-1014,-313,12:37:10
445,-31,-622,844,-1436,-116,147,-1223,-270,12:37:10
436,-46,-603,844,-1086,-70,275,-1378,-174,12:37:10
426,-34,-588,742,-812,0,423,-1408,-39,12:37:10
424,-48,-595,682,-813,56,436,-1274,90,12:37:10
429,-52,-604,742,-1080,114,330,-1034,120,12:37:10
429,-52,-604,875,-1271,110,170,-849,105,12:37:10
421,-43,-583,910,-1352,55,42,-812,115,12:37:10
418,-45,-607,912,-1310,18,40,-848,71,12:37:10
408,-57,-589,946,-1356,3,45,-888,68,12:37:10
394,-79,-552,991,-1588,17,28,-885,71,12:37:10
385,-81,-561,1117,-1754,64,28,-885,71,12:37:10
385,-81,-561,1213,-1723,57,55,-867,-33,12:37:10
376,-79,-525,1131,-1530,-8,109,-874,-191,12:37:10
361,-85,-537,1038,-1253,-34,176,-923,-262,12:37:10
360,-79,-519,1038,-1253,-34,245,-956,-239,12:37:10
366,-75,-535,756,-1026,-206,324,-881,-243,12:37:10
364,-105,-523,708,-800,-216,350,-896,-246,12:37:10
364,-105,-523,814,-656,-84,318,-974,-127,12:37:10
354,-96,-501,724,-640,-119,243,-972,62,12:37:10
342,-97,-510,705,-666,-114,166,-912,60,12:37:10
351,-97,-484,742,-640,-83,121,-865,-13,12:37:10
357,-84,-493,681,-616,-150,84,-857,-2,12:37:10
345,-105,-495,640,-635,-195,60,-817,20,12:37:10
345,-105,-495,590,-679,-235,63,-817,12,12:37:10
339,-109,-457,540,-648,-254,114,-852,-32,12:37:10
340,-121,-469,499,-578,-269,169,-878,-68,12:37:10
343,-109,-475,448,-462,-308,206,-889,-66,12:37:10
337,-100,-466,424,-414,-318,220,-897,-50,12:37:10
375,-120,-454,427,-374,-325,205,-893,-43,12:37:10
375,-120,-454,442,-339,-334,191,-877,-45,12:37:10
348,-118,-447,544,-271,-341,170,-854,-54,12:37:10
355,-130,-445,571,-266,-360,141,-824,-43,12:37:10
355,-117,-445,586,-273,-364,133,-826,-10,12:37:10
352,-141,-457,586,-273,-364,134,-839,8,12:37:10
345,-150,-433,581,-282,-380,117,-875,25,12:37:10
345,-150,-433,595,-271,-375,104,-922,25,12:37:10
351,-120,-411,583,-276,-384,144,-961,58,12:37:10
367,-127,-441,572,-294,-373,177,-981,92,12:37:10
360,-139,-424,508,-327,-356,208,-1010,120,12:37:10
375,-142,-430,420,-348,-341,224,-997,97,12:37:10
364,-144,-414,341,-336,-318,231,-1002,72,12:37:10
364,-144,-414,218,-335,-333,258,-1020,54,12:37:10
364,-157,-414,80,-241,-347,257,-1018,-4,12:37:10
364,-157,-414,110,-356,-280,297,-1048,43,12:37:10
394,-157,-411,86,-432,-232,331,-1067,122,12:37:10
381,-144,-402,10,-340,-213,288,-1075,131,12:37:10
367,-130,-411,-51,-200,-219,252,-1103,186,12:37:10
367,-130,-411,-116,-29,-257,252,-1103,186,12:37:10
358,-160,-429,-217,41,-289,246,-1132,254,12:37:11
394,-160,-414,-359,-2,-249,300,-1199,249,12:37:11
393,-166,-412,-510,4,-141,374,-1295,97,12:37:11
376,-153,-421,-597,198,-30,430,-1389,-98,12:37:11
390,-153,-429,-597,198,-30,409,-1450,-98,12:37:11
384,-171,-427,-755,452,-23,331,-1449,9,12:37:11
384,-171,-427,-987,699,0,308,-1405,7,12:37:11
396,-144,-453,-1122,891,166,187,-1334,1,12:37:11
390,-141,-435,-1170,689,268,-147,-1314,-2,12:37:11
390,-141,-435,-1334,695,301,-269,-1316,-115,12:37:11
405,-151,-456,-1300,776,329,-171,-1250,-225,12:37:11
385,-148,-486,-1283,661,298,-196,-1338,-122,12:37:11
408,-129,-490,-1428,376,249,-256,-1563,63,12:37:11
408,-129,-490,-1495,2,286,-250,-1590,58,12:37:11
399,-124,-507,-1481,-363,304,-221,-1464,-4,12:37:11
397,-106,-511,-1574,-659,249,-188,-1415,-30,12:37:11
397,-96,-505,-1682,-847,197,-117,-1375,-93,12:37:11
396,-73,-508,-1583,-896,311,-116,-1290,-150,12:37:11
379,-91,-513,-1451,-875,407,-116,-1290,-150,12:37:11
390,-79,-526,-1312,-781,460,-137,-1222,-131,12:37:11
390,-79,-526,-1267,-496,436,-171,-1181,-109,12:37:11
384,-79,-513,-1160,24,395,-152,-1164,-173,12:37:11
370,-57,-531,-981,429,529,22,-1158,-305,12:37:11
385,-64,-525,-886,610,758,223,-1261,-256,12:37:11
379,-45,-543,-886,610,758,341,-1340,-98,12:37:11
387,-46,-546,-985,903,824,195,-1250,-2,12:37:11
387,-46,-546,-1148,994,742,50,-1122,-31,12:37:11
396,-28,-549,-1269,1099,653,60,-1001,-160,12:37:11
388,-28,-571,-1217,1353,593,19,-869,-156,12:37:11
396,-30,-567,-1091,1600,499,-31,-746,-88,12:37:11
396,-30,-567,-1032,1678,357,-35,-647,-51,12:37:11
408,-19,-573,-970,1780,259,-25,-608,-21,12:37:11
427,-21,-601,-890,1761,184,-38,-618,39,12:37:11
427,-21,-601,-788,1701,159,-26,-621,48,12:37:11
415,-1,-589,-638,1598,170,-23,-615,70,12:37:11
439,0,-607,-464,1508,191,-55,-602,104,12:37:11
433,12,-583,-296,1431,210,-108,-563,87,12:37:11
450,21,-607,-185,1334,186,-175,-500,107,12:37:11
445,-1,-615,-101,1197,163,-175,-500,107,12:37:11
466,6,-610,9,1035,151,-217,-456,142,12:37:11
466,6,-610,114,879,143,-220,-438,147,12:37:11
457,1,-600,209,716,132,-213,-415,170,12:37:11
457,9,-604,322,550,134,-178,-423,215,12:37:11
462,4,-603,322,550,134,-131,-426,245,12:37:11
462,4,-603,461,395,137,-91,-421,270,12:37:11
478,7,-624,618,263,151,-47,-417,289,12:37:11
466,-1,-576,751,160,165,-10,-418,325,12:37:11
466,-1,-576,838,84,172,40,-444,365,12:37:11
474,-4,-603,903,39,168,68,-481,402,12:37:11
460,-25,-597,949,23,169,75,-548,470,12:37:11
466,-22,-603,967,51,162,98,-614,548,12:37:11
463,-27,-598,975,104,159,145,-704,630,12:37:11
469,-24,-586,979,143,200,185,-809,681,12:37:11
457,-30,-592,936,181,238,213,-939,737,12:37:11
457,-30,-592,788,238,254,247,-1135,805,12:37:11
444,-48,-568,490,314,257,291,-1399,872,12:37:11
460,-45,-571,79,318,288,320,-1675,913,12:37:11
454,-51,-562,-239,182,340,293,-1801,783,12:37:11
466,-52,-595,-365,21,371,293,-1801,783,12:37:11
466,-52,-595,-457,176,320,236,-1730,622,12:37:11
457,-42,-573,-515,599,226,83,-1435,625,12:37:11
456,-37,-588,-387,1009,136,-188,-900,720,12:37:11
448,-36,-600,-127,1178,39,-405,-336,771,12:37:11
462,-45,-577,-127,1178,39,-461,-17,695,12:37:11
462,-27,-594,116,1016,-56,-370,-46,513,12:37:11
462,-27,-594,216,655,-95,-246,-515,371,12:37:11
463,-49,-597,184,165,-106,-180,-1168,185,12:37:11
472,-22,-582,27,-72,-143,-131,-1724,26,12:37:11
477,-19,-582,-302,39,-233,-80,-1996,101,12:37:11
469,-12,-606,-457,140,-237,32,-1998,314,12:37:11
477,-24,-582,-483,135,-119,185,-1634,561,12:37:11
477,-24,-582,-163,-653,41,65,-831,188,12:37:11
469,-31,-565,428,-1300,72,-322,-288,-453,12:37:11
469,-28,-589,723,-1164,-25,-565,-247,-324,12:37:11
451,-18,-583,561,-782,-162,-490,-367,127,12:37:11
457,-22,-573,340,-739,-291,-192,-482,216,12:37:11
433,-46,-574,397,-1130,-323,112,-613,-37,12:37:11
433,-46,-574,690,-1615,-289,359,-857,-369,12:37:11
414,-63,-556,919,-1726,-215,359,-857,-369,12:37:11
414,-63,-556,925,-1361,-137,506,-1159,-565,12:37:11
417,-51,-558,751,-977,-56,568,-1394,-493,12:37:11
423,-55,-561,595,-848,26,597,-1489,-221,12:37:11
417,-61,-547,595,-848,26,495,-1355,15,12:37:11
417,-61,-547,497,-858,72,258,-1086,149,12:37:11
409,-58,-523,478,-872,28,0,-828,203,12:37:11
393,-70,-538,570,-716,-57,-141,-715,207,12:37:11
394,-67,-510,676,-735,-81,-229,-720,269,12:37:11
394,-66,-523,749,-1012,-98,-254,-734,311,12:37:11
391,-84,-535,811,-1306,-158,-206,-738,207,12:37:11
378,-76,-522,782,-1306,-240,-71,-843,10,12:37:11
378,-76,-522,721,-1162,-270,161,-1034,-165,12:37:11
393,-82,-499,662,-1006,-237,372,-1121,-204,12:37:11
373,-93,-477,648,-937,-156,500,-1131,-185,12:37:11
373,-93,-477,721,-877,-45,495,-1076,-169,12:37:11
394,-73,-468,720,-853,-16,404,-956,-98,12:37:11
369,-85,-472,667,-734,-53,298,-869,-63,12:37:11
354,-93,-465,645,-481,-80,227,-822,-66,12:37:11
354,-93,-465,651,-254,-78,176,-800,-24,12:37:11
369,-96,-474,655,-183,-89,176,-800,-24,12:37:11
367,-96,-444,615,-308,-100,157,-875,7,12:37:11
372,-96,-448,599,-364,-107,167,-918,3,12:37:11
388,-105,-436,540,-386,-95,146,-939,20,12:37:11
366,-99,-450,540,-386,-95,144,-950,-13,12:37:11
366,-99,-450,464,-373,-113,149,-945,-32,12:37:11
367,-111,-426,451,-375,-128,147,-922,-20,12:37:11
360,-108,-429,464,-394,-131,132,-888,-2,12:37:11
372,-94,-415,483,-424,-164,107,-865,-14,12:37:12
357,-112,-409,466,-414,-207,119,-859,-28,12:37:12
345,-105,-415,493,-394,-228,122,-847,-34,12:37:12
345,-105,-415,519,-366,-250,118,-837,-37,12:37:12
370,-96,-408,556,-336,-279,119,-857,-42,12:37:12
352,-114,-417,597,-298,-321,135,-905,-58,12:37:12
369,-114,-394,636,-239,-338,154,-957,-6,12:37:12
369,-114,-394,623,-239,-382,187,-994,43,12:37:12
369,-130,-390,623,-217,-372,200,-999,44,12:37:12
363,-123,-394,572,-205,-406,196,-1017,74,12:37:12
363,-123,-394,553,-139,-387,196,-1017,74,12:37:12
369,-117,-390,499,-98,-375,206,-1023,87,12:37:12
382,-124,-369,380,-162,-396,211,-1018,115,12:37:12
379,-133,-384,254,-270,-292,250,-1052,132,12:37:12
385,-142,-366,254,-270,-292,172,-1094,185,12:37:12
378,-117,-378,147,-333,-269,170,-1097,153,12:37:12
378,-117,-378,43,-383,-247,212,-1087,103,12:37:12
388,-138,-393,-28,-376,-210,176,-1079,126,12:37:12
361,-124,-364,-82,-317,-210,142,-1054,150,12:37:12
375,-136,-366,-166,-133,-259,160,-1068,178,12:37:12
381,-136,-369,-266,44,-301,214,-1104,219,12:37:12
369,-136,-379,-388,143,-303,285,-1141,176,12:37:12
369,-136,-379,-494,119,-221,330,-1218,65,12:37:12
367,-132,-394,-564,79,-105,302,-1299,26,12:37:12
388,-139,-382,-674,168,-45,281,-1331,54,12:37:12
388,-136,-405,-870,397,-34,325,-1316,10,12:37:12
373,-123,-388,-1105,669,-58,424,-1301,-108,12:37:12
396,-124,-405,-1239,833,77,341,-1327,-104,12:37:12
396,-124,-405,-1202,576,310,-44,-1320,-50,12:37:12
399,-130,-420,-1235,529,402,-44,-1320,-50,12:37:12
399,-133,-426,-1348,600,385,-324,-1313,-112,12:37:12
375,-127,-432,-1382,470,420,-337,-1412,-155,12:37:12
393,-115,-450,-1399,18,431,-289,-1534,-101,12:37:12
378,-100,-442,-1500,-699,373,-280,-1575,45,12:37:12
372,-126,-451,-1500,-699,373,-292,-1579,144,12:37:12
372,-126,-451,-1451,-1116,391,-281,-1603,-33,12:37:12
354,-99,-448,-1261,-1243,523,-274,-1515,-123,12:37:12
369,-109,-450,-1283,-1411,545,-200,-1346,-54,12:37:12
358,-82,-468,-1313,-1668,493,-104,-1198,-83,12:37:12
348,-87,-462,-1239,-1340,514,-119,-1128,-223,12:37:12
336,-85,-459,-1103,-676,597,-71,-1068,-394,12:37:12
336,-85,-459,-914,200,642,147,-1062,-470,12:37:12
331,-61,-462,-735,831,807,321,-1171,-344,12:37:12
331,-61,-462,-858,975,765,257,-1143,-22,12:37:12
352,-58,-481,-1031,1170,655,165,-1104,25,12:37:12
340,-66,-511,-1187,1359,575,111,-1097,-95,12:37:12
343,-55,-498,-1327,1500,439,54,-978,-160,12:37:12
343,-55,-498,-1257,1675,369,11,-823,-164,12:37:12
330,-36,-516,-1159,1761,288,-48,-717,-56,12:37:12
345,-48,-526,-1072,1752,191,-99,-652,30,12:37:12
366,-36,-537,-1008,1711,109,-99,-652,30,12:37:12
349,-34,-571,-968,1687,45,-143,-620,69,12:37:12
375,-28,-565,-904,1582,9,-182,-631,103,12:37:12
375,-28,-565,-904,1582,9,-215,-652,133,12:37:12
366,0,-583,-784,1491,-1,-229,-668,162,12:37:12
390,-13,-571,-613,1386,46,-208,-686,161,12:37:12
399,-15,-576,-429,1292,103,-164,-678,125,12:37:12
399,-15,-576,-284,1197,136,-131,-648,105,12:37:12
406,-6,-612,-175,1084,156,-133,-618,118,12:37:12
415,-15,-606,-87,924,161,-122,-595,145,12:37:12
415,-15,-606,-10,760,161,-86,-583,191,12:37:12
423,-12,-616,66,604,170,-71,-566,255,12:37:12
418,-16,-589,159,465,175,-61,-534,299,12:37:12
417,-3,-613,278,343,191,-58,-498,331,12:37:12
403,-12,-595,415,256,211,-77,-444,339,12:37:12
411,-3,-603,557,189,217,-75,-409,340,12:37:12
408,-25,-598,679,128,225,-45,-430,345,12:37:12
408,-25,-598,758,86,195,0,-460,386,12:37:12
418,-15,-613,802,54,163,69,-506,456,12:37:12
406,-22,-601,820,16,146,69,-506,456,12:37:12
412,-13,-588,822,-23,140,136,-616,516,12:37:12
415,-30,-601,814,-66,160,167,-697,541,12:37:12
408,-42,-597,791,-65,177,170,-751,552,12:37:12
402,-45,-592,791,-65,177,161,-853,602,12:37:12
402,-45,-592,748,-56,220,160,-950,662,12:37:12
400,-24,-597,686,30,255,173,-1037,722,12:37:12
412,-54,-588,570,123,311,173,-1112,777,12:37:12
400,-46,-564,401,211,331,173,-1192,844,12:37:12
400,-46,-564,193,170,336,195,-1293,848,12:37:12
388,-48,-567,-21,36,319,213,-1394,718,12:37:12
405,-46,-579,-166,-88,291,185,-1425,563,12:37:12
405,-46,-579,-282,28,231,140,-1342,529,12:37:12
393,-42,-571,-407,420,127,28,-1071,619,12:37:12
399,-46,-576,-430,828,13,-142,-652,695,12:37:12
402,-33,-577,-286,1013,-56,-245,-322,688,12:37:12
424,-45,-582,-90,1009,-103,-231,-157,586,12:37:12
423,-33,-604,111,861,-99,-223,-137,448,12:37:12
426,-31,-603,273,476,-20,-292,-360,340,12:37:12
426,-31,-603,270,-38,55,-292,-360,340,12:37:12
417,-58,-589,57,-266,30,-263,-953,262,12:37:12
408,-40,-591,-207,-207,-28,-172,-1670,230,12:37:12
412,-52,-567,-410,-175,-65,-85,-1995,271,12:37:12
412,-52,-567,-448,-267,-18,87,-1998,344,12:37:12
402,-48,-592,-448,-267,-18,246,-1789,398,12:37:12
411,-48,-592,-227,-689,98,177,-1112,109,12:37:12
411,-48,-592,195,-1038,109,-158,-475,-391,12:37:12
418,-48,-579,441,-834,-27,-452,-277,-384,12:37:12
396,-55,-583,396,-559,-205,-443,-312,33,12:37:12
405,-55,-580,280,-691,-331,-230,-442,212,12:37:12
382,-48,-574,349,-1202,-354,11,-614,-25,12:37:12
369,-64,-559,567,-1694,-295,158,-886,-354,12:37:12
391,-67,-544,772,-1758,-209,256,-1201,-494,12:37:12
391,-67,-544,825,-1499,-92,419,-1403,-427,12:37:12
378,-64,-562,759,-1186,41,537,-1450,-245,12:37:12
367,-69,-555,700,-1001,163,514,-1366,-53,12:37:13
373,-78,-517,761,-1010,226,114,-934,135,12:37:13
345,-94,-510,769,-958,125,-61,-839,199,12:37:13
349,-76,-517,814,-1051,60,-61,-839,199,12:37:13
349,-76,-517,843,-1320,-77,-141,-815,251,12:37:13
346,-94,-516,898,-1407,-190,-216,-733,230,12:37:13
340,-96,-492,931,-1344,-255,-174,-754,61,12:37:13
319,-96,-459,931,-1344,-255,22,-871,-119,12:37:13
319,-96,-459,858,-1181,-333,203,-949,-238,12:37:13
316,-97,-441,808,-925,-348,335,-1038,-301,12:37:13
318,-102,-463,730,-725,-343,389,-1064,-221,12:37:13
318,-102,-463,667,-637,-296,387,-1030,-86,12:37:13
310,-120,-432,644,-571,-266,343,-968,-55,12:37:13
327,-132,-439,656,-457,-219,295,-920,-83,12:37:13
328,-120,-409,640,-338,-193,232,-904,-61,12:37:13
330,-124,-424,627,-267,-182,162,-869,-26,12:37:13
333,-129,-417,630,-254,-161,128,-849,0,12:37:13
328,-138,-430,596,-274,-151,98,-850,50,12:37:13
328,-138,-430,555,-332,-152,85,-841,70,12:37:13
321,-121,-412,517,-390,-175,98,-834,51,12:37:13
340,-133,-397,471,-434,-207,132,-859,9,12:37:13
336,-117,-369,452,-450,-222,178,-888,-16,12:37:13
336,-117,-369,438,-436,-226,202,-907,-4,12:37:13
330,-141,-384,432,-377,-232,202,-907,-4,12:37:13
327,-139,-366,429,-341,-244,210,-901,-3,12:37:13
327,-139,-366,455,-324,-248,220,-884,-13,12:37:13
333,-132,-382,501,-293,-251,221,-862,-34,12:37:13
337,-124,-372,553,-247,-262,208,-848,-63,12:37:13
340,-145,-349,553,-247,-262,186,-860,-63,12:37:13
339,-151,-360,591,-220,-277,162,-884,-36,12:37:13
336,-139,-366,604,-214,-306,143,-913,-7,12:37:13
334,-151,-345,611,-184,-312,115,-924,6,12:37:13
334,-151,-345,585,-166,-354,89,-945,40,12:37:13
340,-162,-351,588,-161,-354,82,-970,53,12:37:13
336,-148,-345,569,-161,-352,86,-991,46,12:37:13
328,-153,-328,513,-220,-395,116,-1032,41,12:37:13
348,-160,-328,492,-253,-378,131,-1053,32,12:37:13
342,-160,-321,404,-300,-379,124,-1065,40,12:37:13
349,-178,-315,346,-303,-343,123,-1080,45,12:37:13
349,-178,-315,264,-273,-314,122,-1090,67,12:37:13
355,-174,-322,165,-236,-302,146,-1088,91,12:37:13
355,-165,-328,59,-229,-294,180,-1078,92,12:37:13
352,-168,-316,19,-258,-266,179,-1062,94,12:37:13
352,-168,-316,5,-286,-242,179,-1062,94,12:37:13
367,-163,-319,-25,-224,-254,146,-1034,94,12:37:13
372,-169,-324,-74,-121,-287,120,-1037,106,12:37:13
372,-169,-324,-74,-121,-287,133,-1084,160,12:37:13
363,-186,-297,-161,11,-298,221,-1153,179,12:37:13
352,-181,-298,-262,100,-273,333,-1207,124,12:37:13
345,-171,-297,-345,94,-200,397,-1275,29,12:37:13
358,-168,-315,-401,149,-114,437,-1342,-41,12:37:13
379,-168,-333,-494,308,-58,442,-1374,-18,12:37:13
367,-181,-316,-662,499,-88,412,-1354,-13,12:37:13
367,-181,-316,-865,697,-106,389,-1321,-91,12:37:13
373,-183,-345,-1023,802,-4,266,-1330,-105,12:37:13
366,-178,-339,-1084,808,148,0,-1295,-64,12:37:13
369,-199,-361,-1190,802,205,-210,-1265,-27,12:37:13
369,-199,-361,-1358,879,152,-289,-1272,-43,12:37:13
373,-174,-393,-1407,882,117,-273,-1272,-90,12:37:13
369,-186,-402,-1390,715,112,-211,-1308,-89,12:37:13
369,-186,-402,-1356,461,129,-196,-1374,-21,12:37:13
364,-163,-412,-1381,49,116,-215,-1404,45,12:37:13
367,-165,-418,-1432,-320,114,-183,-1396,-27,12:37:13
364,-184,-426,-1487,-510,137,-159,-1331,-133,12:37:13
342,-201,-424,-1477,-538,194,-159,-1331,-133,12:37:13
361,-162,-439,-1387,-574,290,-175,-1252,-157,12:37:13
342,-174,-457,-1265,-609,443,-195,-1195,-106,12:37:13
342,-174,-457,-1265,-609,443,-167,-1130,-86,12:37:13
361,-169,-456,-1164,-589,393,-189,-1091,-121,12:37:13
339,-163,-444,-1146,-275,326,-183,-1096,-187,12:37:13
328,-154,-466,-1131,72,337,-7,-1135,-252,12:37:13
337,-150,-477,-998,424,453,161,-1190,-233,12:37:13
331,-139,-474,-1001,783,569,194,-1226,-74,12:37:13
342,-121,-504,-1176,975,590,129,-1181,40,12:37:13
342,-121,-504,-1241,1095,576,71,-1062,-26,12:37:13
342,-129,-499,-1191,1245,553,7,-913,-97,12:37:13
346,-138,-504,-1129,1400,478,-17,-792,-77,12:37:13
343,-115,-540,-1059,1467,370,-31,-729,-13,12:37:13
343,-115,-540,-991,1442,304,-39,-691,0,12:37:13
372,-106,-570,-884,1483,287,-47,-704,32,12:37:13
355,-103,-589,-806,1390,293,-74,-743,93,12:37:13
355,-103,-589,-732,1307,306,-76,-746,134,12:37:13
358,-96,-570,-656,1261,300,-76,-746,134,12:37:13
372,-82,-579,-583,1239,289,-75,-712,137,12:37:13
360,-91,-609,-488,1195,271,-84,-671,113,12:37:13
378,-93,-604,-361,1097,270,-118,-630,122,12:37:13
402,-90,-597,-229,1013,274,-150,-583,131,12:37:13
400,-79,-612,-229,1013,274,-164,-538,136,12:37:13
400,-79,-612,-142,900,252,-177,-499,166,12:37:13
408,-76,-627,-39,746,233,-177,-472,214,12:37:13
403,-69,-648,80,569,219,-165,-469,263,12:37:13
406,-72,-624,205,414,218,-151,-473,284,12:37:13
406,-72,-624,329,290,207,-129,-467,293,12:37:13
406,-96,-621,474,185,200,-122,-444,303,12:37:13
421,-87,-625,622,89,200,-117,-439,306,12:37:13
421,-87,-625,739,12,212,-81,-462,315,12:37:13
409,-99,-616,831,-24,205,-31,-514,346,12:37:13
394,-79,-615,888,-27,195,29,-598,398,12:37:13
400,-93,-619,912,-11,179,89,-704,485,12:37:13
384,-103,-621,898,38,168,125,-787,581,12:37:13
396,-114,-597,854,123,168,145,-857,659,12:37:13
400,-105,-592,773,203,183,176,-944,725,12:37:13
400,-105,-592,666,237,230,176,-944,725,12:37:13
399,-114,-585,518,276,262,186,-998,785,12:37:13
405,-115,-606,333,305,299,215,-1072,841,12:37:13
388,-142,-573,141,310,336,275,-1175,876,12:37:13
396,-124,-600,11,238,344,309,-1290,894,12:37:13
417,-118,-595,11,238,344,286,-1430,853,12:37:14
390,-103,-612,-65,77,351,270,-1492,723,12:37:14
390,-103,-612,-191,63,323,243,-1429,679,12:37:14
420,-114,-601,-403,392,244,84,-1141,733,12:37:14
376,-103,-606,-480,847,147,-154,-612,710,12:37:14
390,-115,-607,-297,1124,57,-296,-153,552,12:37:14
396,-102,-612,28,1155,-44,-304,101,369,12:37:14
424,-93,-631,322,852,-77,-328,89,289,12:37:14
420,-94,-624,344,217,-100,-399,-343,213,12:37:14
420,-94,-624,98,-137,-226,-489,-1145,195,12:37:14
412,-112,-627,-210,2,-367,-484,-1802,226,12:37:14
409,-105,-624,-459,506,-497,-363,-1996,219,12:37:14
438,-103,-618,-503,416,-282,336,-1772,471,12:37:14
430,-100,-630,-124,-572,20,332,-1091,49,12:37:14
420,-93,-648,530,-1234,145,332,-1091,49,12:37:14
420,-93,-648,759,-1204,11,-153,-454,-519,12:37:14
421,-97,-619,537,-845,-193,-488,-280,-368,12:37:14
406,-78,-607,258,-659,-361,-487,-311,26,12:37:14
406,-112,-618,179,-860,-436,-241,-385,162,12:37:14
406,-112,-618,179,-860,-436,27,-517,39,12:37:14
399,-103,-604,376,-1287,-389,224,-713,-206,12:37:14
406,-99,-588,692,-1478,-233,374,-994,-414,12:37:14
406,-99,-588,914,-1334,-74,480,-1299,-415,12:37:14
385,-123,-583,952,-1138,65,542,-1469,-216,12:37:14
360,-111,-562,858,-1136,172,473,-1479,74,12:37:14
361,-111,-576,702,-1241,278,308,-1327,249,12:37:14
340,-126,-540,698,-1159,328,166,-1056,113,12:37:14
363,-144,-562,777,-857,299,-34,-870,61,12:37:14
363,-144,-562,835,-788,221,-226,-761,225,12:37:14
346,-126,-534,854,-996,106,-281,-658,245,12:37:14
360,-126,-556,919,-1208,71,-228,-660,147,12:37:14
340,-120,-502,958,-1351,15,-133,-700,4,12:37:14
333,-150,-507,959,-1203,-35,29,-808,-194,12:37:14
319,-138,-469,933,-962,-58,29,-808,-194,12:37:14
319,-138,-469,800,-837,-129,143,-945,-162,12:37:14
319,-144,-477,725,-791,-142,245,-1006,-131,12:37:14
322,-138,-502,772,-781,-68,351,-1036,-170,12:37:14
340,-168,-471,829,-682,-31,355,-1004,-110,12:37:14
324,-148,-460,829,-682,-31,349,-948,-123,12:37:14
315,-172,-460,784,-576,-81,241,-892,-50,12:37:14
315,-172,-460,700,-443,-99,129,-876,12,12:37:14
312,-144,-451,627,-290,-126,117,-886,6,12:37:14
313,-166,-436,581,-268,-137,122,-889,-2,12:37:14
318,-180,-433,572,-346,-123,134,-891,-39,12:37:14
319,-151,-444,548,-394,-129,144,-893,-62,12:37:14
309,-178,-447,513,-403,-136,174,-913,-74,12:37:14
309,-178,-447,474,-382,-142,194,-930,-68,12:37:14
303,-160,-406,440,-366,-153,182,-929,-47,12:37:14
303,-160,-406,431,-357,-153,167,-917,-48,12:37:14
318,-193,-414,444,-343,-160,136,-906,-47,12:37:14
319,-177,-424,446,-337,-186,101,-899,-17,12:37:14
316,-186,-409,448,-312,-210,89,-890,-17,12:37:14
316,-186,-409,473,-262,-227,89,-890,-17,12:37:14
313,-178,-409,512,-214,-242,91,-922,-55,12:37:14
309,-162,-399,545,-190,-255,91,-922,-55,12:37:14
318,-187,-384,560,-205,-276,83,-954,-15,12:37:14
318,-187,-384,565,-212,-282,83,-963,23,12:37:14
318,-187,-384,565,-212,-282,88,-957,36,12:37:14
316,-181,-393,527,-226,-320,109,-957,15,12:37:14
340,-199,-376,529,-198,-317,132,-954,-1,12:37:14
325,-183,-384,510,-186,-309,155,-973,8,12:37:14
325,-201,-357,430,-232,-334,212,-992,-23,12:37:14
318,-205,-367,426,-249,-291,235,-1014,-35,12:37:14
318,-205,-367,401,-284,-241,216,-1071,-3,12:37:14
322,-196,-358,343,-301,-203,207,-1101,8,12:37:14
331,-198,-370,249,-288,-197,209,-1087,10,12:37:14
343,-198,-357,172,-240,-186,215,-1094,42,12:37:14
360,-205,-351,62,-268,-194,211,-1109,69,12:37:14
336,-211,-337,28,-317,-164,182,-1103,55,12:37:14
336,-211,-337,-14,-305,-161,123,-1078,34,12:37:14
331,-196,-334,-74,-220,-203,92,-1055,54,12:37:14
337,-195,-358,-148,-92,-272,119,-1071,142,12:37:14
354,-211,-360,-214,-19,-297,200,-1101,198,12:37:14
324,-183,-355,-291,9,-270,200,-1101,198,12:37:14
346,-204,-351,-269,-66,-211,302,-1112,115,12:37:14
346,-204,-351,-305,-80,-112,405,-1153,61,12:37:14
348,-207,-361,-353,56,-58,437,-1199,-28,12:37:14
358,-210,-366,-455,221,-63,362,-1265,-68,12:37:14
358,-231,-358,-455,221,-63,281,-1345,15,12:37:14
351,-219,-378,-626,403,-68,249,-1362,-3,12:37:14
349,-204,-373,-817,499,-22,183,-1356,-36,12:37:14
349,-204,-373,-964,527,48,35,-1326,-38,12:37:14
349,-189,-396,-1089,641,133,-80,-1293,-44,12:37:14
343,-199,-397,-1210,805,189,-140,-1278,-50,12:37:14
343,-199,-397,-1238,915,193,-159,-1214,-59,12:37:14
348,-199,-438,-1321,873,158,-175,-1254,16,12:37:14
364,-195,-450,-1404,632,159,-197,-1391,143,12:37:14
352,-177,-450,-1528,227,119,-200,-1411,133,12:37:14
352,-177,-450,-1558,-133,124,-164,-1389,12,12:37:14
373,-180,-444,-1609,-410,72,-110,-1349,-82,12:37:14
366,-174,-454,-1601,-642,93,-108,-1295,-88,12:37:14
351,-183,-465,-1470,-711,193,-153,-1272,-82,12:37:14
352,-163,-483,-1324,-701,312,-200,-1217,-75,12:37:14
355,-162,-490,-1254,-679,264,-200,-1217,-75,12:37:14
349,-148,-478,-1243,-357,250,-226,-1140,-111,12:37:14
349,-148,-478,-1177,17,270,-155,-1095,-251,12:37:14
348,-169,-495,-1163,378,354,-17,-1142,-269,12:37:14
319,-138,-486,-1163,378,354,104,-1253,-154,12:37:14
351,-139,-505,-1155,747,463,145,-1271,-86,12:37:14
340,-135,-513,-1231,958,524,125,-1227,-3,12:37:14
352,-126,-541,-1418,1053,506,106,-1095,-86,12:37:14
355,-121,-549,-1493,1218,430,16,-965,-157,12:37:14
355,-121,-549,-1420,1324,340,-49,-860,-76,12:37:14
358,-109,-565,-1290,1329,240,-85,-715,-17,12:37:14
357,-97,-553,-1211,1352,151,-56,-665,-23,12:37:14
357,-97,-553,-1084,1415,134,-43,-677,11,12:37:14
387,-88,-582,-1024,1391,100,-84,-666,94,12:37:15
370,-93,-592,-950,1454,95,-63,-661,81,12:37:15
402,-76,-615,-846,1483,127,-52,-696,82,12:37:15
402,-76,-615,-637,1467,172,-80,-659,65,12:37:15
403,-75,-607,-424,1402,186,-147,-561,87,12:37:15
405,-70,-627,-378,1286,126,-202,-497,139,12:37:15
411,-82,-616,-338,1148,47,-246,-413,147,12:37:15
415,-84,-642,-240,980,-9,-246,-413,147,12:37:15
423,-88,-634,-103,788,-31,-266,-354,163,12:37:15
438,-58,-631,79,581,-20,-244,-355,190,12:37:15
438,-58,-631,79,581,-20,-207,-367,215,12:37:15
439,-79,-639,462,226,47,-158,-402,242,12:37:15
436,-69,-618,462,226,47,-119,-423,283,12:37:15
436,-69,-618,641,98,111,-98,-417,321,12:37:15
430,-61,-643,800,8,150,-67,-426,363,12:37:15
417,-84,-634,908,-69,171,-45,-466,429,12:37:15
418,-88,-619,963,-162,189,-45,-506,488,12:37:15
418,-88,-619,980,-212,180,-26,-553,535,12:37:15
418,-114,-619,981,-172,173,4,-652,599,12:37:15
423,-99,-589,954,-78,177,22,-765,670,12:37:15
424,-99,-589,906,26,174,21,-856,730,12:37:15
415,-108,-603,825,131,183,25,-1004,821,12:37:15
432,-99,-612,686,252,183,50,-1145,863,12:37:15
432,-99,-612,462,379,189,68,-1287,882,12:37:15
414,-132,-592,157,429,223,74,-1496,910,12:37:15
429,-103,-576,-105,331,249,40,-1695,866,12:37:15
420,-111,-595,-319,23,269,38,-1766,700,12:37:15
418,-106,-582,-473,282,257,21,-1640,600,12:37:15
429,-91,-615,-583,665,184,-148,-1274,722,12:37:15
429,-91,-615,-583,665,184,-382,-795,818,12:37:15
439,-100,-597,-494,874,116,-522,-524,753,12:37:15
439,-97,-615,-336,901,-2,-476,-639,610,12:37:15
436,-97,-604,-276,779,-140,-295,-947,386,12:37:15
436,-97,-604,-248,550,-212,-153,-1208,156,12:37:15
433,-90,-604,-350,245,-215,-114,-1363,123,12:37:15
463,-81,-627,-334,78,-141,-148,-1244,206,12:37:15
463,-81,-627,-196,-137,-1,-171,-949,244,12:37:15
459,-87,-634,46,-591,87,-189,-654,101,12:37:15
445,-102,-639,333,-1017,79,-246,-546,-92,12:37:15
424,-84,-604,387,-1107,-7,-244,-681,-78,12:37:15
429,-112,-607,256,-967,-116,-147,-820,20,12:37:15
444,-108,-613,211,-982,-203,-32,-860,-8,12:37:15
426,-84,-601,345,-1109,-249,58,-895,-98,12:37:15
426,-84,-601,529,-1169,-244,129,-977,-114,12:37:15
423,-103,-625,663,-1124,-216,233,-1076,-117,12:37:15
430,-93,-586,737,-1038,-124,352,-1160,-154,12:37:15
402,-99,-577,730,-956,-26,379,-1193,-140,12:37:15
393,-99,-567,678,-889,77,379,-1193,-140,12:37:15
414,-124,-573,655,-836,152,345,-1162,-100,12:37:15
400,-129,-570,655,-836,152,268,-1083,-47,12:37:15
400,-129,-570,644,-838,181,149,-1001,99,12:37:15
409,-135,-558,659,-900,201,80,-903,162,12:37:15
396,-135,-553,793,-881,214,85,-842,59,12:37:15
393,-139,-531,878,-792,223,34,-893,88,12:37:15
367,-117,-528,929,-933,228,-49,-917,194,12:37:15
382,-133,-538,923,-1143,188,-89,-889,212,12:37:15
390,-135,-523,901,-1231,93,-109,-828,121,12:37:15
390,-135,-523,809,-1143,-35,-76,-833,-45,12:37:15
355,-151,-517,807,-903,-110,44,-912,-113,12:37:15
364,-156,-487,730,-732,-187,193,-973,-124,12:37:15
355,-144,-472,707,-616,-185,261,-1004,-124,12:37:15
361,-141,-492,700,-525,-175,254,-963,-94,12:37:15
363,-147,-483,679,-445,-172,251,-944,-69,12:37:15
366,-153,-492,665,-333,-168,222,-919,-72,12:37:15
366,-153,-492,680,-230,-141,173,-892,-68,12:37:15
352,-151,-472,711,-154,-94,173,-892,-68,12:37:15
366,-168,-460,704,-107,-84,131,-908,-15,12:37:15
339,-165,-427,637,-74,-115,115,-894,11,12:37:15
339,-165,-427,589,-93,-109,130,-872,10,12:37:15
354,-159,-454,574,-114,-114,139,-892,14,12:37:15
342,-171,-447,574,-114,-114,143,-910,3,12:37:15
342,-171,-447,569,-142,-136,140,-920,6,12:37:15
361,-180,-445,560,-179,-161,139,-933,4,12:37:15
378,-165,-424,550,-202,-182,133,-942,-4,12:37:15
351,-183,-426,546,-217,-200,110,-930,-1,12:37:15
355,-181,-412,529,-212,-224,85,-929,14,12:37:15
355,-186,-414,527,-217,-259,73,-905,8,12:37:15
364,-171,-418,539,-186,-280,74,-885,-12,12:37:15
364,-171,-418,552,-158,-303,71,-901,-22,12:37:15
373,-150,-399,578,-148,-326,58,-910,-19,12:37:15
375,-174,-412,608,-142,-331,70,-934,-18,12:37:15
370,-184,-381,612,-134,-329,88,-967,-3,12:37:15
370,-184,-765,606,-165,-332,103,-983,6,12:37:15
376,-204,-393,626,-182,-294,105,-995,24,12:37:15
375,-205,-388,620,-207,-284,52,-1030,96,12:37:15
375,-205,-388,609,-237,-276,52,-1030,96,12:37:15
384,-196,-379,570,-252,-265,71,-1016,102,12:37:15
387,-204,-384,482,-281,-300,142,-989,59,12:37:15
388,-195,-372,436,-273,-267,143,-1029,83,12:37:15
388,-181,-367,360,-238,-245,169,-1020,54,12:37:15
385,-190,-351,360,-238,-245,211,-1021,-3,12:37:15
385,-190,-351,282,-206,-231,233,-1068,20,12:37:15
394,-195,-351,182,-225,-232,263,-1061,31,12:37:15
378,-199,-352,117,-233,-203,271,-1047,28,12:37:15
391,-210,-345,80,-207,-170,241,-1049,44,12:37:15
384,-202,-348,37,-150,-159,173,-1062,78,12:37:15
387,-201,-366,-34,-86,-176,127,-1079,136,12:37:15
387,-201,-366,-98,-30,-197,146,-1090,181,12:37:15
409,-208,-367,-191,20,-221,211,-1136,170,12:37:15
400,-196,-340,-299,11,-186,280,-1193,85,12:37:15
400,-201,-357,-373,2,-112,332,-1260,-25,12:37:15
390,-213,-339,-408,114,-16,339,-1331,-45,12:37:15
381,-189,-367,-489,287,25,312,-1360,10,12:37:15
381,-189,-367,-650,457,6,293,-1361,0,12:37:15
409,-199,-369,-852,632,-17,254,-1363,-51,12:37:15
394,-196,-358,-998,767,80,254,-1363,-51,12:37:16
403,-186,-378,-1044,587,157,78,-1334,-19,12:37:16
385,-183,-375,-1223,557,140,-175,-1255,-2,12:37:16
406,-165,-409,-1379,630,138,-302,-1238,-63,12:37:16
406,-165,-409,-1379,630,138,-298,-1199,-129,12:37:16
384,-201,-391,-1406,697,144,-265,-1174,-151,12:37:16
388,-163,-423,-1382,585,179,-288,-1271,-1,12:37:16
403,-175,-439,-1436,266,154,-323,-1374,138,12:37:16
393,-178,-460,-1485,-76,117,-278,-1415,88,12:37:16
391,-178,-468,-1466,-354,133,-185,-1367,-30,12:37:16
391,-178,-468,-1362,-630,212,-133,-1302,-102,12:37:16
403,-154,-487,-1299,-786,269,-131,-1234,-115,12:37:16
403,-154,-487,-1283,-982,217,-132,-1115,-112,12:37:16
379,-148,-469,-1136,-809,247,-153,-1039,-193,12:37:16
390,-163,-477,-1066,-380,280,-86,-1039,-254,12:37:16
373,-150,-501,-1122,-11,254,0,-1056,-209,12:37:16
373,-150,-501,-1185,291,261,54,-1142,-144,12:37:16
369,-145,-489,-1242,462,327,94,-1199,-98,12:37:16
370,-159,-490,-1151,807,389,78,-1139,-176,12:37:16
372,-127,-514,-1201,1064,386,32,-1065,-112,12:37:16
396,-147,-529,-1264,1068,350,32,-1065,-112,12:37:16
391,-127,-522,-1185,1116,370,-10,-1003,45,12:37:16
369,-115,-540,-1058,1039,413,-16,-955,30,12:37:16
369,-115,-540,-1058,1039,413,-34,-893,29,12:37:16
393,-112,-562,-913,936,457,-80,-801,82,12:37:16
388,-112,-540,-794,827,432,-130,-738,101,12:37:16
388,-112,-540,-658,933,429,-140,-722,49,12:37:16
391,-103,-583,-606,1108,387,-132,-750,36,12:37:16
397,-88,-573,-625,1225,324,-130,-786,86,12:37:16
390,-88,-582,-606,1230,288,-128,-794,119,12:37:16
390,-88,-582,-553,1168,259,-144,-755,154,12:37:16
415,-84,-574,-474,1104,226,-191,-685,187,12:37:16
397,-64,-576,-406,953,182,-233,-645,206,12:37:16
397,-64,-576,-343,835,130,-257,-624,203,12:37:16
423,-70,-607,-277,740,72,-269,-607,191,12:37:16
436,-90,-595,-193,704,35,-255,-611,188,12:37:16
436,-91,-613,-63,650,39,-208,-601,191,12:37:16
436,-91,-613,86,545,75,-126,-649,226,12:37:16
430,-67,-616,214,429,133,-53,-711,298,12:37:16
427,-70,-600,440,196,210,-33,-682,348,12:37:16
439,-73,-622,545,139,222,-20,-644,365,12:37:16
444,-85,-606,615,135,219,-5,-637,364,12:37:16
439,-97,-607,615,135,219,19,-670,357,12:37:16
439,-97,-607,638,168,212,48,-718,386,12:37:16
432,-96,-601,627,186,207,60,-754,438,12:37:16
435,-97,-606,611,177,204,67,-793,449,12:37:16
415,-90,-580,581,159,196,71,-816,440,12:37:16
415,-90,-580,539,165,184,47,-834,440,12:37:16
429,-102,-612,519,182,177,11,-833,435,12:37:16
423,-88,-606,521,197,174,-20,-816,445,12:37:16
423,-88,-606,546,189,168,-43,-814,472,12:37:16
427,-108,-570,562,148,168,-48,-851,523,12:37:16
426,-114,-582,552,93,174,-33,-906,584,12:37:16
414,-115,-597,529,36,162,-13,-951,620,12:37:16
432,-121,-576,457,-30,145,-1,-1007,608,12:37:16
421,-102,-568,344,-26,115,10,-1081,560,12:37:16
412,-118,-576,184,60,88,9,-1156,518,12:37:16
412,-118,-576,42,179,71,-25,-1190,500,12:37:16
402,-132,-580,-15,304,67,-25,-1190,500,12:37:16
429,-108,-576,-7,437,95,-27,-1159,462,12:37:16
415,-100,-606,41,641,151,6,-919,422,12:37:16
442,-121,-582,119,520,175,-53,-771,429,12:37:16
442,-115,-585,119,520,175,-135,-712,420,12:37:16
442,-115,-585,171,338,167,-189,-766,381,12:37:16
438,-121,-592,158,248,122,-181,-902,321,12:37:16
435,-115,-576,147,292,52,-193,-1125,281,12:37:16
424,-111,-580,48,425,-27,-65,-1657,242,12:37:16
424,-115,-588,-57,357,18,78,-1711,267,12:37:16
441,-115,-589,-145,126,94,161,-1465,237,12:37:16
441,-115,-589,-55,-260,154,73,-1036,55,12:37:16
426,-129,-586,179,-546,147,-131,-706,-86,12:37:16
423,-120,-580,298,-539,71,-249,-570,-45,12:37:16
414,-117,-603,281,-376,-34,-248,-541,71,12:37:16
429,-120,-591,218,-284,-148,-149,-596,139,12:37:16
433,-94,-600,204,-310,-243,-19,-734,95,12:37:16
433,-94,-600,254,-374,-298,97,-876,-13,12:37:16
430,-109,-585,315,-350,-318,97,-876,-13,12:37:16
429,-121,-591,347,-245,-291,202,-971,-111,12:37:16
423,-138,-580,318,-110,-249,260,-1056,-147,12:37:16
430,-115,-585,303,-79,-163,278,-1146,-108,12:37:16
432,-106,-600,303,-79,-163,266,-1190,-16,12:37:16
432,-106,-600,296,-121,-60,234,-1183,45,12:37:16
429,-114,-583,303,-213,60,164,-1138,90,12:37:16
411,-135,-580,326,-365,148,85,-1055,127,12:37:16
414,-132,-601,365,-477,212,33,-975,114,12:37:16
409,-139,-568,394,-505,226,-16,-926,107,12:37:16
409,-118,-574,416,-483,203,-55,-893,111,12:37:16
409,-118,-574,415,-438,142,-75,-876,108,12:37:16
418,-144,-558,419,-393,81,-63,-886,82,12:37:16
405,-123,-571,414,-354,25,-35,-935,57,12:37:16
417,-145,-565,423,-350,-9,16,-984,39,12:37:16
393,-141,-568,414,-345,-40,94,-1006,16,12:37:16
384,-151,-577,397,-321,-57,161,-1013,-18,12:37:16
384,-151,-577,404,-276,-44,209,-1006,-60,12:37:16
406,-139,-553,429,-245,-3,221,-988,-59,12:37:16
396,-126,-555,432,-221,14,183,-956,-36,12:37:16
409,-142,-546,430,-180,16,183,-956,-36,12:37:16
405,-142,-562,434,-114,16,140,-934,-24,12:37:16
397,-166,-564,434,-77,24,117,-938,-7,12:37:16
397,-166,-564,434,-77,24,107,-944,11,12:37:16
400,-165,-556,437,-121,42,109,-950,17,12:37:16
387,-145,-546,437,-121,42,113,-959,14,12:37:16
388,-168,-549,427,-147,38,108,-972,7,12:37:16
364,-169,-544,406,-142,30,97,-985,-7,12:37:16
381,-183,-547,377,-91,11,92,-994,-8,12:37:17
381,-183,-547,340,-23,-4,96,-1009,7,12:37:17
376,-159,-538,329,14,11,108,-1034,26,12:37:17
393,-166,-528,287,-4,-26,74,-1008,45,12:37:17
394,-148,-544,259,-12,-51,37,-973,68,12:37:17
393,-171,-547,251,-46,-51,41,-987,88,12:37:17
396,-157,-526,254,-107,-44,33,-985,79,12:37:17
396,-157,-526,266,-112,-31,40,-967,49,12:37:17
387,-165,-538,260,-133,-27,57,-961,57,12:37:17
393,-180,-532,254,-182,-19,68,-966,70,12:37:17
384,-166,-525,245,-235,-9,85,-975,57,12:37:17
399,-184,-529,237,-274,-4,99,-985,43,12:37:17
402,-175,-517,234,-292,1,99,-985,43,12:37:17
402,-175,-517,234,-296,0,111,-988,29,12:37:17
376,-171,-516,226,-294,2,128,-992,15,12:37:17
379,-181,-516,210,-288,1,145,-995,-4,12:37:17
379,-178,-508,173,-273,-2,152,-1002,-15,12:37:17
376,-175,-513,173,-273,-2,145,-1001,-22,12:37:17
400,-172,-522,148,-245,-13,134,-1000,-36,12:37:17
400,-172,-522,115,-197,-30,117,-1011,-37,12:37:17
360,-195,-505,93,-126,-37,103,-1001,-35,12:37:17
375,-183,-528,77,-81,-44,95,-984,-38,12:37:17
378,-190,-535,68,-59,-56,81,-979,-37,12:37:17
387,-186,-522,71,-42,-70,72,-986,-38,12:37:17
394,-201,-526,82,-18,-75,77,-984,-34,12:37:17
394,-201,-526,99,-30,-77,85,-978,-19,12:37:17
397,-204,-519,114,-89,-67,91,-978,-5,12:37:17
375,-192,-526,126,-196,-65,78,-1013,-27,12:37:17
375,-192,-526,158,-198,-38,73,-1033,-53,12:37:17
381,-195,-526,175,-191,-24,88,-1004,-48,12:37:17
399,-177,-517,182,-201,-19,88,-1004,-48,12:37:17
385,-190,-514,191,-202,-11,79,-995,-28,12:37:17
385,-190,-514,205,-210,5,81,-986,-25,12:37:17
370,-181,-522,228,-245,19,91,-984,-33,12:37:17
364,-202,-520,247,-281,29,86,-995,-40,12:37:17
370,-199,-513,247,-294,26,80,-992,-62,12:37:17
390,-192,-505,247,-294,26,76,-987,-80,12:37:17
384,-208,-508,228,-275,10,77,-981,-83,12:37:17
379,-195,-502,181,-266,-52,90,-987,-79,12:37:17
379,-195,-502,156,-191,-56,93,-986,-96,12:37:17
372,-189,-508,124,-112,-63,84,-969,-112,12:37:17
373,-196,-495,105,-58,-75,81,-974,-120,12:37:17
376,-220,-502,98,-18,-84,70,-980,-121,12:37:17
373,-213,-525,90,15,-90,61,-980,-112,12:37:17
391,-204,-499,83,25,-92,59,-978,-101,12:37:17
391,-204,-499,74,22,-92,52,-964,-82,12:37:17
390,-190,-505,70,21,-98,45,-975,-82,12:37:17
379,-207,-480,78,33,-95,33,-989,-90,12:37:17
372,-210,-496,89,41,-95,23,-980,-84,12:37:17
372,-210,-496,91,60,-100,21,-977,-74,12:37:17
393,-204,-508,89,65,-98,21,-977,-74,12:37:17
388,-204,-514,90,57,-94,24,-973,-69,12:37:17
388,-204,-514,89,43,-86,31,-971,-79,12:37:17
409,-202,-499,86,28,-76,35,-973,-90,12:37:17
387,-214,-504,84,19,-68,34,-975,-96,12:37:17
378,-214,-502,86,15,-61,26,-981,-101,12:37:17
397,-204,-489,93,11,-56,20,-980,-87,12:37:17
394,-217,-487,96,4,-51,23,-977,-78,12:37:17
394,-217,-487,98,-9,-45,27,-972,-79,12:37:17
394,-228,-505,97,-26,-39,25,-969,-79,12:37:17
400,-214,-504,88,-41,-37,20,-971,-78,12:37:17
408,-229,-508,79,-49,-35,15,-976,-89,12:37:17
397,-214,-493,49,-26,-45,10,-982,-108,12:37:17
394,-211,-498,35,-2,-51,12,-985,-99,12:37:17
394,-211,-498,21,6,-56,19,-990,-78,12:37:17
399,-214,-486,14,-1,-56,29,-994,-71,12:37:17
385,-211,-493,9,-8,-57,35,-996,-75,12:37:17
399,-201,-495,9,-12,-56,32,-997,-86,12:37:17
412,-219,-501,16,-11,-54,26,-991,-94,12:37:17
405,-214,-477,26,-9,-53,20,-983,-89,12:37:17
405,-214,-477,35,-20,-53,20,-983,-89,12:37:17
388,-213,-489,37,-35,-52,16,-976,-80,12:37:17
405,-220,-502,33,-51,-51,13,-973,-74,12:37:17
399,-223,-516,30,-58,-50,14,-976,-85,12:37:17
396,-207,-501,30,-58,-50,11,-980,-104,12:37:17
396,-222,-501,25,-46,-51,5,-981,-110,12:37:17
396,-222,-501,22,-25,-54,2,-981,-101,12:37:17
393,-235,-483,18,-14,-53,5,-981,-84,12:37:17
396,-222,-511,14,-18,-49,11,-985,-68,12:37:17
405,-214,-487,12,-26,-43,13,-985,-68,12:37:17
417,-228,-499,14,-37,-38,16,-985,-75,12:37:17
400,-247,-481,16,-37,-35,16,-986,-80,12:37:17
400,-247,-481,18,-36,-34,15,-982,-86,12:37:17
403,-234,-477,19,-40,-34,12,-976,-89,12:37:17
394,-217,-484,18,-35,-36,13,-977,-84,12:37:17
405,-219,-484,13,-32,-35,17,-983,-80,12:37:17
421,-234,-508,14,-38,-35,20,-984,-83,12:37:17
391,-228,-481,10,-32,-36,22,-984,-86,12:37:17
391,-228,-481,5,-20,-37,22,-983,-86,12:37:17
400,-240,-501,6,-16,-37,22,-983,-86,12:37:17
394,-232,-480,6,-9,-36,22,-981,-85,12:37:17
394,-232,-480,6,-7,-35,21,-982,-80,12:37:17
402,-232,-489,10,-7,-35,16,-984,-77,12:37:17
399,-216,-475,17,-12,-32,10,-983,-81,12:37:17
409,-214,-495,17,-12,-32,8,-981,-80,12:37:17
409,-214,-495,23,-21,-30,2,-978,-79,12:37:17
414,-222,-496,23,-25,-31,1,-977,-86,12:37:17
402,-222,-475,16,-22,-35,0,-977,-88,12:37:17
403,-226,-468,16,-23,-35,4,-977,-82,12:37:17
385,-211,-480,13,-27,-32,11,-978,-77,12:37:17
400,-238,-484,13,-37,-27,10,-981,-84,12:37:17
400,-238,-484,14,-40,-21,5,-982,-94,12:37:17
393,-231,-483,11,-37,-18,3,-981,-92,12:37:17
402,-229,-496,11,-41,-18,7,-980,-83,12:37:18
391,-222,-472,7,-45,-18,13,-982,-81,12:37:18
409,-216,-498,5,-51,-16,16,-988,-84,12:37:18
391,-223,-505,4,-50,-16,14,-990,-84,12:37:18
405,-229,-486,4,-42,-21,9,-980,-76,12:37:18
405,-229,-486,0,-35,-28,9,-980,-76,12:37:18
411,-211,-495,-6,-38,-33,10,-973,-74,12:37:18
430,-231,-484,-11,-42,-33,15,-977,-75,12:37:18
415,-226,-475,-11,-40,-27,19,-987,-79,12:37:18
400,-217,-486,-11,-40,-27,25,-996,-98,12:37:18
400,-232,-474,2,-42,-18,23,-997,-108,12:37:18
400,-232,-474,16,-45,-7,11,-988,-96,12:37:18
412,-216,-492,23,-56,-4,0,-974,-84,12:37:18
406,-213,-487,20,-63,-6,1,-968,-82,12:37:18
391,-240,-502,17,-63,-8,8,-968,-86,12:37:18
403,-231,-505,17,-58,-10,9,-971,-92,12:37:18
391,-237,-492,11,-33,-18,10,-971,-94,12:37:18
391,-237,-492,6,-18,-22,15,-971,-91,12:37:18
408,-240,-477,2,-12,-25,22,-972,-87,12:37:18
405,-232,-490,2,-10,-23,25,-975,-90,12:37:18
406,-223,-501,6,-14,-21,26,-980,-94,12:37:18
409,-247,-493,11,-21,-15,29,-983,-96,12:37:18
375,-223,-486,19,-28,-9,28,-988,-100,12:37:18
375,-223,-486,24,-34,-4,19,-988,-104,12:37:18
408,-232,-487,25,-28,-5,9,-984,-98,12:37:18
403,-232,-487,22,-18,-9,9,-984,-98,12:37:18
405,-238,-499,16,-11,-11,8,-980,-87,12:37:18
418,-240,-478,8,-1,-18,11,-974,-84,12:37:18
405,-219,-496,8,-1,-18,16,-970,-87,12:37:18
405,-219,-496,0,5,-21,22,-975,-89,12:37:18
402,-240,-487,-3,4,-21,28,-982,-94,12:37:18
412,-241,-498,0,2,-18,33,-984,-105,12:37:18
405,-223,-475,1,2,-15,26,-983,-110,12:37:18
381,-216,-483,5,4,-11,16,-978,-104,12:37:18
408,-232,-484,1,10,-11,13,-974,-99,12:37:18
408,-232,-484,2,7,-11,16,-975,-97,12:37:18
403,-232,-474,7,2,-9,17,-974,-95,12:37:18
385,-223,-489,4,4,-11,20,-973,-95,12:37:18
394,-220,-489,2,5,-11,20,-973,-98,12:37:18
408,-228,-486,3,8,-11,16,-973,-98,12:37:18
405,-220,-480,0,12,-14,20,-972,-97,12:37:18
405,-220,-480,-4,9,-15,27,-975,-96,12:37:18
399,-228,-487,-6,4,-11,26,-976,-91,12:37:18
406,-226,-472,-9,-1,-9,26,-976,-93,12:37:18
406,-226,-472,-9,-2,-9,26,-976,-93,12:37:18
405,-219,-484,-8,1,-9,25,-979,-97,12:37:18
406,-226,-495,-5,14,-11,20,-984,-96,12:37:18
399,-220,-477,-2,16,-10,18,-988,-89,12:37:18
399,-220,-477,-2,16,-10,23,-989,-81,12:37:18
399,-228,-492,-2,4,-9,28,-988,-81,12:37:18
399,-216,-489,-1,-7,-7,25,-983,-88,12:37:18
403,-231,-472,-3,-6,-9,23,-980,-96,12:37:18
394,-226,-490,-6,0,-15,19,-982,-96,12:37:18
409,-240,-480,-9,4,-19,18,-982,-94,12:37:18
408,-231,-489,-11,4,-21,20,-980,-95,12:37:18
408,-231,-489,-9,13,-21,18,-979,-91,12:37:18
390,-238,-496,-5,14,-20,15,-977,-89,12:37:18
387,-229,-478,-3,5,-18,14,-977,-85,12:37:18
387,-229,-478,-2,9,-18,13,-978,-78,12:37:18
406,-222,-498,-3,7,-16,16,-981,-76,12:37:18
393,-228,-499,-3,-4,-14,18,-984,-81,12:37:18
387,-223,-490,-3,-6,-14,15,-985,-86,12:37:18
387,-223,-490,-3,-2,-14,14,-982,-82,12:37:18
408,-231,-490,-4,-5,-13,16,-979,-80,12:37:18
409,-229,-504,-4,-7,-13,17,-980,-86,12:37:18
391,-234,-489,-5,0,-14,15,-982,-89,12:37:18
405,-220,-492,-5,6,-15,16,-982,-83,12:37:18
411,-220,-486,-5,6,-15,19,-981,-76,12:37:18
411,-220,-486,-2,1,-14,24,-983,-75,12:37:18
400,-226,-490,0,-7,-11,27,-983,-81,12:37:18
403,-235,-492,1,-11,-8,25,-978,-88,12:37:18
405,-204,-469,4,-9,-9,20,-972,-92,12:37:18
418,-234,-496,3,-4,-14,16,-972,-90,12:37:18
391,-225,-511,1,0,-16,15,-978,-87,12:37:18
391,-225,-511,1,-1,-16,15,-983,-88,12:37:18
405,-220,-483,3,-6,-16,15,-984,-88,12:37:18
400,-220,-495,4,-12,-15,15,-984,-87,12:37:18
403,-223,-487,4,-15,-14,13,-985,-90,12:37:18
376,-229,-478,2,-14,-15,10,-980,-92,12:37:18
414,-204,-496,2,-9,-16,8,-976,-89,12:37:18
414,-204,-496,2,-10,-16,12,-974,-84,12:37:18
391,-223,-493,4,-15,-15,18,-975,-82,12:37:18
399,-222,-498,4,-21,-14,25,-978,-84,12:37:18
396,-240,-496,6,-20,-12,25,-978,-84,12:37:18
402,-229,-489,8,-14,-11,27,-982,-91,12:37:18
412,-232,-478,11,0,-12,25,-981,-99,12:37:18
412,-232,-478,8,7,-14,21,-981,-96,12:37:18
379,-231,-487,6,4,-16,19,-984,-87,12:37:18
402,-235,-507,6,4,-16,20,-985,-84,12:37:18
405,-216,-492,1,-2,-15,20,-986,-86,12:37:18
403,-219,-493,0,-9,-14,19,-981,-89,12:37:18
396,-231,-487,-4,-13,-16,19,-977,-90,12:37:18
396,-231,-487,-7,-9,-20,20,-978,-93,12:37:18
402,-223,-477,-7,-8,-21,23,-980,-95,12:37:18
393,-213,-477,-6,-4,-21,24,-980,-92,12:37:18
408,-232,-510,-2,-2,-19,23,-974,-89,12:37:18
418,-238,-489,0,-4,-20,23,-971,-90,12:37:18
411,-238,-486,0,0,-21,21,-971,-87,12:37:18
411,-238,-486,0,1,-23,19,-973,-86,12:37:18
406,-235,-490,6,-2,-23,20,-976,-90,12:37:18
396,-217,-493,8,-2,-24,22,-975,-88,12:37:18
409,-228,-489,7,-4,-23,24,-977,-84,12:37:18
415,-226,-486,7,-9,-23,24,-980,-83,12:37:18
402,-205,-472,7,-15,-22,24,-980,-83,12:37:18
402,-205,-472,6,-15,-21,23,-983,-86,12:37:18
409,-237,-499,5,-12,-21,21,-985,-89,12:37:18
394,-223,-459,5,-12,-21,23,-985,-86,12:37:18
394,-223,-459,4,-12,-20,26,-981,-81,12:37:19
390,-247,-486,3,-14,-19,25,-979,-76,12:37:19
411,-232,-504,1,-16,-19,23,-981,-78,12:37:19
403,-217,-492,1,-17,-20,21,-979,-81,12:37:19
403,-217,-492,0,-19,-22,19,-979,-85,12:37:19
414,-226,-480,0,-22,-23,18,-980,-91,12:37:19
396,-231,-472,2,-21,-23,16,-979,-94,12:37:19
396,-231,-472,2,-9,-24,18,-978,-91,12:37:19
406,-241,-490,0,-2,-23,22,-978,-88,12:37:19
394,-225,-493,-3,1,-23,21,-977,-84,12:37:19
399,-234,-493,-2,4,-22,24,-978,-81,12:37:19
399,-234,-493,1,-4,-19,27,-978,-83,12:37:19
400,-237,-496,4,-7,-18,26,-981,-87,12:37:19
414,-237,-483,6,-7,-18,20,-981,-90,12:37:19
409,-231,-486,11,0,-22,17,-979,-92,12:37:19
418,-243,-493,14,1,-25,17,-980,-91,12:37:19
402,-225,-504,16,0,-27,17,-980,-91,12:37:19
406,-225,-492,14,-4,-29,16,-978,-90,12:37:19
406,-225,-492,14,-1,-32,12,-976,-92,12:37:19
391,-223,-493,13,2,-33,11,-977,-95,12:37:19
397,-220,-484,13,2,-33,13,-978,-93,12:37:19
397,-220,-484,12,2,-33,15,-976,-89,12:37:19
417,-214,-493,10,-3,-32,17,-975,-89,12:37:19
402,-246,-469,8,-3,-32,17,-975,-90,12:37:19
405,-219,-487,4,-2,-32,15,-975,-86,12:37:19
405,-219,-487,3,-1,-30,16,-977,-83,12:37:19
414,-229,-480,2,-7,-26,17,-980,-83,12:37:19
393,-223,-489,2,-15,-23,14,-982,-86,12:37:19
403,-223,-486,0,-16,-21,12,-984,-90,12:37:19
414,-225,-502,-1,-13,-20,10,-984,-88,12:37:19
418,-213,-477,-2,-10,-20,8,-982,-85,12:37:19
400,-219,-490,-4,-5,-23,8,-979,-82,12:37:19
400,-219,-490,-3,-2,-24,12,-979,-80,12:37:19
387,-241,-489,-3,-4,-25,19,-981,-84,12:37:19
409,-225,-466,-2,-7,-25,23,-979,-86,12:37:19
409,-225,-466,-5,-18,-23,23,-979,-86,12:37:19
399,-232,-489,-5,-21,-23,26,-979,-86,12:37:19
403,-226,-499,-4,-16,-23,24,-980,-91,12:37:19
408,-225,-498,-6,-9,-25,20,-979,-96,12:37:19
408,-225,-498,-9,-3,-28,17,-980,-95,12:37:19
411,-223,-481,-9,-3,-28,15,-983,-90,12:37:19
417,-234,-495,-12,-1,-28,14,-984,-83,12:37:19
417,-234,-495,-16,0,-25,14,-984,-81,12:37:19
412,-234,-478,-14,-2,-23,12,-986,-84,12:37:19
412,-229,-501,-12,-3,-23,6,-984,-90,12:37:19
412,-229,-501,-12,-1,-24,4,-979,-90,12:37:19
402,-232,-486,-14,4,-24,6,-978,-89,12:37:19
408,-234,-475,-13,7,-25,9,-977,-88,12:37:19
409,-231,-502,-11,1,-24,10,-976,-83,12:37:19
402,-223,-481,-10,-5,-21,10,-978,-82,12:37:19
394,-234,-484,-10,-6,-21,11,-977,-88,12:37:19
424,-213,-495,-8,-7,-23,11,-975,-93,12:37:19
424,-213,-495,-7,-3,-25,8,-975,-95,12:37:19
411,-238,-484,-8,0,-26,7,-975,-92,12:37:19
412,-225,-507,-9,-4,-25,7,-975,-88,12:37:19
403,-214,-496,-9,-10,-24,7,-975,-88,12:37:19
403,-214,-496,-12,-3,-25,5,-975,-90,12:37:19
390,-213,-484,-12,-3,-23,1,-978,-88,12:37:19
412,-219,-495,-12,-5,-21,-1,-984,-82,12:37:19
412,-219,-495,-12,-5,-21,1,-985,-81,12:37:19
393,-238,-501,-14,-7,-19,2,-985,-86,12:37:19
414,-205,-484,-13,-11,-18,5,-986,-91,12:37:19
405,-216,-484,-11,-9,-17,6,-984,-93,12:37:19
394,-222,-483,-9,-3,-18,4,-981,-90,12:37:19
393,-232,-499,-6,-9,-18,5,-980,-82,12:37:19
417,-226,-477,-5,-14,-18,11,-983,-79,12:37:19
417,-226,-477,-3,-18,-17,16,-982,-82,12:37:19
411,-234,-499,-1,-21,-16,14,-980,-86,12:37:19
417,-219,-490,0,-22,-16,12,-981,-90,12:37:19
396,-232,-474,0,-19,-18,7,-980,-93,12:37:19
409,-211,-490,-2,-14,-19,1,-977,-86,12:37:19
402,-241,-501,-4,-8,-21,-1,-979,-78,12:37:19
402,-228,-484,-9,-6,-23,0,-982,-78,12:37:19
402,-228,-484,-9,-9,-21,2,-982,-82,12:37:19
406,-220,-478,-10,-9,-17,0,-983,-83,12:37:19
408,-229,-489,-9,-10,-14,0,-983,-83,12:37:19
411,-226,-472,-11,-13,-12,0,-983,-84,12:37:19
411,-226,-472,-11,-20,-11,0,-981,-83,12:37:19
408,-229,-495,-11,-23,-12,0,-980,-85,12:37:19
388,-214,-484,-11,-23,-12,0,-978,-87,12:37:19
388,-214,-484,-10,-20,-12,0,-975,-86,12:37:19
415,-240,-481,-8,-15,-11,3,-975,-85,12:37:19
408,-235,-486,-8,-16,-10,6,-977,-88,12:37:19
394,-232,-484,-10,-14,-8,3,-981,-87,12:37:19
391,-222,-501,-13,-11,-8,1,-979,-79,12:37:19
411,-231,-495,-17,-11,-7,2,-978,-71,12:37:19
411,-231,-495,-19,-15,-4,5,-977,-68,12:37:19
417,-208,-487,-24,-18,-3,8,-977,-70,12:37:19
408,-222,-487,-28,-20,-1,7,-980,-74,12:37:19
414,-217,-487,-30,-17,0,5,-984,-76,12:37:19
391,-220,-480,-32,-7,0,6,-985,-75,12:37:19
390,-229,-486,-35,-2,0,6,-985,-72,12:37:19
390,-229,-486,-37,0,0,4,-987,-70,12:37:19
403,-226,-490,-38,0,0,1,-985,-70,12:37:19
409,-237,-495,-39,0,-1,1,-985,-70,12:37:19
429,-234,-495,-35,-4,0,0,-981,-69,12:37:19
405,-244,-493,-35,-9,-2,-1,-978,-70,12:37:19
391,-223,-490,-33,-7,-4,-2,-975,-78,12:37:19
391,-223,-490,-33,-7,-4,-3,-976,-79,12:37:19
394,-216,-480,-29,-4,-6,0,-979,-75,12:37:19
396,-220,-495,-26,-3,-7,5,-983,-69,12:37:19
417,-219,-493,-18,-7,-6,8,-984,-69,12:37:19
393,-241,-498,-11,-10,-4,5,-985,-74,12:37:19
393,-241,-498,-7,-11,-4,1,-984,-74,12:37:19
403,-228,-498,-4,-13,-5,0,-981,-71,12:37:19
388,-220,-490,0,-11,-8,-2,-979,-72,12:37:19
388,-220,-490,-2,-14,-10,-5,-978,-73,12:37:20
393,-238,-486,-3,-11,-11,-5,-979,-71,12:37:20
417,-220,-483,-3,-12,-12,-1,-977,-68,12:37:20
400,-225,-495,-1,-14,-12,0,-979,-68,12:37:20
400,-225,-495,-2,-12,-12,4,-981,-70,12:37:20
409,-225,-496,-1,-9,-11,6,-979,-70,12:37:20
402,-210,-487,2,-15,-10,7,-978,-71,12:37:20
411,-238,-481,0,-18,-10,6,-978,-73,12:37:20
391,-234,-484,-2,-18,-10,6,-978,-73,12:37:20
394,-226,-475,-4,-16,-10,6,-981,-72,12:37:20
403,-220,-487,-4,-16,-9,9,-984,-70,12:37:20
403,-220,-487,-4,-16,-9,8,-984,-67,12:37:20
393,-217,-507,-4,-17,-8,6,-982,-64,12:37:20
411,-229,-475,-6,-16,-8,5,-982,-66,12:37:20
411,-229,-499,-4,-14,-8,4,-980,-71,12:37:20
400,-226,-478,-1,-14,-8,6,-978,-67,12:37:20
414,-211,-489,0,-11,-7,9,-979,-62,12:37:20
414,-214,-493,0,-15,-7,12,-979,-61,12:37:20
414,-214,-493,0,-20,-7,14,-977,-63,12:37:20
393,-226,-501,-1,-19,-7,14,-978,-67,12:37:20
397,-238,-490,0,-20,-9,12,-982,-69,12:37:20
397,-238,-490,-1,-16,-9,10,-981,-68,12:37:20
411,-211,-484,-4,-14,-10,10,-980,-68,12:37:20
406,-228,-477,-6,-11,-9,10,-980,-66,12:37:20
396,-222,-487,-7,-8,-9,8,-978,-62,12:37:20
396,-222,-487,-9,-9,-7,8,-978,-60,12:37:20
399,-232,-495,-11,-17,-4,10,-977,-58,12:37:20
406,-228,-492,-16,-14,-3,10,-979,-58,12:37:20
394,-210,-481,-16,-18,-1,10,-979,-58,12:37:20
387,-210,-505,-15,-21,0,13,-983,-62,12:37:20
432,-211,-504,-16,-18,-1,17,-983,-66,12:37:20
432,-211,-504,-16,-18,-1,15,-983,-67,12:37:20
418,-208,-505,-20,-10,-2,12,-979,-65,12:37:20
405,-219,-496,-23,-6,-5,12,-977,-61,12:37:20
403,-223,-483,-23,-5,-5,11,-981,-59,12:37:20
403,-223,-483,-21,-9,-5,13,-983,-60,12:37:20
402,-195,-484,-21,-16,-4,16,-982,-61,12:37:20
405,-225,-498,-18,-16,-3,14,-980,-66,12:37:20
405,-225,-498,-14,-11,-4,10,-977,-69,12:37:20
391,-223,-502,-9,-4,-5,10,-978,-66,12:37:20
403,-229,-495,-6,1,-7,12,-981,-64,12:37:20
390,-225,-501,-1,-5,-9,13,-981,-66,12:37:20
396,-225,-477,0,-4,-11,11,-981,-63,12:37:20
385,-211,-502,0,-7,-14,9,-982,-59,12:37:20
411,-222,-498,0,-16,-14,10,-982,-63,12:37:20
411,-222,-498,2,-24,-15,9,-978,-70,12:37:20
403,-213,-511,2,-21,-16,6,-973,-73,12:37:20
382,-228,-513,1,-15,-16,6,-973,-73,12:37:20
400,-220,-507,4,-9,-14,6,-980,-64,12:37:20
430,-228,-510,7,-15,-9,12,-980,-64,12:37:20
403,-219,-495,9,-16,-7,17,-982,-63,12:37:20
403,-226,-490,9,-16,-7,20,-982,-62,12:37:20
403,-226,-490,10,-22,-3,22,-979,-63,12:37:20
397,-201,-489,9,-28,-2,22,-979,-68,12:37:20
402,-226,-499,6,-21,-1,23,-980,-75,12:37:20
400,-210,-478,5,-11,-2,22,-977,-73,12:37:20
400,-210,-478,6,-7,-2,22,-977,-65,12:37:20
382,-225,-504,2,-6,-4,25,-979,-62,12:37:20
402,-232,-490,-3,-2,-7,28,-984,-63,12:37:20
402,-232,-490,-9,2,-9,32,-987,-64,12:37:20
406,-214,-484,-14,9,-12,33,-987,-66,12:37:20
388,-222,-501,-14,14,-15,32,-982,-70,12:37:20
397,-211,-492,-15,21,-16,28,-976,-73,12:37:20
385,-222,-493,-16,32,-18,23,-976,-72,12:37:20
387,-219,-516,-11,41,-21,20,-977,-69,12:37:20
396,-231,-498,-7,39,-21,18,-977,-66,12:37:20
396,-231,-498,-4,39,-20,19,-977,-62,12:37:20
415,-219,-510,-5,37,-17,19,-977,-62,12:37:20
412,-228,-520,-4,31,-14,21,-981,-59,12:37:20
385,-222,-486,0,28,-9,23,-982,-62,12:37:20
393,-234,-484,3,26,-9,21,-982,-71,12:37:20
408,-231,-504,4,30,-9,13,-982,-76,12:37:20
396,-229,-495,4,30,-9,6,-981,-74,12:37:20
396,-229,-495,4,34,-11,7,-981,-73,12:37:20
399,-231,-498,0,35,-13,9,-981,-68,12:37:20
