magX[mG],magY[mG],magZ[mG],gyroX[mdps],gyroY[mdps],gyroZ[mdps],accX[mg],accY[mg],accZ[mg],hh:mm:ss.ms
301,-171,-508,-13,-8,-7,223,-952,44,12:40:33
301,-171,-508,-13,-8,-7,223,-952,44,12:40:33
301,-171,-508,-13,-8,-7,223,-952,44,12:40:33
301,-171,-508,-13,-8,-7,223,-952,44,12:40:33
301,-171,-508,-13,-8,-7,223,-952,44,12:40:33
301,-171,-508,-13,-8,-7,223,-952,44,12:40:33
301,-171,-508,-13,-8,-7,223,-952,44,12:40:33
301,-171,-508,-13,-8,-7,223,-952,44,12:40:33
301,-171,-508,-13,-8,-7,223,-952,44,12:40:33
301,-171,-508,-13,-8,-7,223,-952,44,12:40:33
301,-171,-508,-13,-8,-7,223,-952,44,12:40:33
301,-171,-508,-13,-8,-7,223,-952,44,12:40:33
301,-171,-508,-13,-8,-7,223,-952,44,12:40:33
301,-171,-508,-13,-8,-7,223,-952,44,12:40:33
301,-171,-508,-13,-8,-7,223,-952,44,12:40:33
301,-171,-508,-13,-8,-7,223,-952,44,12:40:33
301,-171,-508,-13,-8,-7,223,-952,44,12:40:33
301,-171,-508,-13,-8,-7,223,-952,44,12:40:33
301,-171,-508,-13,-8,-7,223,-952,44,12:40:33
301,-171,-508,-13,-8,-7,223,-952,44,12:40:33
301,-171,-508,-13,-8,-7,223,-952,44,12:40:33
301,-171,-508,-13,-8,-7,223,-952,44,12:40:33
301,-171,-508,-13,-8,-7,223,-952,44,12:40:33
301,-171,-508,-13,-8,-7,223,-952,44,12:40:33
301,-171,-508,-13,-8,-7,223,-952,44,12:40:33
301,-171,-508,-13,-8,-7,223,-952,44,12:40:33
301,-171,-508,-13,-8,-7,223,-952,44,12:40:33
301,-171,-508,-13,-8,-7,223,-952,44,12:40:33
301,-171,-508,-13,-8,-7,223,-952,44,12:40:33
301,-171,-508,-13,-8,-7,223,-952,44,12:40:33
301,-171,-508,-13,-8,-7,223,-952,44,12:40:33
301,-171,-508,-13,-8,-7,223,-952,44,12:40:33
301,-171,-508,-13,-8,-7,223,-952,44,12:40:33
301,-171,-508,-13,-8,-7,223,-952,44,12:40:33
301,-171,-508,-13,-8,-7,223,-952,44,12:40:33
301,-171,-508,-13,-8,-7,223,-952,44,12:40:33
301,-171,-508,-13,-8,-7,223,-952,44,12:40:33
301,-171,-508,-13,-8,-7,223,-952,44,12:40:33
301,-171,-508,-13,-8,-7,223,-952,44,12:40:33
301,-171,-508,-13,-8,-7,223,-952,44,12:40:33
301,-171,-508,-13,-8,-7,223,-952,44,12:40:33
301,-171,-508,-13,-8,-7,223,-952,44,12:40:33
301,-171,-508,-13,-8,-7,223,-952,44,12:40:33
301,-171,-508,-13,-8,-7,223,-952,44,12:40:33
301,-171,-508,-13,-8,-7,223,-952,44,12:40:33
301,-171,-508,-13,-8,-7,223,-952,44,12:40:33
301,-171,-508,-13,-8,-7,223,-952,44,12:40:33
301,-171,-508,-13,-8,-7,223,-952,44,12:40:33
301,-171,-508,-13,-8,-7,223,-952,44,12:40:33
301,-171,-508,-13,-8,-7,223,-952,44,12:40:33
301,-171,-508,-13,-8,-7,223,-952,44,12:40:33
301,-171,-508,-13,-8,-7,223,-952,44,12:40:33
301,-171,-508,-13,-8,-7,223,-952,44,12:40:33
301,-171,-508,-13,-8,-7,223,-952,44,12:40:33
301,-171,-508,-13,-8,-7,223,-952,44,12:40:33
301,-171,-508,-13,-8,-7,223,-952,44,12:40:33
301,-171,-508,-13,-8,-7,223,-952,44,12:40:33
301,-171,-508,-13,-8,-7,223,-952,44,12:40:33
301,-171,-508,-13,-8,-7,223,-952,44,12:40:33
301,-171,-508,-13,-8,-7,223,-952,44,12:40:33
301,-171,-508,-13,-8,-7,223,-952,44,12:40:33
301,-171,-508,-13,-8,-7,223,-952,44,12:40:33
301,-171,-508,-13,-8,-7,223,-952,44,12:40:33
301,-171,-508,-13,-8,-7,223,-952,44,12:40:33
301,-171,-508,-13,-8,-7,223,-952,44,12:40:33
301,-171,-508,-13,-8,-7,223,-952,44,12:40:33
301,-171,-508,-13,-8,-7,223,-952,44,12:40:33
301,-171,-508,-13,-8,-7,223,-952,44,12:40:33
301,-171,-508,-13,-8,-7,223,-952,44,12:40:33
301,-171,-508,-13,-8,-7,223,-952,44,12:40:33
301,-171,-508,-13,-8,-7,223,-952,44,12:40:33
301,-171,-508,-13,-8,-7,223,-952,44,12:40:33
301,-171,-508,-13,-8,-7,223,-952,44,12:40:33
301,-171,-508,-13,-8,-7,223,-952,44,12:40:33
301,-171,-508,-13,-8,-7,223,-952,44,12:40:33
301,-171,-508,-13,-8,-7,223,-952,44,12:40:33
301,-171,-508,-13,-8,-7,223,-952,44,12:40:33
301,-171,-508,-13,-8,-7,223,-952,44,12:40:33
301,-171,-508,-13,-8,-7,223,-952,44,12:40:33
301,-171,-508,-13,-8,-7,223,-952,44,12:40:33
301,-171,-508,-13,-8,-7,223,-952,44,12:40:33
301,-171,-508,-13,-8,-7,223,-952,44,12:40:33
301,-171,-508,-13,-8,-7,223,-952,44,12:40:33
301,-171,-508,-13,-8,-7,223,-952,44,12:40:33
301,-171,-508,-13,-8,-7,223,-952,44,12:40:33
301,-171,-508,-13,-8,-7,223,-952,44,12:40:33
301,-171,-508,-13,-8,-7,223,-952,44,12:40:33
301,-171,-508,-13,-8,-7,223,-952,44,12:40:33
301,-171,-508,-13,-8,-7,223,-952,44,12:40:33
240,-207,-390,-4,-2,-14,260,-950,-51,12:49:37
252,-204,-393,-5,-2,-14,258,-949,-51,12:49:37
249,-223,-408,-7,-2,-16,259,-949,-50,12:49:37
252,-243,-424,-7,-2,-16,260,-950,-49,12:49:37
247,-204,-405,-7,-2,-16,260,-950,-49,12:49:37
247,-204,-405,-9,-1,-17,259,-953,-48,12:49:37
247,-220,-381,-8,-6,-16,260,-955,-46,12:49:37
240,-232,-403,-8,-7,-15,259,-950,-46,12:49:37
247,-207,-402,-8,-7,-16,257,-948,-47,12:49:37
262,-235,-397,-7,-6,-15,258,-947,-48,12:49:37
240,-208,-399,-7,-3,-14,261,-947,-48,12:49:37
240,-208,-399,-3,-6,-14,262,-947,-47,12:49:37
262,-220,-409,-3,-6,-12,262,-946,-47,12:49:37
241,-213,-382,-5,-7,-13,266,-938,-43,12:49:37
240,-228,-412,-8,-11,-12,267,-939,-43,12:49:37
232,-199,-409,-9,-9,-13,264,-942,-48,12:49:37
243,-226,-409,-9,-4,-15,261,-945,-49,12:49:37
243,-226,-409,-11,0,-17,263,-949,-43,12:49:37
229,-208,-399,-13,-1,-17,263,-949,-43,12:49:37
247,-223,-402,-12,-4,-16,268,-948,-39,12:49:37
241,-220,-393,-13,-3,-15,270,-947,-42,12:49:37
241,-226,-390,-11,-2,-14,269,-946,-46,12:49:37
240,-198,-385,-9,1,-13,270,-944,-48,12:49:37
253,-217,-402,-9,1,-13,271,-946,-50,12:49:37
253,-217,-402,-8,2,-12,270,-947,-51,12:49:37
255,-193,-411,-4,3,-11,265,-947,-52,12:49:37
247,-216,-394,-4,2,-11,262,-946,-50,12:49:37
247,-216,-394,-3,2,-13,264,-948,-46,12:49:37
247,-198,-393,-2,2,-12,263,-949,-45,12:49:37
246,-213,-409,-2,3,-13,261,-949,-48,12:49:37
246,-205,-400,-1,7,-13,260,-947,-52,12:49:37
246,-205,-400,-3,7,-14,256,-943,-50,12:49:37
249,-232,-408,-6,7,-14,257,-941,-46,12:49:37
247,-211,-387,-7,0,-14,260,-942,-46,12:49:37
235,-219,-381,-9,0,-14,261,-942,-50,12:49:37
229,-211,-393,-7,4,-15,261,-944,-51,12:49:37
265,-229,-394,-7,7,-14,262,-948,-47,12:49:37
238,-226,-394,-5,7,-16,262,-950,-47,12:49:37
238,-226,-394,-4,4,-16,263,-950,-45,12:49:37
252,-220,-378,-4,3,-16,262,-950,-44,12:49:37
244,-220,-394,-2,4,-16,257,-950,-44,12:49:37
244,-220,-394,-4,2,-17,255,-950,-45,12:49:37
258,-211,-385,-4,2,-17,258,-949,-43,12:49:37
234,-217,-379,-4,-2,-16,260,-948,-43,12:49:37
228,-223,-403,-4,-5,-17,260,-949,-45,12:49:37
228,-223,-403,-2,-6,-17,262,-949,-44,12:49:37
262,-234,-387,-1,-4,-16,260,-946,-42,12:49:37
240,-201,-399,0,-4,-15,262,-946,-42,12:49:37
255,-220,-403,1,-8,-14,262,-945,-40,12:49:37
261,-196,-390,2,-10,-12,261,-945,-37,12:49:37
253,-237,-418,2,-11,-10,265,-948,-39,12:49:37
243,-216,-411,4,-15,-9,268,-945,-41,12:49:38
243,-216,-411,4,-11,-9,268,-944,-41,12:49:38
247,-217,-396,5,-7,-9,270,-947,-40,12:49:38
258,-214,-387,6,-5,-9,272,-946,-40,12:49:38
258,-214,-387,4,-3,-9,271,-947,-38,12:49:38
243,-217,-408,3,-3,-11,267,-948,-39,12:49:38
264,-220,-385,1,-2,-14,267,-948,-39,12:49:38
238,-223,-405,0,1,-15,265,-949,-40,12:49:38
238,-223,-405,-1,0,-15,265,-952,-40,12:49:38
240,-220,-400,0,-2,-14,266,-951,-37,12:49:38
243,-211,-388,1,-7,-13,269,-948,-35,12:49:38
247,-229,-414,1,-7,-13,268,-947,-38,12:49:38
261,-223,-396,0,-6,-12,266,-948,-42,12:49:38
240,-204,-406,2,-2,-13,264,-947,-43,12:49:38
258,-229,-385,1,0,-15,261,-944,-41,12:49:38
258,-229,-385,0,0,-15,262,-944,-40,12:49:38
241,-207,-403,0,1,-16,264,-945,-40,12:49:38
259,-210,-402,0,-2,-16,265,-946,-41,12:49:38
246,-208,-417,-2,6,-18,263,-947,-39,12:49:38
252,-223,-408,-4,9,-18,261,-946,-36,12:49:38
240,-232,-399,-4,8,-17,263,-946,-36,12:49:38
246,-223,-424,-4,4,-16,265,-948,-37,12:49:38
246,-223,-424,-2,3,-14,265,-949,-39,12:49:38
252,-228,-402,-2,-2,-11,266,-950,-39,12:49:38
250,-208,-397,0,-7,-10,265,-952,-38,12:49:38
250,-208,-397,0,-4,-11,261,-954,-37,12:49:38
255,-228,-399,-3,0,-13,261,-954,-37,12:49:38
255,-208,-402,-5,0,-14,258,-951,-37,12:49:38
249,-211,-409,-7,2,-16,258,-950,-37,12:49:38
249,-211,-409,-9,2,-18,259,-950,-37,12:49:38
238,-198,-402,-10,1,-18,260,-948,-34,12:49:38
234,-228,-369,-10,1,-18,259,-945,-32,12:49:38
244,-202,-409,-10,0,-18,258,-945,-31,12:49:38
243,-217,-397,-10,-3,-16,263,-946,-30,12:49:38
247,-229,-397,-7,-7,-14,268,-948,-33,12:49:38
253,-211,-408,-4,-10,-11,268,-949,-34,12:49:38
253,-211,-408,-2,-9,-10,265,-947,-31,12:49:38
247,-208,-414,-1,-7,-11,262,-948,-30,12:49:38
226,-207,-388,-3,-2,-11,259,-949,-29,12:49:38
226,-207,-388,-5,-5,-11,258,-947,-27,12:49:38
246,-217,-384,-6,-7,-13,257,-948,-28,12:49:38
247,-217,-408,-6,-5,-14,258,-949,-28,12:49:38
247,-217,-408,-3,-7,-14,262,-947,-28,12:49:38
255,-210,-402,-1,-11,-14,264,-947,-29,12:49:38
252,-205,-399,-1,-11,-13,263,-948,-28,12:49:38
255,-222,-408,-1,-10,-11,264,-945,-26,12:49:38
241,-208,-388,-1,-9,-12,264,-945,-26,12:49:38
259,-211,-393,-2,-12,-11,266,-945,-24,12:49:38
243,-204,-388,-2,-14,-9,267,-945,-23,12:49:38
243,-204,-388,-2,-14,-9,267,-944,-24,12:49:38
252,-225,-397,-3,-11,-11,268,-945,-26,12:49:38
238,-204,-402,-3,-11,-11,266,-948,-26,12:49:38
241,-231,-412,-2,-7,-12,263,-951,-25,12:49:38
241,-231,-412,-2,-6,-11,263,-954,-27,12:49:38
240,-198,-396,-1,-6,-12,266,-952,-29,12:49:38
240,-198,-396,0,-4,-12,266,-951,-28,12:49:38
238,-216,-405,-1,-4,-12,264,-949,-26,12:49:38
243,-210,-400,0,-7,-12,261,-947,-28,12:49:38
238,-208,-390,0,-7,-13,259,-945,-31,12:49:38
235,-216,-394,0,-9,-14,258,-943,-30,12:49:38
229,-235,-396,0,-8,-13,258,-946,-31,12:49:38
247,-204,-400,0,-4,-11,263,-949,-33,12:49:38
247,-204,-400,2,-1,-10,264,-953,-33,12:49:38
247,-213,-397,0,1,-9,265,-955,-31,12:49:38
252,-208,-402,-2,1,-9,265,-953,-26,12:49:38
240,-217,-411,-7,1,-8,261,-951,-25,12:49:38
225,-217,-382,-9,-7,-9,261,-951,-25,12:49:38
240,-225,-405,-13,-4,-9,259,-951,-28,12:49:38
241,-222,-400,-14,-4,-10,257,-951,-33,12:49:38
241,-222,-400,-14,-4,-10,256,-950,-35,12:49:38
264,-214,-408,-16,-1,-11,258,-948,-34,12:49:38
252,-190,-409,-16,-2,-13,260,-944,-36,12:49:38
249,-192,-415,-16,-2,-12,260,-938,-41,12:49:38
231,-223,-408,-10,7,-13,260,-943,-41,12:49:38
228,-231,-397,-9,10,-13,260,-945,-36,12:49:38
228,-231,-397,-9,6,-11,263,-944,-35,12:49:38
229,-211,-388,-9,0,-9,267,-946,-38,12:49:38
234,-202,-399,-9,-2,-7,266,-949,-39,12:49:38
246,-217,-409,-6,-2,-6,260,-949,-37,12:49:38
246,-216,-403,-2,-2,-6,261,-948,-35,12:49:38
243,-223,-397,1,-7,-5,259,-948,-38,12:49:38
237,-229,-417,0,-4,-9,253,-948,-39,12:49:38
250,-220,-408,-1,0,-11,252,-944,-35,12:49:38
246,-211,-403,-4,0,-13,252,-944,-35,12:49:38
252,-204,-393,-6,-2,-13,255,-941,-34,12:49:38
253,-225,-388,-4,-2,-14,257,-942,-38,12:49:38
253,-225,-388,-1,0,-14,259,-946,-41,12:49:38
238,-205,-387,0,2,-11,261,-947,-38,12:49:38
238,-219,-408,0,2,-11,263,-945,-37,12:49:38
238,-208,-418,0,-1,-9,266,-945,-38,12:49:38
256,-214,-412,1,-4,-9,264,-947,-39,12:49:38
250,-225,-400,2,-3,-10,259,-950,-39,12:49:38
250,-225,-400,4,1,-12,258,-951,-36,12:49:38
250,-204,-402,3,2,-14,259,-950,-33,12:49:38
231,-205,-390,4,2,-14,261,-952,-33,12:49:38
231,-225,-402,2,1,-14,260,-950,-34,12:49:38
267,-204,-400,-1,2,-16,260,-947,-33,12:49:38
246,-207,-403,-1,2,-16,264,-946,-33,12:49:38
240,-214,-399,-1,-1,-14,270,-945,-33,12:49:38
240,-214,-399,0,-3,-11,268,-947,-36,12:49:38
249,-202,-412,0,0,-11,266,-947,-37,12:49:38
234,-201,-397,-2,7,-11,269,-946,-35,12:49:38
234,-201,-397,0,2,-9,274,-948,-33,12:49:38
258,-201,-402,0,0,-7,274,-948,-33,12:49:38
235,-217,-402,1,4,-8,277,-949,-35,12:49:39
256,-204,-405,2,9,-10,275,-951,-35,12:49:39
256,-204,-405,0,10,-10,272,-952,-30,12:49:39
234,-229,-403,-2,5,-9,273,-950,-25,12:49:39
234,-213,-390,-2,5,-9,272,-945,-27,12:49:39
237,-207,-409,-3,3,-9,270,-945,-31,12:49:39
259,-219,-406,-2,1,-9,271,-946,-31,12:49:39
238,-204,-412,0,2,-8,271,-944,-32,12:49:39
238,-204,-412,0,4,-9,271,-944,-30,12:49:39
259,-210,-409,-2,5,-9,273,-943,-31,12:49:39
253,-216,-424,-4,3,-7,273,-943,-33,12:49:39
247,-202,-387,-2,2,-7,269,-945,-34,12:49:39
247,-202,-387,0,4,-7,266,-945,-34,12:49:39
244,-213,-385,-1,9,-9,263,-941,-31,12:49:39
256,-205,-396,-2,9,-10,261,-941,-28,12:49:39
256,-205,-396,-3,4,-11,263,-944,-30,12:49:39
255,-210,-414,-2,2,-9,263,-946,-35,12:49:39
234,-211,-400,-1,1,-9,265,-948,-34,12:49:39
244,-226,-399,0,4,-8,266,-947,-31,12:49:39
244,-196,-382,0,0,-7,266,-947,-31,12:49:39
249,-226,-412,1,-2,-7,266,-948,-32,12:49:39
229,-210,-399,2,0,-9,265,-950,-33,12:49:39
229,-210,-399,2,0,-9,260,-950,-32,12:49:39
264,-199,-409,0,1,-9,261,-950,-29,12:49:39
264,-217,-397,-3,-1,-9,263,-947,-28,12:49:39
240,-223,-387,-3,-2,-9,264,-945,-29,12:49:39
240,-223,-387,-4,-2,-9,264,-946,-31,12:49:39
255,-214,-403,-3,-1,-9,266,-945,-32,12:49:39
229,-226,-412,-2,-3,-8,265,-947,-30,12:49:39
229,-226,-412,-2,-3,-8,262,-947,-29,12:49:39
244,-216,-403,-3,-2,-9,264,-945,-29,12:49:39
258,-214,-418,-5,-2,-10,270,-945,-29,12:49:39
247,-201,-402,-4,-8,-9,271,-945,-28,12:49:39
280,-202,-412,-2,-5,-9,267,-945,-29,12:49:39
243,-213,-400,0,-2,-9,268,-945,-26,12:49:39
240,-202,-403,0,0,-8,271,-946,-25,12:49:39
240,-202,-403,2,0,-7,271,-947,-27,12:49:39
246,-208,-393,3,-2,-7,269,-948,-27,12:49:39
255,-204,-388,3,-2,-5,269,-948,-27,12:49:39
238,-210,-396,2,0,-6,269,-948,-27,12:49:39
244,-229,-388,0,-1,-7,268,-947,-25,12:49:39
258,-214,-412,-2,-2,-7,268,-945,-23,12:49:39
240,-217,-384,-2,-2,-7,269,-942,-23,12:49:39
240,-217,-384,-3,-3,-9,269,-940,-24,12:49:39
247,-211,-403,-4,-2,-9,268,-941,-25,12:49:39
241,-220,-405,-4,0,-9,268,-942,-25,12:49:39
240,-202,-385,-4,0,-9,269,-943,-25,12:49:39
255,-217,-397,-2,1,-7,268,-945,-25,12:49:39
237,-207,-414,-3,0,-4,270,-948,-25,12:49:39
252,-211,-417,-3,-4,-2,273,-949,-26,12:49:39
252,-211,-417,-4,-4,-2,270,-948,-28,12:49:39
235,-202,-409,-2,-4,-2,268,-946,-29,12:49:39
249,-225,-399,-1,-4,-3,266,-948,-27,12:49:39
243,-202,-403,-1,-2,-4,261,-951,-23,12:49:39
253,-205,-417,-3,-2,-8,257,-951,-23,12:49:39
252,-208,-399,-7,-2,-9,256,-948,-23,12:49:39
241,-193,-411,-9,-7,-11,257,-945,-25,12:49:39
241,-193,-411,-9,-9,-11,261,-944,-27,12:49:39
240,-214,-402,-6,-9,-10,261,-944,-27,12:49:39
241,-216,-408,0,-8,-9,266,-945,-26,12:49:39
247,-222,-381,0,-11,-7,268,-948,-26,12:49:39
247,-222,-381,1,-7,-7,268,-950,-24,12:49:39
249,-223,-393,0,-9,-7,267,-947,-23,12:49:39
222,-216,-387,0,-9,-7,265,-943,-24,12:49:39
222,-216,-387,-2,-9,-7,265,-943,-23,12:49:39
246,-207,-394,-2,-11,-7,268,-945,-23,12:49:39
246,-202,-382,-2,-12,-7,269,-946,-23,12:49:39
261,-190,-403,-3,-15,-7,268,-946,-22,12:49:39
253,-210,-403,-1,-13,-8,269,-945,-26,12:49:39
253,-220,-402,0,-7,-9,269,-943,-27,12:49:39
246,-216,-397,2,-4,-9,270,-946,-23,12:49:39
246,-216,-397,2,-4,-7,271,-949,-19,12:49:39
240,-207,-400,3,-4,-7,269,-945,-20,12:49:39
229,-226,-423,4,-2,-6,269,-939,-23,12:49:39
237,-190,-394,4,0,-8,268,-939,-24,12:49:39
237,-190,-394,2,0,-9,268,-942,-26,12:49:39
243,-223,-406,2,2,-9,272,-946,-23,12:49:39
240,-210,-390,3,3,-9,275,-948,-19,12:49:39
240,-210,-390,4,2,-9,275,-948,-19,12:49:39
244,-213,-405,2,0,-9,273,-946,-20,12:49:39
241,-210,-393,2,0,-11,270,-942,-22,12:49:39
259,-198,-406,8,-2,-10,271,-942,-22,12:49:39
244,-207,-399,11,2,-11,273,-944,-26,12:49:39
249,-189,-402,11,2,-11,271,-943,-25,12:49:39
258,-208,-414,10,7,-12,268,-943,-25,12:49:39
258,-208,-414,10,7,-11,271,-945,-28,12:49:39
241,-210,-385,9,5,-9,274,-945,-27,12:49:39
243,-220,-418,7,2,-8,272,-945,-22,12:49:39
241,-211,-391,6,10,-8,270,-947,-24,12:49:39
238,-217,-376,8,4,-8,271,-946,-27,12:49:39
231,-208,-385,8,0,-7,273,-942,-25,12:49:39
246,-223,-397,8,-5,-8,275,-939,-23,12:49:39
246,-223,-397,6,-9,-7,277,-939,-27,12:49:39
238,-199,-406,6,-10,-8,277,-941,-30,12:49:39
238,-207,-397,5,-7,-9,278,-944,-27,12:49:39
250,-213,-391,3,-4,-9,278,-946,-22,12:49:39
238,-208,-403,2,-9,-10,276,-941,-21,12:49:39
249,-192,-400,2,-9,-9,276,-941,-21,12:49:39
255,-213,-403,2,-11,-9,276,-941,-20,12:49:39
255,-213,-403,1,-11,-8,276,-946,-22,12:49:39
240,-207,-408,0,-10,-7,277,-948,-25,12:49:39
237,-196,-405,0,-10,-7,278,-947,-25,12:49:39
246,-210,-393,0,-10,-7,276,-944,-25,12:49:39
240,-210,-408,0,-6,-10,270,-945,-26,12:49:39
246,-208,-406,0,-2,-11,270,-948,-26,12:49:39
237,-213,-384,0,0,-11,278,-948,-23,12:49:39
237,-213,-384,0,-3,-9,280,-949,-20,12:49:39
237,-213,-399,0,-7,-9,277,-946,-23,12:49:40
250,-202,-384,0,-9,-11,275,-942,-23,12:49:40
247,-222,-394,-2,-14,-10,277,-940,-23,12:49:40
246,-208,-396,0,-8,-12,280,-940,-28,12:49:40
232,-198,-394,3,-3,-13,279,-941,-32,12:49:40
226,-204,-402,5,0,-12,278,-942,-30,12:49:40
226,-204,-402,7,2,-11,278,-941,-23,12:49:40
252,-211,-388,9,2,-11,280,-942,-22,12:49:40
231,-216,-412,9,-1,-11,276,-941,-23,12:49:40
231,-211,-397,6,0,-12,277,-942,-27,12:49:40
246,-226,-405,5,-1,-13,277,-941,-27,12:49:40
235,-222,-391,4,-7,-12,279,-941,-28,12:49:40
243,-234,-397,3,-12,-10,279,-941,-25,12:49:40
243,-234,-397,4,-11,-11,276,-944,-27,12:49:40
231,-220,-402,4,-2,-14,270,-946,-31,12:49:40
253,-204,-396,4,-2,-14,269,-946,-27,12:49:40
226,-213,-390,5,1,-14,274,-945,-21,12:49:40
226,-213,-390,4,0,-15,280,-948,-20,12:49:40
226,-223,-394,1,-3,-14,281,-947,-22,12:49:40
244,-199,-412,2,-4,-12,281,-943,-25,12:49:40
244,-199,-412,2,-9,-11,284,-941,-26,12:49:40
241,-207,-388,0,-11,-9,281,-940,-30,12:49:40
252,-204,-406,0,-10,-9,277,-940,-30,12:49:40
237,-207,-394,2,-4,-12,275,-939,-26,12:49:40
243,-193,-391,-1,-4,-14,276,-942,-25,12:49:40
238,-219,-396,-2,-4,-15,282,-946,-25,12:49:40
247,-192,-423,-2,-4,-17,284,-947,-25,12:49:40
247,-192,-423,-3,-4,-19,281,-945,-26,12:49:40
238,-211,-390,-2,-2,-20,281,-944,-26,12:49:40
238,-216,-406,-2,-2,-19,283,-947,-29,12:49:40
232,-219,-382,2,-11,-17,283,-947,-31,12:49:40
232,-219,-382,0,-9,-19,278,-947,-31,12:49:40
252,-210,-405,0,-3,-21,270,-942,-31,12:49:40
244,-223,-390,0,-3,-22,270,-939,-30,12:49:40
244,-223,-390,0,-3,-22,272,-941,-32,12:49:40
265,-207,-396,2,2,-23,276,-944,-32,12:49:40
244,-228,-396,4,3,-21,279,-945,-31,12:49:40
244,-202,-399,4,1,-21,279,-943,-32,12:49:40
246,-207,-393,7,-1,-20,280,-943,-30,12:49:40
237,-198,-402,7,-5,-20,278,-939,-30,12:49:40
247,-211,-394,7,-8,-19,276,-937,-28,12:49:40
247,-211,-394,6,-9,-19,279,-940,-28,12:49:40
244,-208,-406,5,-10,-21,281,-942,-29,12:49:40
244,-217,-414,8,-8,-23,279,-942,-29,12:49:40
210,-216,-397,10,-4,-25,279,-945,-29,12:49:40
210,-216,-397,10,-3,-23,281,-947,-29,12:49:40
253,-205,-408,12,-2,-21,280,-946,-31,12:49:40
250,-205,-390,14,0,-21,276,-944,-29,12:49:40
250,-205,-390,16,1,-21,277,-943,-24,12:49:40
247,-202,-405,18,2,-20,281,-943,-22,12:49:40
246,-210,-402,18,2,-20,281,-943,-22,12:49:40
249,-213,-400,17,7,-21,282,-941,-22,12:49:40
240,-208,-391,16,2,-19,280,-941,-21,12:49:40
255,-208,-409,16,-3,-19,278,-940,-21,12:49:40
237,-217,-400,16,-3,-19,275,-933,-21,12:49:40
237,-217,-400,18,-5,-17,275,-932,-23,12:49:40
249,-201,-400,23,-5,-14,277,-939,-26,12:49:40
235,-196,-417,31,1,-13,276,-944,-25,12:49:40
234,-210,-370,39,6,-11,274,-946,-22,12:49:40
240,-210,-390,42,10,-12,270,-946,-18,12:49:40
252,-199,-406,39,9,-16,271,-944,-15,12:49:40
250,-211,-388,32,6,-20,273,-944,-17,12:49:40
250,-211,-388,30,4,-21,270,-942,-21,12:49:40
256,-217,-384,28,8,-23,271,-943,-22,12:49:40
252,-196,-408,30,13,-22,274,-946,-25,12:49:40
255,-213,-400,33,15,-20,278,-946,-29,12:49:40
238,-213,-396,35,17,-18,281,-946,-31,12:49:40
247,-217,-403,35,20,-17,279,-949,-33,12:49:40
249,-211,-406,32,23,-17,278,-951,-35,12:49:40
249,-211,-406,28,25,-18,274,-953,-36,12:49:40
244,-225,-406,24,28,-19,274,-953,-36,12:49:40
243,-216,-381,18,25,-21,267,-954,-33,12:49:40
228,-211,-393,15,21,-21,263,-951,-31,12:49:40
250,-225,-393,11,15,-21,256,-948,-38,12:49:40
243,-214,-399,11,15,-21,254,-946,-41,12:49:40
243,-214,-399,9,11,-22,257,-946,-39,12:49:40
258,-222,-406,7,8,-22,259,-949,-38,12:49:40
253,-211,-400,7,4,-21,261,-947,-39,12:49:40
240,-207,-405,4,0,-18,260,-946,-41,12:49:40
243,-217,-375,10,0,-18,260,-948,-45,12:49:40
243,-217,-375,14,-3,-16,262,-947,-48,12:49:40
241,-210,-384,16,-4,-14,261,-948,-51,12:49:40
241,-210,-384,17,-7,-14,258,-948,-50,12:49:40
255,-213,-400,16,-13,-13,255,-946,-45,12:49:40
259,-216,-417,13,-16,-13,253,-946,-42,12:49:40
259,-201,-394,10,-18,-15,254,-947,-44,12:49:40
252,-207,-382,7,-21,-15,259,-951,-44,12:49:40
244,-208,-397,7,-18,-14,261,-954,-42,12:49:40
267,-201,-403,8,-21,-12,260,-953,-42,12:49:40
267,-201,-403,9,-23,-9,260,-953,-42,12:49:40
234,-225,-399,7,-28,-7,258,-953,-43,12:49:40
241,-225,-396,7,-30,-8,255,-951,-44,12:49:40
255,-195,-379,5,-28,-11,256,-949,-44,12:49:40
253,-207,-379,5,-25,-12,256,-949,-44,12:49:40
258,-220,-382,5,-25,-12,258,-949,-47,12:49:40
229,-211,-405,4,-23,-14,263,-947,-48,12:49:40
229,-211,-405,4,-21,-14,266,-946,-45,12:49:40
240,-201,-385,4,-21,-14,268,-947,-42,12:49:40
222,-208,-408,2,-23,-11,269,-948,-42,12:49:40
243,-201,-399,6,-24,-10,268,-947,-49,12:49:40
238,-216,-397,7,-9,-11,266,-947,-54,12:49:40
249,-214,-394,11,-16,-10,266,-949,-53,12:49:40
244,-214,-399,12,-14,-11,263,-949,-48,12:49:40
244,-214,-399,11,-11,-12,261,-947,-43,12:49:40
246,-214,-397,9,-11,-12,264,-947,-45,12:49:40
244,-211,-400,7,-11,-13,263,-946,-50,12:49:40
243,-202,-400,4,-10,-15,260,-945,-54,12:49:41
255,-199,-397,2,-9,-16,262,-950,-55,12:49:41
240,-204,-406,-2,-14,-16,267,-955,-53,12:49:41
240,-204,-406,-5,-16,-16,266,-953,-51,12:49:41
247,-210,-394,-10,-18,-19,261,-948,-47,12:49:41
244,-208,-405,-14,-18,-22,259,-947,-47,12:49:41
261,-207,-402,-16,-16,-26,259,-946,-52,12:49:41
243,-190,-396,-16,-16,-26,263,-945,-53,12:49:41
261,-214,-409,-18,-14,-30,268,-945,-49,12:49:41
261,-214,-409,-19,-14,-30,272,-946,-44,12:49:41
244,-216,-390,-20,-16,-30,275,-945,-42,12:49:41
243,-208,-399,-16,-22,-27,277,-944,-39,12:49:41
244,-196,-397,-15,-28,-25,277,-942,-41,12:49:41
258,-201,-399,-15,-26,-26,275,-945,-45,12:49:41
247,-207,-399,-15,-18,-28,272,-950,-41,12:49:41
247,-207,-399,-14,-14,-30,276,-948,-37,12:49:41
234,-208,-387,-15,-8,-33,278,-948,-35,12:49:41
244,-201,-396,-16,-3,-35,276,-946,-34,12:49:41
244,-217,-399,-16,4,-37,276,-940,-31,12:49:41
243,-222,-391,-14,7,-37,277,-935,-26,12:49:41
249,-208,-400,-9,7,-35,277,-935,-27,12:49:41
249,-208,-400,-3,10,-35,277,-934,-27,12:49:41
243,-210,-388,0,18,-35,277,-934,-27,12:49:41
232,-198,-405,5,22,-34,276,-932,-26,12:49:41
247,-222,-378,12,22,-31,281,-936,-25,12:49:41
256,-219,-399,18,22,-28,287,-940,-24,12:49:41
253,-205,-402,18,22,-28,290,-941,-27,12:49:41
253,-205,-402,21,23,-24,289,-947,-32,12:49:41
255,-202,-402,23,32,-22,280,-949,-32,12:49:41
229,-231,-382,22,37,-22,273,-947,-28,12:49:41
229,-231,-382,19,40,-22,273,-943,-25,12:49:41
244,-211,-382,16,40,-22,274,-942,-25,12:49:41
271,-229,-399,11,44,-23,272,-942,-25,12:49:41
256,-210,-420,6,44,-24,271,-945,-24,12:49:41
256,-210,-420,1,45,-26,268,-951,-22,12:49:41
259,-213,-394,1,45,-24,265,-949,-26,12:49:41
244,-214,-382,2,40,-23,264,-947,-30,12:49:41
264,-195,-388,-2,39,-23,267,-946,-30,12:49:41
252,-208,-391,-3,37,-21,268,-948,-29,12:49:41
253,-198,-399,0,35,-21,269,-949,-32,12:49:41
253,-198,-399,3,35,-18,270,-949,-37,12:49:41
235,-193,-397,2,33,-15,269,-947,-38,12:49:41
247,-214,-400,2,26,-13,269,-947,-38,12:49:41
238,-211,-394,4,21,-11,263,-945,-38,12:49:41
270,-219,-409,5,24,-13,256,-944,-41,12:49:41
240,-208,-405,5,27,-14,256,-941,-41,12:49:41
255,-238,-399,5,27,-14,259,-943,-40,12:49:41
255,-238,-399,5,28,-16,262,-945,-43,12:49:41
237,-205,-399,7,32,-16,266,-947,-40,12:49:41
241,-211,-396,9,34,-16,266,-950,-39,12:49:41
244,-213,-378,7,36,-18,265,-947,-38,12:49:41
244,-213,-378,6,31,-18,267,-945,-40,12:49:41
249,-216,-399,7,28,-19,263,-944,-42,12:49:41
244,-210,-405,9,31,-19,257,-938,-42,12:49:41
244,-210,-405,9,30,-21,254,-936,-41,12:49:41
258,-225,-396,10,29,-18,259,-944,-39,12:49:41
249,-207,-388,14,30,-15,263,-953,-36,12:49:41
255,-202,-393,19,35,-13,263,-957,-34,12:49:41
240,-213,-399,21,31,-10,264,-960,-31,12:49:41
258,-196,-381,20,29,-11,263,-960,-30,12:49:41
256,-226,-405,19,32,-14,260,-956,-37,12:49:41
256,-226,-405,16,33,-18,260,-956,-37,12:49:41
267,-216,-394,11,35,-21,261,-952,-39,12:49:41
258,-213,-394,5,36,-23,263,-946,-39,12:49:41
250,-220,-400,0,34,-24,261,-941,-41,12:49:41
250,-220,-400,-2,30,-23,261,-938,-42,12:49:41
247,-208,-397,-2,30,-23,262,-938,-40,12:49:41
252,-213,-403,-2,27,-21,261,-939,-43,12:49:41
252,-213,-403,-2,27,-20,261,-941,-50,12:49:41
265,-229,-409,0,28,-17,262,-944,-50,12:49:41
247,-223,-408,0,25,-15,261,-949,-46,12:49:41
246,-207,-400,0,26,-15,259,-953,-42,12:49:41
240,-226,-385,-12,45,-30,268,-939,-53,12:49:41
250,-228,-403,49,-71,14,214,-973,54,12:49:41
246,-223,-411,70,-131,27,212,-972,-14,12:49:41
246,-223,-411,31,-29,-4,256,-925,-112,12:49:41
238,-238,-405,21,-16,0,256,-945,-22,12:49:41
256,-210,-399,32,-54,20,264,-961,-34,12:49:41
246,-201,-397,32,-65,23,257,-954,-53,12:49:41
250,-214,-405,19,-46,13,258,-943,-61,12:49:41
231,-226,-408,10,-18,7,258,-943,-61,12:49:41
241,-214,-409,1,10,-1,261,-936,-61,12:49:41
241,-214,-409,-1,37,-11,263,-935,-61,12:49:41
247,-195,-412,3,45,-16,265,-940,-51,12:49:41
237,-229,-409,9,50,-20,267,-947,-36,12:49:41
240,-205,-402,10,56,-24,269,-948,-31,12:49:41
252,-198,-397,10,56,-24,267,-947,-29,12:49:41
255,-220,-403,4,59,-30,265,-950,-24,12:49:41
262,-210,-397,2,56,-32,264,-954,-20,12:49:41
262,-210,-397,2,44,-30,259,-954,-21,12:49:41
247,-196,-408,5,28,-26,256,-957,-28,12:49:41
258,-208,-406,4,17,-20,251,-957,-34,12:49:41
219,-234,-391,4,16,-15,244,-952,-39,12:49:41
249,-220,-394,2,16,-11,251,-949,-42,12:49:41
253,-228,-397,8,4,-5,259,-944,-39,12:49:41
252,-219,-411,11,0,0,260,-941,-36,12:49:41
252,-219,-411,14,-1,3,259,-941,-32,12:49:41
241,-208,-399,16,-4,5,257,-937,-28,12:49:41
250,-226,-414,17,-9,5,255,-939,-29,12:49:41
252,-208,-406,20,-8,4,256,-947,-30,12:49:41
259,-217,-402,23,-16,5,259,-950,-31,12:49:41
252,-201,-409,22,-19,6,259,-950,-31,12:49:41
235,-219,-400,20,-21,4,259,-949,-34,12:49:41
235,-219,-400,16,-17,0,259,-948,-38,12:49:41
246,-204,-411,16,-11,-4,259,-946,-41,12:49:41
258,-217,-409,16,-11,-4,260,-949,-40,12:49:41
234,-243,-382,16,-5,-7,266,-950,-36,12:49:42
270,-237,-403,18,0,-10,268,-946,-37,12:49:42
256,-205,-403,21,4,-12,268,-946,-38,12:49:42
261,-208,-403,23,7,-11,267,-947,-36,12:49:42
261,-208,-403,23,11,-9,262,-943,-31,12:49:42
246,-222,-399,20,11,-8,256,-940,-29,12:49:42
253,-237,-415,16,9,-7,255,-942,-28,12:49:42
240,-214,-397,16,0,-5,257,-947,-29,12:49:42
240,-214,-397,15,0,-5,256,-951,-36,12:49:42
247,-216,-399,13,1,-7,257,-952,-39,12:49:42
247,-220,-396,10,2,-7,261,-949,-35,12:49:42
247,-220,-396,10,3,-9,265,-945,-34,12:49:42
250,-198,-403,11,1,-9,268,-944,-36,12:49:42
247,-219,-403,13,0,-8,267,-943,-39,12:49:42
226,-205,-403,16,-1,-9,262,-943,-41,12:49:42
244,-216,-391,18,0,-9,262,-943,-41,12:49:42
255,-207,-391,23,3,-8,262,-943,-44,12:49:42
249,-208,-399,25,4,-5,263,-947,-48,12:49:42
249,-208,-399,25,4,-5,261,-952,-44,12:49:42
252,-220,-394,28,6,-4,260,-956,-38,12:49:42
241,-217,-396,30,5,-1,261,-957,-36,12:49:42
253,-202,-396,30,1,0,261,-955,-38,12:49:42
253,-202,-396,28,-2,2,258,-954,-40,12:49:42
252,-214,-385,25,-6,2,255,-958,-41,12:49:42
255,-222,-384,20,-6,2,256,-959,-42,12:49:42
255,-222,-384,15,-7,0,258,-956,-42,12:49:42
259,-208,-393,12,-7,-1,257,-953,-41,12:49:42
232,-228,-394,8,-7,-4,259,-951,-38,12:49:42
235,-213,-402,2,1,-8,261,-953,-36,12:49:42
243,-201,-403,0,7,-11,264,-949,-38,12:49:42
264,-225,-388,0,11,-12,263,-940,-42,12:49:42
250,-213,-402,0,14,-12,263,-936,-45,12:49:42
250,-213,-402,1,16,-12,266,-937,-44,12:49:42
235,-205,-397,5,19,-11,268,-937,-43,12:49:42
261,-208,-397,11,18,-10,268,-937,-43,12:49:42
240,-217,-382,16,12,-7,268,-937,-44,12:49:42
244,-202,-406,21,8,-2,270,-937,-47,12:49:42
249,-229,-400,23,6,0,272,-938,-48,12:49:42
243,-214,-418,23,6,0,269,-936,-49,12:49:42
243,-214,-418,24,2,2,264,-931,-50,12:49:42
243,-222,-399,26,3,2,256,-930,-50,12:49:42
252,-204,-403,27,10,2,255,-934,-50,12:49:42
237,-211,-399,28,16,2,261,-936,-49,12:49:42
258,-205,-408,31,16,4,261,-944,-47,12:49:42
249,-207,-402,35,17,6,262,-949,-48,12:49:42
250,-213,-390,36,19,8,264,-950,-42,12:49:42
250,-213,-390,39,16,10,265,-955,-39,12:49:42
258,-214,-402,42,13,12,265,-951,-46,12:49:42
238,-222,-399,45,9,13,262,-939,-49,12:49:42
220,-210,-388,44,4,14,262,-934,-51,12:49:42
250,-204,-400,46,11,14,263,-936,-55,12:49:42
252,-214,-408,49,15,17,264,-940,-60,12:49:42
247,-220,-397,53,21,20,263,-941,-58,12:49:42
247,-220,-397,53,28,23,261,-940,-48,12:49:42
241,-226,-391,49,26,23,261,-940,-48,12:49:42
252,-216,-405,55,18,24,263,-936,-38,12:49:42
244,-208,-391,62,30,23,262,-934,-42,12:49:42
244,-208,-391,69,35,25,260,-933,-51,12:49:42
243,-187,-396,73,38,28,261,-933,-50,12:49:42
244,-204,-393,73,38,28,265,-935,-50,12:49:42
244,-204,-393,79,33,30,262,-931,-51,12:49:42
234,-210,-402,76,32,29,255,-925,-46,12:49:42
247,-205,-384,74,27,28,250,-918,-52,12:49:42
229,-195,-375,81,20,27,252,-911,-61,12:49:42
252,-226,-396,91,4,27,262,-910,-61,12:49:42
243,-193,-387,98,-13,31,275,-918,-50,12:49:42
228,-202,-388,100,-42,36,285,-926,-50,12:49:42
228,-202,-388,92,-29,36,291,-942,-58,12:49:42
255,-214,-408,91,-44,43,282,-961,-48,12:49:42
244,-198,-385,84,-62,49,265,-973,-43,12:49:42
241,-207,-369,74,-70,51,258,-986,-39,12:49:42
241,-207,-369,65,-91,51,254,-991,-31,12:49:42
252,-202,-390,57,-116,51,254,-982,-34,12:49:42
241,-202,-390,55,-136,51,245,-982,-34,12:49:42
241,-202,-390,47,-156,52,235,-967,-33,12:49:42
240,-192,-379,39,-177,51,232,-951,-36,12:49:42
238,-187,-385,32,-191,49,242,-933,-45,12:49:42
241,-208,-385,28,-182,48,252,-919,-62,12:49:42
243,-193,-390,28,-182,48,265,-907,-75,12:49:42
234,-223,-370,30,-181,49,289,-906,-69,12:49:42
234,-201,-381,32,-192,51,308,-914,-73,12:49:42
234,-201,-381,38,-189,60,316,-922,-86,12:49:42
244,-192,-378,39,-189,72,311,-931,-82,12:49:42
241,-208,-360,41,-189,79,309,-939,-73,12:49:42
235,-210,-346,36,-219,84,298,-931,-55,12:49:42
217,-199,-361,32,-258,83,300,-921,-55,12:49:42
210,-207,-381,29,-288,78,304,-915,-73,12:49:42
210,-207,-381,23,-310,62,314,-916,-94,12:49:42
235,-205,-349,14,-304,47,327,-925,-94,12:49:42
204,-184,-351,4,-294,42,328,-934,-79,12:49:42
243,-181,-351,-16,-309,46,331,-938,-61,12:49:42
199,-193,-339,-100,-219,-9,391,-898,-86,12:49:42
199,-193,-339,-84,-191,-18,395,-892,-102,12:49:42
189,-190,-343,-56,-154,-14,408,-916,-122,12:49:43
190,-198,-339,-51,-123,-5,401,-915,-113,12:49:43
190,-198,-339,-48,-102,-9,389,-901,-101,12:49:43
202,-190,-360,-49,-88,-2,396,-899,-114,12:49:43
210,-190,-340,-15,-63,-2,402,-895,-133,12:49:43
202,-187,-333,49,-14,0,402,-903,-120,12:49:43
186,-187,-336,79,18,-4,399,-897,-106,12:49:43
226,-190,-357,96,43,-13,399,-886,-103,12:49:43
226,-190,-357,102,58,-23,395,-885,-95,12:49:43
192,-169,-331,107,70,-33,389,-894,-101,12:49:43
216,-183,-319,107,70,-33,376,-889,-103,12:49:43
217,-184,-321,107,87,-44,366,-884,-94,12:49:43
213,-195,-334,102,108,-53,360,-893,-92,12:49:43
204,-184,-354,96,121,-56,349,-903,-85,12:49:43
204,-183,-334,94,121,-57,338,-915,-77,12:49:43
204,-183,-334,97,121,-59,329,-926,-60,12:49:43
193,-198,-343,97,110,-60,324,-936,-28,12:49:43
216,-187,-328,88,88,-65,328,-949,-4,12:49:43
201,-198,-334,81,51,-67,333,-955,-2,12:49:43
195,-190,-328,66,30,-76,332,-938,-23,12:49:43
198,-198,-333,53,38,-88,329,-918,-40,12:49:43
210,-204,-343,48,44,-98,328,-907,-52,12:49:43
210,-204,-343,44,53,-107,333,-906,-59,12:49:43
217,-177,-354,53,39,-107,340,-918,-50,12:49:43
211,-205,-337,70,14,-99,342,-933,-31,12:49:43
210,-196,-337,83,-31,-91,342,-933,-31,12:49:43
208,-204,-327,98,-92,-84,342,-946,-17,12:49:43
220,-210,-331,102,-126,-87,351,-948,-27,12:49:43
220,-210,-331,102,-126,-87,354,-933,-51,12:49:43
211,-222,-325,109,-143,-93,346,-912,-72,12:49:43
211,-195,-342,126,-148,-105,330,-893,-78,12:49:43
204,-208,-345,135,-137,-125,321,-889,-81,12:49:43
214,-184,-333,148,-111,-145,332,-893,-71,12:49:43
196,-208,-319,154,-100,-163,350,-896,-41,12:49:43
196,-208,-319,150,-102,-177,369,-890,-37,12:49:43
219,-210,-321,148,-86,-184,388,-884,-53,12:49:43
223,-217,-346,146,-55,-191,395,-883,-53,12:49:43
228,-205,-325,144,-24,-198,391,-880,-46,12:49:43
217,-211,-331,142,-4,-205,389,-882,-43,12:49:43
241,-226,-331,140,6,-211,394,-891,-27,12:49:43
241,-226,-331,141,12,-216,397,-905,-15,12:49:43
213,-196,-310,146,18,-218,414,-910,-14,12:49:43
201,-199,-330,144,25,-213,431,-906,-3,12:49:43
241,-223,-325,140,26,-204,434,-891,-8,12:49:43
208,-219,-325,135,27,-196,434,-891,-8,12:49:43
208,-219,-325,135,22,-194,413,-866,-15,12:49:43
238,-235,-322,130,0,-191,380,-858,6,12:49:43
226,-226,-312,124,-42,-194,357,-869,31,12:49:43
220,-234,-336,117,-93,-199,338,-881,50,12:49:43
231,-235,-325,117,-93,-199,329,-893,72,12:49:43
241,-210,-339,98,-143,-208,334,-907,85,12:49:43
225,-229,-330,95,-186,-212,330,-908,107,12:49:43
225,-229,-330,98,-224,-226,339,-916,114,12:49:43
225,-219,-324,88,-211,-247,385,-937,95,12:49:43
228,-231,-334,76,-182,-259,445,-964,78,12:49:43
228,-231,-334,49,-128,-258,491,-1003,42,12:49:43
231,-238,-316,24,-74,-256,516,-1056,23,12:49:43
240,-237,-336,-15,-10,-238,539,-1107,23,12:49:43
231,-220,-316,-55,70,-210,561,-1146,16,12:49:43
231,-220,-316,-108,158,-188,561,-1172,6,12:49:43
253,-234,-330,-182,263,-176,536,-1176,-7,12:49:43
249,-247,-331,-275,364,-154,485,-1172,-21,12:49:43
235,-237,-340,-366,488,-149,411,-1164,-45,12:49:43
234,-235,-345,-459,651,-159,352,-1149,-42,12:49:43
243,-238,-348,-572,724,-152,352,-1149,-42,12:49:43
234,-231,-361,-692,788,-105,317,-1135,-21,12:49:43
234,-231,-361,-781,835,-74,267,-1123,-35,12:49:43
244,-231,-378,-868,805,-65,211,-1097,-35,12:49:43
246,-241,-393,-868,805,-65,177,-1068,-20,12:49:43
246,-241,-393,-975,793,-51,128,-1053,-29,12:49:43
255,-217,-414,-1075,791,-24,83,-1053,-35,12:49:43
262,-229,-433,-1127,728,16,80,-1070,-15,12:49:43
261,-213,-441,-1183,581,80,108,-1115,50,12:49:43
261,-213,-441,-1254,350,144,126,-1211,151,12:49:43
271,-219,-445,-1369,67,179,126,-1279,181,12:49:43
262,-202,-448,-1377,-193,233,155,-1243,94,12:49:43
231,-205,-460,-1325,-367,291,168,-1198,-15,12:49:43
258,-201,-474,-1208,-417,333,152,-1131,-156,12:49:43
253,-181,-483,-1154,-221,308,172,-1062,-248,12:49:43
267,-196,-478,-1123,10,296,229,-1053,-235,12:49:43
267,-196,-478,-978,235,303,305,-1048,-275,12:49:43
252,-177,-487,-805,627,349,394,-1055,-290,12:49:43
246,-166,-481,-721,973,416,456,-1068,-194,12:49:43
246,-166,-496,-677,1185,504,481,-1084,-40,12:49:43
256,-166,-522,-758,1304,542,481,-1084,-40,12:49:43
274,-138,-552,-820,1470,565,483,-1083,42,12:49:43
255,-141,-528,-727,1563,588,438,-1052,64,12:49:43
255,-141,-528,-727,1563,588,352,-1022,87,12:49:43
291,-126,-562,-541,1579,605,235,-969,83,12:49:43
282,-129,-571,-541,1579,605,111,-918,83,12:49:43
271,-129,-571,-502,1629,556,59,-917,14,12:49:43
276,-111,-591,-462,1803,517,68,-922,-20,12:49:43
295,-123,-597,-453,1945,483,49,-922,74,12:49:43
316,-109,-621,-377,1988,451,57,-914,110,12:49:43
316,-109,-621,-522,1833,328,53,-839,101,12:49:43
322,-103,-628,-515,1705,204,8,-789,210,12:49:43
342,-99,-612,-507,1544,128,-53,-786,325,12:49:43
348,-88,-637,-520,1304,58,-41,-747,320,12:49:43
366,-93,-649,-501,1116,-21,-14,-721,289,12:49:43
358,-93,-667,-409,1094,-83,10,-704,172,12:49:43
382,-75,-667,-341,987,-131,44,-707,173,12:49:43
382,-75,-667,-280,802,-128,53,-734,319,12:49:43
379,-84,-669,-217,647,-93,82,-706,301,12:49:43
369,-61,-670,-155,555,-102,85,-669,255,12:49:43
369,-61,-670,-97,497,-98,85,-669,255,12:49:43
405,-81,-664,-16,424,-57,81,-676,272,12:49:43
405,-67,-681,68,341,-21,78,-663,289,12:49:44
408,-69,-669,68,341,-21,74,-627,296,12:49:44
408,-69,-669,151,247,6,59,-591,325,12:49:44
390,-75,-673,226,144,29,56,-574,365,12:49:44
388,-73,-655,356,-49,66,94,-591,430,12:49:44
406,-75,-672,382,-94,83,127,-617,449,12:49:44
402,-82,-661,401,-118,116,146,-633,455,12:49:44
405,-79,-642,420,-133,135,140,-651,478,12:49:44
405,-79,-642,438,-162,159,124,-677,528,12:49:44
384,-84,-657,465,-180,194,117,-684,544,12:49:44
399,-90,-658,470,-205,238,141,-727,557,12:49:44
399,-90,-658,472,-213,275,156,-729,561,12:49:44
382,-78,-648,480,-242,307,153,-706,559,12:49:44
370,-99,-648,504,-269,341,172,-730,567,12:49:44
381,-96,-646,504,-297,352,205,-774,580,12:49:44
381,-96,-646,469,-300,343,239,-843,609,12:49:44
391,-91,-642,382,-251,298,239,-950,630,12:49:44
381,-94,-639,196,-189,243,277,-950,630,12:49:44
369,-76,-648,-18,-49,151,305,-1086,633,12:49:44
382,-79,-648,-150,54,101,341,-1221,655,12:49:44
367,-84,-645,-143,163,81,368,-1311,673,12:49:44
385,-85,-658,-143,163,81,350,-1256,661,12:49:44
385,-85,-658,-70,361,60,294,-1075,704,12:49:44
378,-79,-658,-16,593,36,189,-798,755,12:49:44
378,-75,-636,49,708,18,29,-494,767,12:49:44
378,-75,-636,163,630,12,-88,-313,685,12:49:44
415,-88,-649,298,459,16,-150,-324,595,12:49:44
396,-73,-646,424,240,53,-132,-474,474,12:49:44
399,-106,-631,427,-4,109,18,-791,355,12:49:44
399,-106,-631,291,-228,159,196,-1258,367,12:49:44
412,-93,-637,93,-370,127,299,-1726,362,12:49:44
399,-72,-639,-59,-403,29,348,-1972,354,12:49:44
406,-88,-637,-119,-284,-45,412,-1997,383,12:49:44
388,-70,-651,-150,-163,-30,339,-1692,419,12:49:44
390,-70,-646,-183,-264,35,59,-1071,323,12:49:44
406,-76,-634,-105,-598,67,-252,-569,76,12:49:44
406,-76,-634,39,-856,23,-252,-569,76,12:49:44
403,-60,-612,109,-900,-31,-361,-353,-55,12:49:44
364,-82,-612,119,-930,-70,-252,-355,33,12:49:44
384,-88,-618,128,-1192,-102,-81,-453,184,12:49:44
352,-70,-631,208,-1671,-156,121,-606,184,12:49:44
376,-70,-601,208,-1671,-156,344,-802,-61,12:49:44
363,-76,-601,333,-1988,-192,543,-1048,-338,12:49:44
363,-76,-601,382,-1863,-196,712,-1276,-392,12:49:44
366,-79,-606,386,-1488,-114,803,-1360,-283,12:49:44
333,-75,-559,389,-1076,23,735,-1264,-136,12:49:44
333,-75,-559,373,-830,136,505,-1068,95,12:49:44
328,-87,-565,303,-801,123,197,-842,297,12:49:44
319,-91,-550,259,-899,23,16,-686,341,12:49:44
307,-90,-568,259,-1029,-65,12,-643,261,12:49:44
307,-90,-568,369,-1178,-88,70,-657,135,12:49:44
306,-102,-556,452,-1294,-101,144,-753,105,12:49:44
306,-82,-538,395,-1432,-107,242,-886,134,12:49:44
307,-91,-541,324,-1635,-96,324,-965,70,12:49:44
295,-87,-537,405,-1650,-50,438,-1007,-110,12:49:44
282,-103,-528,476,-1603,26,438,-1007,-110,12:49:44
288,-93,-505,454,-1519,69,547,-1007,-193,12:49:44
288,-93,-505,538,-1327,103,556,-943,-168,12:49:44
267,-91,-517,530,-1092,67,548,-877,-233,12:49:44
256,-87,-477,438,-905,5,443,-824,-198,12:49:44
256,-87,-477,432,-788,-28,327,-793,-79,12:49:44
267,-102,-460,432,-788,-28,327,-772,-156,12:49:44
273,-97,-472,529,-798,21,317,-765,-158,12:49:44
255,-97,-448,500,-805,-7,301,-809,-79,12:49:44
255,-97,-448,370,-847,-107,306,-807,-76,12:49:44
274,-106,-447,323,-664,-169,319,-852,-117,12:49:44
262,-102,-460,299,-456,-168,360,-923,-149,12:49:44
247,-84,-417,281,-317,-155,409,-919,-66,12:49:44
264,-87,-433,279,-328,-141,410,-911,27,12:49:44
267,-96,-450,278,-389,-138,386,-887,56,12:49:44
261,-114,-432,257,-431,-153,375,-861,32,12:49:44
261,-114,-432,212,-413,-183,394,-863,-21,12:49:44
252,-105,-438,221,-379,-168,406,-865,-75,12:49:44
246,-111,-423,219,-328,-168,394,-866,-90,12:49:44
246,-111,-423,214,-270,-179,383,-884,-59,12:49:44
256,-106,-408,239,-245,-182,359,-887,-22,12:49:44
247,-124,-418,298,-270,-186,359,-887,-22,12:49:44
270,-114,-417,352,-288,-207,323,-872,-5,12:49:44
270,-114,-417,394,-306,-235,299,-868,12,12:49:44
247,-129,-415,431,-342,-268,296,-873,28,12:49:44
243,-117,-397,431,-342,-268,310,-881,33,12:49:44
264,-109,-411,456,-365,-291,321,-885,25,12:49:44
268,-130,-391,452,-359,-321,327,-878,12,12:49:44
264,-108,-381,460,-343,-338,335,-878,6,12:49:44
255,-126,-384,444,-333,-358,338,-878,10,12:49:44
255,-126,-384,429,-325,-375,354,-880,31,12:49:44
277,-123,-385,394,-340,-383,382,-876,52,12:49:44
255,-127,-363,330,-333,-389,422,-868,41,12:49:44
255,-127,-363,301,-366,-351,439,-882,16,12:49:44
274,-139,-372,266,-371,-312,421,-908,6,12:49:44
267,-133,-384,206,-357,-293,409,-933,5,12:49:44
283,-124,-346,177,-331,-261,411,-970,26,12:49:44
283,-124,-346,119,-293,-240,441,-1015,32,12:49:44
270,-130,-372,51,-278,-228,466,-1023,29,12:49:44
265,-139,-361,-19,-285,-215,431,-983,53,12:49:44
265,-139,-361,-34,-238,-219,431,-983,53,12:49:44
271,-135,-346,-54,-143,-258,370,-958,71,12:49:44
273,-139,-360,-95,-48,-291,342,-979,96,12:49:44
274,-123,-355,-123,6,-282,381,-1014,154,12:49:44
274,-123,-355,-123,6,-282,441,-1025,228,12:49:44
270,-139,-370,-151,-35,-280,490,-983,260,12:49:44
256,-117,-316,-200,-102,-287,568,-972,167,12:49:44
288,-124,-334,-275,-115,-267,633,-1042,-2,12:49:44
280,-136,-355,-312,-44,-233,644,-1142,-140,12:49:44
279,-129,-349,-347,176,-164,671,-1227,-183,12:49:44
280,-130,-354,-410,433,-86,691,-1251,-131,12:49:44
280,-130,-354,-536,626,0,610,-1255,-83,12:49:45
297,-142,-358,-754,792,78,405,-1272,-66,12:49:45
295,-105,-355,-897,849,77,187,-1268,-51,12:49:45
295,-105,-355,-1066,938,101,136,-1309,-72,12:49:45
282,-129,-373,-1176,971,213,188,-1364,-108,12:49:45
274,-127,-391,-1148,924,331,163,-1314,-135,12:49:45
268,-88,-373,-1064,837,374,75,-1285,-120,12:49:45
268,-88,-373,-1099,694,363,16,-1360,24,12:49:45
264,-87,-397,-1214,350,347,30,-1414,130,12:49:45
271,-84,-418,-1348,-28,280,30,-1414,130,12:49:45
288,-61,-417,-1349,-237,275,110,-1383,44,12:49:45
270,-93,-427,-1399,-260,258,147,-1310,-71,12:49:45
274,-67,-436,-1452,-226,248,140,-1273,-83,12:49:45
277,-75,-421,-1452,-226,248,133,-1233,-51,12:49:45
277,-75,-421,-1479,-151,210,111,-1155,-60,12:49:45
271,-85,-430,-1442,-58,217,160,-1104,-77,12:49:45
271,-85,-430,-1239,38,270,231,-1070,-205,12:49:45
252,-33,-423,-912,365,295,273,-1022,-421,12:49:45
283,-46,-453,-890,736,323,288,-971,-270,12:49:45
258,-31,-453,-1144,980,289,258,-934,-25,12:49:45
279,-24,-460,-1185,1244,209,253,-901,-77,12:49:45
279,-24,-460,-1115,1434,196,253,-888,-132,12:49:45
295,-19,-459,-959,1752,247,247,-888,-67,12:49:45
289,-6,-474,-877,1894,303,260,-878,-2,12:49:45
304,-12,-501,-844,2017,350,251,-831,54,12:49:45
301,-28,-511,-750,2007,350,204,-822,184,12:49:45
324,-15,-511,-623,1907,351,153,-825,248,12:49:45
327,7,-526,-534,1918,345,122,-773,147,12:49:45
327,7,-526,-450,1924,319,90,-781,137,12:49:45
321,7,-531,-378,1789,302,90,-781,137,12:49:45
328,24,-520,-279,1595,296,75,-776,196,12:49:45
328,24,-520,-237,1453,261,38,-697,164,12:49:45
339,31,-565,-174,1313,224,-52,-625,133,12:49:45
355,24,-577,-174,1313,224,-84,-593,135,12:49:45
361,19,-564,-114,1159,175,-52,-599,183,12:49:45
361,19,-564,-51,990,133,-8,-609,244,12:49:45
373,12,-573,-14,782,108,21,-602,294,12:49:45
373,16,-565,44,590,103,26,-588,321,12:49:45
361,19,-555,112,477,102,25,-572,320,12:49:45
367,15,-567,210,394,116,11,-556,346,12:49:45
381,31,-582,297,304,143,-9,-553,381,12:49:45
369,15,-564,378,209,156,-19,-546,392,12:49:45
369,15,-564,438,125,148,6,-532,385,12:49:45
370,15,-570,501,60,149,64,-540,385,12:49:45
369,4,-556,557,-4,170,131,-569,396,12:49:45
369,4,-556,613,-23,187,194,-613,425,12:49:45
382,10,-547,644,-40,207,235,-652,478,12:49:45
358,24,-558,656,-67,230,235,-652,478,12:49:45
358,16,-564,651,-103,248,259,-684,515,12:49:45
358,16,-564,650,-141,263,244,-706,556,12:49:45
372,15,-558,640,-170,266,185,-725,614,12:49:45
351,-1,-546,616,-193,284,151,-761,653,12:49:45
351,-1,-546,564,-176,303,138,-821,676,12:49:45
352,10,-555,564,-176,303,119,-906,717,12:49:45
370,-7,-561,471,-135,317,183,-1008,728,12:49:45
370,4,-555,340,-79,305,293,-1140,715,12:49:45
370,4,-555,155,-7,281,329,-1310,736,12:49:45
346,15,-532,-44,36,265,362,-1404,712,12:49:45
342,13,-543,-148,26,254,391,-1374,626,12:49:45
348,13,-531,-149,84,209,342,-1235,577,12:49:45
354,19,-552,-108,319,153,180,-973,650,12:49:45
351,15,-549,-76,616,103,-61,-640,768,12:49:45
384,25,-543,25,767,63,-196,-356,793,12:49:45
384,25,-543,203,725,32,-220,-251,709,12:49:45
366,21,-540,373,539,28,-202,-375,599,12:49:45
361,12,-531,456,246,45,-78,-659,464,12:49:45
361,12,-531,396,-45,104,101,-1075,315,12:49:45
379,22,-552,193,-282,75,249,-1566,231,12:49:45
388,9,-540,-19,-393,-35,249,-1566,231,12:49:45
382,15,-531,-110,-323,-104,323,-1899,201,12:49:45
382,15,-531,-160,-167,-151,279,-1905,219,12:49:45
358,9,-538,-195,-205,-151,216,-1616,314,12:49:45
369,18,-534,-195,-205,-151,81,-1139,323,12:49:45
363,4,-534,-110,-425,-183,-142,-722,91,12:49:45
363,16,-547,21,-510,-260,-239,-533,-53,12:49:45
367,22,-517,103,-487,-311,-183,-484,99,12:49:45
360,16,-525,105,-582,-318,-4,-533,273,12:49:45
360,16,-525,168,-960,-271,202,-636,219,12:49:45
357,21,-504,331,-1523,-191,380,-780,-41,12:49:45
328,6,-486,494,-1906,-107,565,-994,-330,12:49:45
328,6,-486,585,-1843,21,710,-1189,-462,12:49:45
334,7,-492,578,-1425,156,769,-1264,-351,12:49:45
319,7,-484,501,-994,241,666,-1207,-69,12:49:45
312,4,-475,368,-833,247,433,-1045,187,12:49:45
312,4,-475,306,-823,175,241,-876,271,12:49:45
310,6,-472,283,-800,56,126,-792,203,12:49:45
307,4,-490,360,-881,-4,26,-731,162,12:49:45
316,3,-478,408,-1096,-63,-12,-749,210,12:49:45
303,-6,-447,385,-1357,-106,-12,-749,210,12:49:45
295,-7,-447,382,-1589,-149,11,-837,284,12:49:45
309,-1,-432,417,-1633,-151,131,-864,164,12:49:45
309,-1,-432,417,-1633,-151,321,-873,-89,12:49:45
300,-16,-445,562,-1306,-60,484,-908,-228,12:49:45
276,-18,-411,562,-1306,-60,604,-939,-280,12:49:45
276,-18,-411,651,-1066,16,660,-929,-298,12:49:45
283,1,-396,637,-871,17,630,-886,-248,12:49:45
280,-18,-388,651,-644,24,532,-846,-149,12:49:45
273,-4,-406,681,-520,25,408,-821,-24,12:49:45
273,-4,-406,653,-496,-23,300,-800,72,12:49:45
267,-15,-388,613,-471,-87,252,-811,87,12:49:45
294,-13,-375,580,-452,-126,239,-824,89,12:49:45
262,6,-391,540,-466,-136,249,-847,69,12:49:45
268,-34,-379,489,-497,-129,281,-882,34,12:49:45
265,-13,-358,472,-547,-103,233,-866,81,12:49:45
268,-13,-363,378,-548,-193,320,-873,-4,12:49:45
268,-13,-363,397,-458,-182,427,-875,-132,12:49:45
279,-43,-366,394,-378,-199,359,-833,-132,12:49:46
264,-48,-357,424,-319,-211,359,-833,-132,12:49:46
264,-48,-357,435,-263,-209,330,-824,-136,12:49:46
262,-28,-361,429,-224,-213,313,-826,-88,12:49:46
268,-24,-352,415,-212,-216,298,-820,-47,12:49:46
280,-25,-354,415,-212,-216,287,-820,-15,12:49:46
280,-25,-354,430,-219,-211,290,-820,13,12:49:46
267,-40,-355,449,-249,-205,289,-817,34,12:49:46
249,-36,-321,467,-294,-207,279,-821,57,12:49:46
249,-36,-321,490,-338,-217,281,-826,62,12:49:46
280,-21,-355,513,-387,-232,292,-843,70,12:49:46
276,-51,-339,523,-447,-252,314,-877,87,12:49:46
273,-54,-313,510,-485,-268,339,-905,84,12:49:46
273,-54,-313,494,-490,-280,356,-909,57,12:49:46
262,-52,-322,476,-451,-286,364,-922,48,12:49:46
285,-52,-303,439,-403,-292,372,-939,51,12:49:46
274,-54,-309,390,-371,-303,389,-967,57,12:49:46
264,-43,-319,359,-391,-275,380,-998,63,12:49:46
270,-55,-312,300,-407,-252,360,-1002,40,12:49:46
261,-54,-309,250,-383,-226,358,-1006,38,12:49:46
261,-54,-309,156,-331,-233,401,-1020,33,12:49:46
277,-58,-301,66,-277,-236,440,-1048,45,12:49:46
276,-61,-300,22,-228,-201,440,-1044,42,12:49:46
276,-61,-300,-30,-121,-181,459,-1044,42,12:49:46
277,-66,-289,-82,14,-189,448,-1027,21,12:49:46
265,-64,-286,-116,145,-204,393,-1067,74,12:49:46
274,-69,-280,-116,145,-204,359,-1109,193,12:49:46
274,-69,-280,-145,172,-212,333,-1094,340,12:49:46
253,-64,-283,-196,71,-233,325,-1034,387,12:49:46
270,-66,-309,-245,-26,-270,348,-949,288,12:49:46
267,-81,-306,-311,-64,-291,421,-911,174,12:49:46
280,-67,-304,-426,-125,-291,502,-978,21,12:49:46
265,-66,-310,-515,48,-273,605,-1104,-191,12:49:46
261,-82,-318,-597,365,-194,745,-1208,-219,12:49:46
261,-82,-318,-702,569,-60,718,-1211,-110,12:49:46
280,-81,-318,-846,747,33,578,-1154,-95,12:49:46
274,-93,-330,-936,1012,121,561,-1161,-257,12:49:46
274,-93,-330,-983,1187,227,457,-1245,-289,12:49:46
274,-54,-313,-1083,1191,224,220,-1327,-133,12:49:46
292,-60,-352,-1169,1062,242,112,-1412,-43,12:49:46
265,-61,-349,-1220,814,326,82,-1526,16,12:49:46
265,-61,-349,-1181,513,413,82,-1526,16,12:49:46
276,-60,-373,-1129,208,424,4,-1518,27,12:49:46
264,-48,-367,-1231,-144,406,-56,-1488,70,12:49:46
268,-37,-379,-1317,-434,400,-17,-1539,106,12:49:46
279,-37,-372,-1423,-662,357,14,-1487,96,12:49:46
271,-45,-379,-1423,-662,357,37,-1355,24,12:49:46
262,-34,-381,-1460,-683,347,131,-1233,-92,12:49:46
262,-34,-381,-1430,-628,429,187,-1129,-150,12:49:46
259,-40,-391,-1418,-322,361,198,-1019,-199,12:49:46
255,-28,-358,-1320,236,242,202,-945,-281,12:49:46
255,-28,-358,-1114,563,237,285,-935,-300,12:49:46
265,-16,-403,-1008,620,340,418,-979,32,12:49:46
255,-21,-409,-856,926,436,694,-1022,-539,12:49:46
274,6,-414,-919,1269,428,591,-1012,-734,12:49:46
274,6,-414,-1025,1624,301,272,-948,-130,12:49:46
276,0,-427,-1091,2039,219,271,-860,-132,12:49:46
289,-12,-445,-990,2247,221,201,-781,-12,12:49:46
285,16,-450,-823,2198,222,128,-699,96,12:49:46
285,3,-456,-676,2046,205,74,-672,162,12:49:46
307,-9,-477,-541,2004,189,74,-672,162,12:49:46
315,-3,-480,-495,2010,191,26,-718,161,12:49:46
315,-3,-480,-403,2081,224,3,-790,177,12:49:46
319,25,-490,-303,1841,214,-63,-775,164,12:49:46
316,27,-490,-268,1636,208,-50,-765,152,12:49:46
343,10,-513,-171,1498,258,25,-766,121,12:49:46
351,1,-516,-171,1498,258,8,-705,114,12:49:46
366,21,-529,-94,1310,284,-4,-651,168,12:49:46
352,-1,-540,-51,1098,276,-7,-605,210,12:49:46
352,-1,-540,-28,872,236,-19,-573,253,12:49:46
361,-1,-543,11,683,199,-22,-552,264,12:49:46
361,6,-540,79,533,180,-17,-554,277,12:49:46
361,6,-540,154,427,177,-10,-546,293,12:49:46
370,31,-534,247,347,189,-6,-540,318,12:49:46
355,10,-532,353,273,207,-1,-535,354,12:49:46
352,4,-549,457,194,228,-1,-502,361,12:49:46
352,4,-549,543,107,235,17,-484,361,12:49:46
366,-4,-532,609,7,235,69,-509,382,12:49:46
378,13,-516,652,-72,226,123,-568,442,12:49:46
370,13,-532,662,-128,238,181,-639,509,12:49:46
360,18,-525,641,-159,252,238,-696,542,12:49:46
363,-4,-516,607,-153,275,238,-696,542,12:49:46
363,-10,-501,575,-119,310,257,-734,588,12:49:46
363,-10,-501,571,-70,343,236,-761,643,12:49:46
367,0,-520,586,-21,402,227,-810,713,12:49:46
354,-15,-499,586,-21,402,244,-853,787,12:49:46
354,-15,-499,598,42,469,292,-889,835,12:49:46
361,-21,-508,554,149,497,341,-942,900,12:49:46
348,-24,-505,422,216,474,367,-988,939,12:49:46
349,-13,-514,235,217,415,386,-1084,891,12:49:46
349,-13,-514,43,147,350,432,-1180,779,12:49:46
352,-31,-520,-57,60,319,461,-1187,643,12:49:46
360,-36,-531,-77,160,259,354,-1060,583,12:49:46
351,-18,-507,-58,511,136,137,-797,621,12:49:46
354,-21,-508,16,900,35,-106,-471,671,12:49:46
384,-6,-525,175,1050,0,-256,-236,667,12:49:46
376,-25,-526,343,934,-2,-291,-224,576,12:49:46
376,-25,-526,433,631,25,-279,-480,454,12:49:46
370,-30,-534,360,170,75,-138,-1023,315,12:49:46
375,-39,-505,154,-169,108,100,-1676,188,12:49:46
375,-39,-505,-137,-215,-12,100,-1676,188,12:49:46
364,-42,-522,-337,-13,-215,240,-1995,167,12:49:46
387,-27,-520,-395,301,-300,309,-1998,209,12:49:46
382,-42,-544,-411,242,-198,390,-1889,337,12:49:46
382,-42,-544,-411,242,-198,290,-1322,349,12:49:46
381,-40,-534,-186,-382,-98,-120,-580,-32,12:49:46
370,-57,-531,156,-802,-167,-418,-278,-289,12:49:46
387,-46,-523,236,-796,-299,-352,-330,-62,12:49:47
372,-45,-526,69,-721,-387,-159,-498,181,12:49:47
363,-52,-505,-81,-865,-394,5,-649,142,12:49:47
370,-58,-531,23,-1327,-315,125,-765,-61,12:49:47
370,-58,-531,348,-1852,-212,228,-934,-277,12:49:47
355,-37,-501,661,-2097,-109,419,-1178,-421,12:49:47
352,-88,-478,780,-1839,14,733,-1410,-348,12:49:47
352,-88,-478,744,-1429,188,955,-1465,-111,12:49:47
333,-75,-477,612,-1204,312,892,-1331,144,12:49:47
342,-75,-480,449,-1119,347,592,-1067,270,12:49:47
330,-90,-469,349,-1008,257,238,-784,272,12:49:47
330,-90,-469,343,-974,77,-7,-637,299,12:49:47
331,-93,-468,310,-1167,-84,-99,-642,363,12:49:47
304,-94,-445,322,-1447,-202,-22,-680,273,12:49:47
304,-94,-445,448,-1748,-205,-22,-680,273,12:49:47
328,-96,-442,571,-1848,-210,118,-726,62,12:49:47
301,-93,-438,583,-1680,-188,271,-838,-117,12:49:47
304,-111,-429,583,-1680,-188,429,-938,-270,12:49:47
304,-111,-429,518,-1454,-152,524,-979,-326,12:49:47
306,-88,-415,555,-1214,-82,617,-957,-415,12:49:47
282,-97,-393,651,-936,4,619,-948,-366,12:49:47
304,-103,-396,673,-692,55,506,-945,-167,12:49:47
309,-126,-403,669,-640,57,364,-891,5,12:49:47
310,-118,-403,693,-701,80,253,-846,135,12:49:47
306,-88,-385,680,-812,66,192,-814,151,12:49:47
306,-88,-385,613,-861,28,171,-798,102,12:49:47
286,-109,-372,523,-913,-7,190,-797,48,12:49:47
285,-117,-354,518,-943,-30,235,-792,-50,12:49:47
285,-117,-354,424,-995,-97,248,-749,-79,12:49:47
283,-126,-364,382,-877,-129,335,-748,-109,12:49:47
273,-132,-351,329,-729,-186,395,-797,-146,12:49:47
295,-133,-346,310,-618,-221,382,-820,-98,12:49:47
295,-133,-346,331,-550,-223,411,-830,-104,12:49:47
294,-126,-331,357,-459,-227,411,-830,-104,12:49:47
289,-118,-325,407,-433,-210,403,-832,-89,12:49:47
288,-135,-327,437,-432,-207,365,-833,-22,12:49:47
280,-138,-330,443,-411,-214,326,-834,15,12:49:47
291,-133,-328,443,-411,-214,299,-843,30,12:49:47
288,-153,-336,449,-396,-237,275,-851,63,12:49:47
288,-153,-336,445,-408,-266,266,-852,75,12:49:47
286,-132,-301,457,-412,-301,274,-850,75,12:49:47
294,-135,-286,474,-410,-328,287,-855,87,12:49:47
294,-135,-286,490,-427,-345,299,-858,97,12:49:47
295,-147,-288,497,-438,-352,328,-858,102,12:49:47
274,-165,-300,487,-444,-355,358,-872,104,12:49:47
303,-141,-303,469,-453,-351,381,-892,84,12:49:47
303,-141,-303,420,-444,-347,400,-894,47,12:49:47
304,-162,-289,347,-438,-355,413,-920,32,12:49:47
294,-147,-289,310,-434,-312,391,-966,47,12:49:47
298,-160,-285,254,-429,-267,346,-1007,70,12:49:47
297,-159,-294,166,-434,-251,335,-1054,88,12:49:47
310,-169,-270,93,-408,-218,335,-1083,88,12:49:47
315,-178,-291,-10,-396,-186,351,-1083,101,12:49:47
315,-178,-291,-81,-380,-173,354,-1085,117,12:49:47
322,-166,-288,-124,-247,-217,321,-1061,78,12:49:47
276,-181,-258,-171,-73,-261,290,-1047,55,12:49:47
276,-181,-258,-210,2,-272,320,-1077,126,12:49:47
313,-175,-255,-210,2,-272,415,-1100,204,12:49:47
321,-187,-267,-227,-44,-238,514,-1068,205,12:49:47
322,-172,-277,-257,-144,-204,575,-1024,109,12:49:47
322,-172,-277,-305,-174,-144,642,-1050,-25,12:49:47
318,-193,-285,-340,-62,-84,661,-1105,-116,12:49:47
328,-172,-279,-364,167,-32,663,-1148,-135,12:49:47
316,-186,-277,-460,463,9,745,-1198,-138,12:49:47
336,-184,-301,-557,632,136,722,-1266,-130,12:49:47
315,-186,-310,-758,721,183,417,-1298,-47,12:49:47
292,-193,-319,-1012,767,128,154,-1293,6,12:49:47
292,-193,-319,-1164,829,116,152,-1282,-68,12:49:47
319,-189,-336,-1166,910,170,211,-1305,-145,12:49:47
309,-192,-312,-1141,976,270,233,-1390,-143,12:49:47
309,-192,-312,-1085,952,315,164,-1408,-83,12:49:47
333,-184,-384,-1085,751,335,79,-1411,32,12:49:47
291,-154,-409,-1134,372,364,79,-1411,32,12:49:47
313,-165,-402,-1178,20,333,43,-1415,107,12:49:47
313,-165,-402,-1341,-212,238,20,-1359,77,12:49:47
303,-171,-402,-1545,-301,263,32,-1331,34,12:49:47
298,-171,-423,-1605,-317,340,80,-1301,-6,12:49:47
304,-156,-409,-1605,-317,340,111,-1214,-67,12:49:47
297,-156,-418,-1680,-164,247,135,-1149,-110,12:49:47
294,-138,-439,-1626,70,203,240,-1123,-211,12:49:47
309,-144,-442,-1341,274,266,323,-1118,-227,12:49:47
309,-144,-442,-1139,570,243,339,-1088,-227,12:49:47
280,-138,-457,-1096,935,259,401,-1057,-232,12:49:47
301,-120,-463,-1228,1104,338,406,-1072,58,12:49:47
289,-120,-486,-1356,1167,302,413,-1047,-337,12:49:47
312,-96,-510,-1227,1517,334,378,-981,-576,12:49:47
304,-93,-513,-1229,2062,296,275,-935,-116,12:49:47
318,-82,-519,-1200,2285,343,205,-830,-34,12:49:47
318,-82,-519,-917,2258,371,151,-706,54,12:49:47
312,-103,-555,-682,2083,411,152,-736,200,12:49:47
355,-82,-559,-574,1902,457,143,-810,276,12:49:47
355,-82,-559,-459,1775,488,114,-821,240,12:49:47
367,-90,-579,-354,1723,492,114,-821,240,12:49:47
363,-84,-564,-295,1721,429,67,-780,169,12:49:47
387,-60,-588,-184,1698,361,16,-706,157,12:49:47
387,-60,-588,-5,1519,182,-25,-646,170,12:49:47
370,-63,-600,0,1497,259,-70,-589,170,12:49:47
379,-75,-589,0,1497,259,-83,-526,146,12:49:47
405,-64,-606,67,1307,207,-80,-467,152,12:49:47
411,-67,-610,130,1096,153,-73,-428,178,12:49:47
420,-54,-597,182,905,98,-69,-414,208,12:49:47
412,-66,-631,244,734,66,-60,-428,246,12:49:47
412,-66,-631,336,574,67,-52,-443,270,12:49:47
424,-75,-609,444,425,83,-53,-441,296,12:49:47
415,-72,-613,536,295,100,-48,-448,324,12:49:47
415,-72,-613,627,173,119,-27,-447,340,12:49:47
423,-81,-621,719,67,149,11,-447,366,12:49:47
412,-94,-589,801,-16,181,42,-458,412,12:49:48
420,-94,-607,870,-59,196,79,-479,468,12:49:48
420,-94,-607,921,-83,204,122,-523,538,12:49:48
415,-99,-603,941,-74,214,168,-610,626,12:49:48
411,-87,-610,940,-53,235,168,-610,626,12:49:48
436,-91,-592,928,-59,301,211,-701,719,12:49:48
432,-114,-586,861,-23,352,245,-800,808,12:49:48
408,-96,-588,691,55,378,294,-912,917,12:49:48
423,-114,-579,512,55,378,340,-1034,1033,12:49:48
423,-114,-579,399,125,386,374,-1220,1112,12:49:48
418,-118,-562,49,67,343,414,-1421,1054,12:49:48
412,-109,-571,-176,-152,308,476,-1509,809,12:49:48
412,-109,-571,-218,-137,304,513,-1448,585,12:49:48
402,-112,-576,-167,307,285,269,-1214,564,12:49:48
432,-105,-577,-84,935,191,-187,-697,616,12:49:48
442,-111,-582,82,1295,75,-475,-221,610,12:49:48
442,-111,-582,260,1204,-39,-473,-231,541,12:49:48
439,-102,-600,257,733,-74,-249,-670,363,12:49:48
433,-105,-567,163,182,-101,59,-1373,161,12:49:48
439,-124,-591,-102,-29,-200,309,-1889,12,12:49:48
457,-108,-597,-385,131,-345,319,-1997,84,12:49:48
454,-118,-621,-513,550,-344,333,-1967,443,12:49:48
462,-106,-604,-555,540,-145,303,-1365,600,12:49:48
462,-106,-604,-222,-357,53,-106,-478,83,12:49:48
462,-90,-601,229,-992,25,-106,-156,-369,12:49:48
447,-103,-571,334,-944,-119,-442,-156,-369,12:49:48
447,-103,-571,116,-709,-245,-388,-249,-131,12:49:48
445,-105,-579,-84,-723,-296,-143,-450,176,12:49:48
444,-103,-612,11,-1174,-249,110,-606,174,12:49:48
438,-117,-595,11,-1174,-249,272,-706,-23,12:49:48
438,-117,-595,366,-1663,-179,351,-882,-242,12:49:48
411,-108,-577,699,-1807,-128,502,-1187,-393,12:49:48
391,-121,-555,826,-1495,-21,752,-1459,-351,12:49:48
391,-121,-555,737,-1047,110,894,-1511,-125,12:49:48
408,-120,-553,562,-736,227,763,-1337,126,12:49:48
388,-123,-555,362,-719,264,420,-1045,302,12:49:48
399,-115,-561,294,-737,189,92,-755,300,12:49:48
399,-115,-561,417,-711,85,-94,-624,275,12:49:48
393,-115,-544,398,-903,-30,-180,-660,395,12:49:48
364,-142,-525,373,-1211,-109,-125,-775,405,12:49:48
384,-120,-523,430,-1584,-69,53,-873,228,12:49:48
351,-133,-537,591,-1776,25,262,-925,-50,12:49:48
369,-133,-505,671,-1660,84,440,-1015,-207,12:49:48
358,-144,-498,606,-1460,98,543,-1036,-212,12:49:48
358,-144,-498,648,-1288,138,543,-1036,-212,12:49:48
343,-124,-520,732,-1110,220,644,-960,-271,12:49:48
331,-135,-480,707,-991,244,657,-924,-208,12:49:48
331,-135,-480,712,-880,203,546,-868,-106,12:49:48
324,-138,-481,703,-831,139,375,-775,47,12:49:48
316,-150,-474,703,-831,139,245,-741,143,12:49:48
319,-135,-454,751,-812,122,197,-768,103,12:49:48
319,-135,-454,743,-808,52,170,-817,98,12:49:48
327,-135,-453,710,-841,72,178,-852,57,12:49:48
327,-157,-444,707,-851,42,175,-836,-49,12:49:48
292,-136,-429,578,-799,-100,230,-811,-120,12:49:48
300,-133,-435,519,-690,-117,279,-859,-101,12:49:48
310,-148,-436,431,-618,-168,275,-897,-60,12:49:48
313,-150,-421,418,-599,-196,297,-861,-37,12:49:48
313,-150,-421,441,-609,-207,258,-807,-37,12:49:48
315,-148,-409,454,-578,-219,244,-790,-47,12:49:48
286,-141,-397,468,-536,-246,292,-802,-61,12:49:48
286,-141,-397,492,-519,-264,312,-819,-60,12:49:48
307,-163,-405,522,-521,-278,325,-835,-57,12:49:48
306,-159,-402,550,-525,-308,325,-835,-57,12:49:48
303,-162,-396,586,-518,-317,334,-840,-33,12:49:48
303,-162,-396,586,-535,-357,330,-847,-3,12:49:48
324,-166,-366,610,-522,-353,332,-852,25,12:49:48
298,-171,-367,610,-522,-353,341,-854,56,12:49:48
325,-174,-358,585,-476,-366,349,-872,118,12:49:48
315,-172,-369,585,-476,-366,388,-877,128,12:49:48
321,-165,-379,569,-441,-355,423,-879,106,12:49:48
319,-189,-355,518,-410,-364,447,-890,103,12:49:48
319,-189,-355,476,-355,-355,464,-887,78,12:49:48
319,-181,-364,366,-318,-372,484,-893,37,12:49:48
330,-190,-348,317,-284,-329,476,-923,23,12:49:48
330,-190,-348,246,-283,-296,453,-983,65,12:49:48
313,-178,-369,140,-305,-278,482,-1023,72,12:49:48
328,-196,-376,37,-296,-252,484,-1033,70,12:49:48
340,-180,-352,-58,-257,-243,412,-1034,85,12:49:48
340,-180,-352,-133,-123,-256,317,-1050,99,12:49:48
345,-174,-348,-182,37,-266,275,-1102,158,12:49:48
325,-190,-355,-232,53,-259,266,-1128,289,12:49:48
325,-181,-352,-268,-56,-218,280,-1077,319,12:49:48
333,-214,-379,-315,-167,-185,319,-1011,194,12:49:48
336,-195,-367,-421,-259,-144,319,-1011,194,12:49:48
348,-196,-355,-481,-163,-135,376,-1035,45,12:49:48
348,-196,-355,-599,168,-171,398,-1139,-88,12:49:48
334,-189,-361,-672,454,-80,504,-1259,-123,12:49:48
312,-169,-375,-778,672,35,652,-1323,-195,12:49:48
327,-169,-400,-956,791,105,400,-1365,-143,12:49:48
352,-184,-429,-1165,905,143,152,-1354,-110,12:49:48
348,-183,-438,-1248,963,231,142,-1328,-98,12:49:48
348,-183,-438,-1170,875,392,203,-1306,-118,12:49:48
342,-183,-435,-1069,774,436,190,-1361,-83,12:49:48
336,-178,-439,-1192,613,402,182,-1509,46,12:49:48
334,-133,-457,-1341,356,427,198,-1571,111,12:49:48
334,-133,-457,-1390,1,432,165,-1526,96,12:49:48
333,-136,-475,-1496,-324,333,97,-1473,41,12:49:48
351,-142,-483,-1668,-408,247,103,-1389,-82,12:49:48
351,-142,-483,-1794,-230,252,170,-1269,-178,12:49:48
319,-115,-478,-1750,-128,344,205,-1170,-130,12:49:48
340,-118,-489,-1590,-11,368,175,-1086,-163,12:49:48
316,-100,-484,-1234,315,292,158,-1032,-312,12:49:48
330,-90,-525,-1026,770,191,158,-1032,-312,12:49:48
334,-88,-514,-1122,991,128,215,-1074,-303,12:49:48
328,-96,-538,-1183,922,179,273,-1111,-107,12:49:48
328,-96,-538,-1183,922,179,358,-1073,37,12:49:49
345,-88,-540,-1236,1093,273,417,-1084,-47,12:49:49
340,-75,-532,-1257,1208,345,302,-1065,46,12:49:49
337,-66,-543,-1148,1619,277,205,-1050,114,12:49:49
337,-66,-543,-1019,1815,383,236,-1010,-58,12:49:49
373,-46,-564,-1004,2033,428,237,-909,-35,12:49:49
394,-37,-583,-906,2095,478,194,-849,72,12:49:49
394,-37,-583,-749,2004,553,112,-783,139,12:49:49
367,-16,-606,-622,1915,609,68,-811,205,12:49:49
406,-24,-598,-405,1708,749,34,-815,170,12:49:49
405,-25,-589,-291,1688,601,-81,-650,162,12:49:49
420,-19,-598,-200,1489,502,-133,-554,207,12:49:49
426,-3,-601,-73,1299,448,-115,-551,197,12:49:49
427,-21,-622,26,1167,385,-109,-498,192,12:49:49
427,-21,-622,94,1024,319,-99,-455,196,12:49:49
423,-10,-613,151,865,256,-74,-417,213,12:49:49
432,-7,-612,212,693,189,-74,-417,213,12:49:49
435,-12,-609,290,507,143,-46,-370,241,12:49:49
435,-12,-609,377,345,121,-20,-351,272,12:49:49
444,-10,-622,478,217,112,-6,-348,283,12:49:49
453,-25,-606,478,217,112,-9,-334,278,12:49:49
453,-25,-606,591,130,115,-6,-318,281,12:49:49
460,-31,-621,693,51,127,-1,-337,305,12:49:49
462,-37,-598,787,-29,132,-3,-358,340,12:49:49
454,-43,-615,877,-107,133,13,-393,391,12:49:49
435,-10,-595,956,-158,128,50,-477,455,12:49:49
445,-48,-582,1004,-132,128,115,-580,529,12:49:49
427,-33,-591,1014,-62,152,202,-697,609,12:49:49
427,-33,-591,993,27,206,278,-810,710,12:49:49
447,-48,-586,947,121,265,348,-902,822,12:49:49
459,-40,-586,858,218,324,427,-996,931,12:49:49
439,-61,-564,680,298,356,522,-1131,1043,12:49:49
444,-58,-568,378,262,373,619,-1298,1073,12:49:49
451,-63,-576,60,17,364,613,-1437,933,12:49:49
445,-54,-583,-179,-218,323,486,-1420,723,12:49:49
445,-54,-583,-343,-37,326,375,-1264,636,12:49:49
427,-40,-583,-324,393,298,375,-1264,636,12:49:49
450,-64,-564,-126,854,207,155,-960,657,12:49:49
430,-66,-567,146,1128,99,-171,-511,612,12:49:49
447,-49,-582,331,982,-6,-376,-258,557,12:49:49
468,-49,-588,331,982,-6,-340,-400,518,12:49:49
453,-61,-571,310,474,-91,-46,-919,371,12:49:49
453,-61,-571,122,7,-121,287,-1588,124,12:49:49
465,-51,-574,-165,-184,-166,377,-1951,-29,12:49:49
463,-54,-567,-424,56,-211,261,-1997,167,12:49:49
460,-36,-567,-536,477,-172,241,-1781,556,12:49:49
462,-37,-583,-404,105,-43,106,-1117,449,12:49:49
475,-52,-594,-25,-674,-17,-212,-553,-127,12:49:49
447,-60,-579,176,-885,-156,-344,-413,-331,12:49:49
447,-60,-579,156,-702,-268,-210,-459,-96,12:49:49
453,-45,-559,49,-560,-321,10,-622,70,12:49:49
448,-52,-561,79,-683,-340,187,-790,12,12:49:49
439,-61,-561,238,-1013,-331,320,-929,-123,12:49:49
439,-61,-561,518,-1260,-260,458,-1124,-250,12:49:49
439,-60,-553,684,-1245,-137,458,-1319,-324,12:49:49
438,-67,-556,683,-1129,17,644,-1319,-324,12:49:49
438,-67,-556,595,-1093,137,729,-1324,-255,12:49:49
429,-90,-564,531,-1092,191,613,-1152,-107,12:49:49
420,-69,-549,537,-1101,229,398,-954,34,12:49:49
400,-58,-529,537,-1101,229,149,-780,149,12:49:49
384,-66,-546,591,-1016,151,-50,-725,326,12:49:49
397,-76,-538,455,-1172,18,-147,-739,487,12:49:49
397,-73,-535,474,-1529,-32,-108,-752,416,12:49:49
397,-73,-535,583,-1925,-10,66,-821,225,12:49:49
390,-72,-511,709,-2086,46,294,-861,-56,12:49:49
382,-78,-532,814,-1966,102,498,-896,-342,12:49:49
337,-78,-492,823,-1659,139,633,-939,-380,12:49:49
337,-78,-492,721,-1429,126,682,-908,-293,12:49:49
355,-81,-478,751,-1164,147,672,-836,-330,12:49:49
364,-109,-466,695,-948,86,596,-778,-277,12:49:49
364,-109,-466,682,-679,44,455,-765,-104,12:49:49
340,-94,-469,680,-523,-7,314,-784,2,12:49:49
334,-105,-481,704,-417,0,284,-833,-4,12:49:49
336,-103,-466,624,-371,-134,254,-831,-1,12:49:49
340,-105,-456,633,-311,-129,211,-888,76,12:49:49
334,-100,-441,588,-282,-109,211,-888,76,12:49:49
327,-114,-460,492,-373,-151,237,-963,73,12:49:49
327,-114,-460,413,-443,-163,233,-926,55,12:49:49
325,-105,-450,376,-424,-176,257,-924,3,12:49:49
333,-114,-433,366,-331,-198,287,-928,-78,12:49:49
312,-114,-421,366,-331,-198,284,-919,-76,12:49:49
312,-114,-421,342,-268,-225,279,-914,-8,12:49:49
319,-120,-432,310,-274,-252,284,-901,51,12:49:49
334,-121,-436,296,-313,-275,291,-874,58,12:49:49
334,-121,-436,299,-338,-302,300,-853,27,12:49:49
346,-102,-445,319,-342,-317,320,-857,8,12:49:49
339,-114,-411,366,-310,-324,332,-869,3,12:49:49
324,-127,-421,419,-282,-345,335,-872,11,12:49:49
333,-133,-403,475,-269,-362,350,-876,53,12:49:49
352,-126,-400,508,-270,-365,374,-884,116,12:49:49
328,-130,-409,521,-273,-360,400,-885,167,12:49:49
328,-130,-409,510,-291,-344,429,-884,187,12:49:49
334,-142,-430,455,-316,-337,472,-893,167,12:49:49
337,-132,-418,415,-340,-282,478,-909,141,12:49:49
340,-135,-381,333,-356,-272,469,-935,138,12:49:49
324,-147,-390,282,-389,-199,469,-935,138,12:49:49
330,-141,-402,161,-449,-183,450,-940,153,12:49:49
355,-153,-397,64,-464,-154,411,-942,203,12:49:49
355,-153,-397,-24,-396,-145,444,-952,162,12:49:49
345,-154,-399,-79,-259,-123,492,-956,66,12:49:49
330,-126,-394,-79,-259,-123,396,-1023,175,12:49:49
339,-147,-412,-182,-135,-151,318,-1099,302,12:49:49
324,-132,-391,-289,10,-163,398,-1126,298,12:49:49
324,-139,-400,-434,126,-170,450,-1134,215,12:49:49
327,-124,-409,-588,75,-126,457,-1183,54,12:49:49
327,-124,-409,-655,-28,-4,463,-1242,-63,12:49:49
337,-151,-406,-718,135,30,532,-1266,-140,12:49:50
334,-141,-396,-780,505,56,663,-1259,-228,12:49:50
351,-141,-426,-854,875,85,734,-1235,-268,12:49:50
340,-120,-424,-961,794,166,411,-1223,-52,12:49:50
342,-132,-433,-1178,616,178,42,-1249,81,12:49:50
355,-120,-463,-1338,646,161,-4,-1322,-110,12:49:50
355,-120,-463,-1379,756,148,-16,-1413,-190,12:49:50
334,-127,-469,-1444,733,130,-9,-1534,-75,12:49:50
342,-108,-460,-1434,517,132,-22,-1600,96,12:49:50
334,-90,-489,-1517,165,109,-37,-1614,202,12:49:50
334,-90,-489,-1548,-282,151,-37,-1614,202,12:49:50
349,-93,-495,-1491,-569,221,-6,-1558,130,12:49:50
319,-78,-472,-1504,-571,202,66,-1445,-58,12:49:50
319,-78,-472,-1504,-571,202,108,-1359,-183,12:49:50
321,-49,-507,-1612,-377,193,149,-1205,-229,12:49:50
336,-64,-511,-1531,9,245,269,-1002,-297,12:49:50
331,-46,-508,-1377,428,198,243,-910,-162,12:49:50
351,-55,-526,-1311,760,151,267,-881,-27,12:49:50
342,-46,-535,-1103,959,244,381,-819,18,12:49:50
355,-46,-546,-945,984,307,397,-811,144,12:49:50
355,-46,-546,-952,1058,298,395,-871,199,12:49:50
363,-42,-555,-938,1296,247,394,-919,100,12:49:50
348,-42,-564,-910,1490,241,383,-932,-4,12:49:50
369,-19,-561,-864,1647,227,322,-894,48,12:49:50
369,-19,-561,-781,1652,247,235,-814,141,12:49:50
381,-15,-580,-700,1549,248,97,-727,243,12:49:50
393,-13,-583,-596,1488,247,14,-700,273,12:49:50
393,-13,-583,-484,1465,257,-2,-717,223,12:49:50
387,0,-609,-340,1479,294,-16,-691,162,12:49:50
412,-1,-600,-217,1474,316,-16,-691,162,12:49:50
423,-6,-627,-117,1394,308,-27,-646,142,12:49:50
438,18,-612,-41,1294,275,-58,-596,160,12:49:50
439,12,-612,-17,1151,215,-97,-564,169,12:49:50
415,4,-622,-17,1151,215,-132,-565,178,12:49:50
415,4,-622,-14,983,142,-162,-549,189,12:49:50
444,4,-610,12,805,77,-162,-535,211,12:49:50
436,7,-619,69,626,41,-126,-557,249,12:49:50
438,1,-598,144,458,34,-80,-583,286,12:49:50
438,1,-598,233,304,53,-49,-583,321,12:49:50
457,-13,-609,316,161,80,-30,-567,339,12:49:50
447,0,-621,400,54,100,-18,-588,379,12:49:50
447,0,-621,483,-32,127,8,-589,391,12:49:50
453,-1,-597,568,-85,170,49,-560,368,12:49:50
453,6,-597,643,-138,214,66,-561,410,12:49:50
453,-16,-610,706,-213,248,89,-561,465,12:49:50
472,3,-615,763,-291,256,121,-570,495,12:49:50
442,-33,-589,804,-313,254,151,-603,540,12:49:50
438,-15,-588,813,-284,251,201,-661,605,12:49:50
438,-15,-588,788,-240,259,201,-661,605,12:49:50
457,-16,-597,747,-180,294,258,-719,652,12:49:50
441,-27,-565,693,-120,339,286,-793,728,12:49:50
435,-7,-580,614,-45,394,311,-886,808,12:49:50
438,-27,-579,464,50,417,365,-1009,859,12:49:50
427,-52,-573,464,50,417,426,-1179,901,12:49:50
442,-48,-570,224,94,420,475,-1341,920,12:49:50
442,-48,-570,-27,11,416,486,-1435,891,12:49:50
435,-31,-577,-135,-119,412,430,-1402,832,12:49:50
453,-25,-579,-160,-55,377,334,-1188,810,12:49:50
439,-31,-579,-185,291,296,162,-856,797,12:49:50
456,-24,-573,-109,772,170,-105,-463,724,12:49:50
453,-25,-579,109,1089,44,-299,-180,637,12:49:50
447,-39,-588,318,1104,-49,-317,-241,549,12:49:50
447,-39,-588,429,777,-62,-109,-616,421,12:49:50
460,-43,-582,337,266,-10,190,-1202,198,12:49:50
456,-46,-565,88,-161,-9,356,-1766,-6,12:49:50
438,-22,-555,-221,-364,-106,418,-1996,50,12:49:50
454,-36,-570,-436,-121,-154,308,-1998,303,12:49:50
459,-7,-567,-557,273,-121,80,-1510,509,12:49:50
462,-16,-568,-403,-100,-60,80,-1510,509,12:49:50
462,-16,-568,8,-771,-121,-216,-673,266,12:49:50
447,-27,-597,179,-823,-317,-510,-275,-243,12:49:50
471,-24,-568,70,-543,-442,-493,-312,-263,12:49:50
471,-24,-568,70,-543,-442,-241,-495,49,12:49:50
439,-22,-574,-65,-511,-469,2,-663,176,12:49:50
450,-39,-577,36,-923,-405,180,-794,42,12:49:50
433,-42,-571,401,-1568,-294,328,-973,-227,12:49:50
433,-42,-571,658,-1878,-205,552,-1252,-407,12:49:50
411,-39,-552,725,-1687,-55,823,-1466,-403,12:49:50
417,-46,-561,648,-1293,163,952,-1472,-236,12:49:50
394,-60,-537,488,-1051,349,770,-1283,45,12:49:50
411,-36,-538,350,-1026,438,408,-989,228,12:49:50
388,-40,-538,396,-1089,438,109,-725,229,12:49:50
379,-61,-531,590,-1143,333,-66,-616,211,12:49:50
379,-61,-531,552,-1285,167,-141,-666,300,12:49:50
379,-49,-519,461,-1529,18,-100,-733,307,12:49:50
366,-46,-516,523,-1828,8,59,-778,78,12:49:50
351,-42,-501,662,-1922,43,231,-859,-106,12:49:50
351,-42,-501,614,-1880,41,363,-913,-219,12:49:50
342,-52,-478,603,-1599,-3,363,-913,-219,12:49:50
330,-57,-475,640,-1245,0,520,-901,-406,12:49:50
330,-57,-475,649,-905,30,641,-899,-463,12:49:50
316,-52,-471,658,-709,59,636,-920,-339,12:49:50
318,-69,-489,658,-709,59,525,-911,-145,12:49:50
312,-69,-447,611,-630,7,389,-876,-13,12:49:50
315,-61,-451,614,-586,-14,295,-871,36,12:49:50
316,-61,-439,593,-504,-6,277,-880,36,12:49:50
303,-81,-445,590,-576,18,166,-818,144,12:49:50
303,-81,-445,520,-655,-102,159,-784,117,12:49:50
331,-63,-421,529,-653,-113,284,-842,-49,12:49:50
319,-75,-435,470,-603,-137,298,-864,-40,12:49:50
297,-73,-417,373,-578,-182,331,-879,-22,12:49:50
297,-73,-417,326,-556,-213,351,-886,-24,12:49:50
285,-85,-415,338,-492,-218,373,-884,-28,12:49:50
304,-76,-399,361,-442,-216,395,-879,-4,12:49:50
304,-76,-399,397,-457,-210,391,-850,15,12:49:50
327,-73,-417,408,-476,-218,364,-833,18,12:49:50
309,-96,-408,396,-464,-245,341,-826,3,12:49:51
306,-84,-397,378,-426,-273,341,-826,3,12:49:51
298,-90,-385,383,-386,-304,319,-830,-6,12:49:51
316,-79,-382,408,-347,-343,295,-833,5,12:49:51
310,-106,-384,447,-323,-361,301,-839,29,12:49:51
310,-106,-384,447,-323,-361,321,-848,71,12:49:51
298,-99,-378,469,-342,-378,335,-857,124,12:49:51
303,-105,-382,479,-380,-373,370,-883,144,12:49:51
307,-106,-369,457,-418,-375,417,-893,129,12:49:51
307,-112,-381,457,-445,-355,439,-889,118,12:49:51
301,-108,-364,440,-443,-332,454,-892,119,12:49:51
315,-124,-351,406,-414,-307,457,-893,113,12:49:51
315,-124,-351,344,-406,-285,442,-898,87,12:49:51
318,-105,-345,273,-400,-266,428,-910,91,12:49:51
330,-126,-354,212,-406,-233,439,-927,111,12:49:51
301,-117,-337,104,-378,-238,498,-952,82,12:49:51
301,-117,-337,21,-297,-222,513,-998,89,12:49:51
321,-108,-342,-50,-261,-216,425,-1037,147,12:49:51
304,-108,-346,-123,-137,-224,348,-1086,185,12:49:51
304,-108,-346,-204,26,-241,354,-1134,209,12:49:51
334,-114,-333,-336,142,-241,438,-1189,198,12:49:51
316,-120,-343,-463,119,-156,438,-1189,198,12:49:51
310,-100,-351,-531,34,-42,545,-1294,98,12:49:51
316,-117,-345,-543,87,49,597,-1362,-17,12:49:51
330,-121,-357,-617,315,116,635,-1377,-8,12:49:51
307,-109,-364,-617,315,116,670,-1345,3,12:49:51
307,-109,-364,-758,604,116,620,-1259,-83,12:49:51
315,-109,-373,-884,826,91,483,-1202,-143,12:49:51
319,-94,-378,-1033,907,72,267,-1170,-105,12:49:51
325,-99,-370,-1164,959,55,92,-1167,-71,12:49:51
325,-99,-370,-1293,1055,21,42,-1247,-95,12:49:51
321,-103,-390,-1371,1107,21,-13,-1336,-23,12:49:51
310,-78,-421,-1508,998,-6,-66,-1424,134,12:49:51
310,-78,-421,-1558,668,24,-50,-1422,163,12:49:51
337,-67,-429,-1565,336,7,11,-1438,91,12:49:51
330,-78,-442,-1621,140,-33,85,-1450,-25,12:49:51
336,-88,-432,-1610,86,-49,96,-1362,-137,12:49:51
327,-70,-465,-1530,219,6,109,-1317,-185,12:49:51
342,-51,-454,-1526,387,9,93,-1222,-89,12:49:51
336,-79,-466,-1536,513,-9,94,-1053,-10,12:49:51
336,-79,-466,-1404,583,-28,139,-968,-37,12:49:51
334,-58,-486,-1234,725,11,139,-968,-37,12:49:51
339,-46,-498,-1158,925,105,244,-992,-48,12:49:51
337,-43,-468,-1240,986,133,361,-1010,12,12:49:51
337,-43,-468,-1375,872,41,356,-993,232,12:49:51
337,-31,-490,-1375,872,41,253,-896,287,12:49:51
361,-30,-495,-1122,1092,77,317,-870,78,12:49:51
361,-30,-495,-970,1232,141,403,-926,36,12:49:51
357,-33,-522,-956,1449,134,292,-900,95,12:49:51
378,6,-538,-905,1505,167,199,-808,147,12:49:51
381,-10,-543,-763,1416,203,116,-706,197,12:49:51
372,3,-538,-625,1377,221,60,-651,149,12:49:51
394,-7,-546,-516,1411,231,9,-641,134,12:49:51
379,-3,-546,-410,1430,238,-4,-636,103,12:49:51
379,-3,-546,-298,1409,254,-7,-634,90,12:49:51
397,-6,-562,-192,1385,268,-25,-611,95,12:49:51
409,15,-558,-102,1315,261,-72,-574,106,12:49:51
390,7,-559,-25,1226,233,-144,-548,139,12:49:51
429,4,-556,46,1093,201,-197,-517,162,12:49:51
417,18,-577,113,940,175,-197,-508,186,12:49:51
417,9,-591,189,756,165,-218,-508,186,12:49:51
417,9,-591,259,550,161,-194,-531,225,12:49:51
426,3,-582,335,350,165,-151,-544,285,12:49:51
424,-7,-574,416,156,182,-129,-540,350,12:49:51
421,-7,-586,506,11,205,-119,-537,393,12:49:51
430,-16,-553,506,11,205,-100,-532,407,12:49:51
429,3,-570,576,-62,217,-70,-534,418,12:49:51
435,-13,-571,618,-126,214,-39,-544,454,12:49:51
435,-13,-571,652,-192,221,11,-563,501,12:49:51
424,4,-577,689,-240,216,75,-607,542,12:49:51
429,-12,-580,705,-221,207,118,-659,582,12:49:51
421,-16,-553,688,-152,206,148,-700,618,12:49:51
420,-21,-574,660,-80,203,168,-750,668,12:49:51
402,-9,-586,620,-20,198,175,-797,725,12:49:51
421,-21,-555,571,36,205,165,-853,790,12:49:51
421,-21,-555,509,110,200,148,-906,858,12:49:51
423,-22,-574,441,191,207,151,-945,905,12:49:51
418,-30,-565,347,257,199,182,-1037,939,12:49:51
409,-24,-561,209,246,199,220,-1181,910,12:49:51
406,-28,-541,51,135,206,256,-1290,796,12:49:51
412,-31,-552,-89,31,213,256,-1290,796,12:49:51
432,-36,-561,-167,108,214,268,-1319,700,12:49:51
432,-36,-561,-159,400,199,206,-1207,687,12:49:51
397,-19,-547,-65,711,172,28,-903,716,12:49:51
408,-31,-562,121,815,131,-231,-474,732,12:49:51
408,-31,-562,121,815,131,-410,-120,660,12:49:51
420,-24,-559,308,742,91,-338,-29,499,12:49:51
421,-42,-558,367,509,73,-288,-249,394,12:49:51
427,-45,-568,238,-11,68,-180,-891,330,12:49:51
427,-45,-568,-24,-299,9,99,-1669,269,12:49:51
429,-31,-564,-290,-294,-203,309,-1995,96,12:49:51
427,-22,-577,-539,240,-390,509,-1998,198,12:49:51
427,-30,-577,-563,168,79,359,-943,215,12:49:51
430,-6,-577,67,-697,127,-391,-114,-434,12:49:51
412,-24,-579,346,-833,-135,-643,-44,-308,12:49:51
412,-24,-579,170,-642,-424,-413,-222,117,12:49:51
414,-31,-588,-99,-647,-516,-109,-463,269,12:49:51
429,-24,-573,-249,-996,-471,80,-658,114,12:49:51
397,-34,-573,18,-1605,-332,134,-783,-172,12:49:51
405,-19,-570,494,-2012,-203,224,-1022,-358,12:49:51
388,-34,-537,805,-1891,-97,224,-1022,-358,12:49:51
388,-34,-537,935,-1439,86,523,-1392,-386,12:49:51
387,-36,-535,931,-1045,277,871,-1629,-281,12:49:51
385,-37,-550,774,-906,379,992,-1602,-42,12:49:51
366,-69,-520,774,-906,379,773,-1376,273,12:49:51
372,-61,-543,539,-1019,407,397,-1049,407,12:49:51
357,-49,-507,548,-1113,375,131,-789,331,12:49:51
357,-49,-507,634,-1230,303,-15,-661,260,12:49:52
340,-58,-519,596,-1330,141,-54,-635,213,12:49:52
360,-67,-504,563,-1463,23,-6,-696,146,12:49:52
345,-61,-477,718,-1555,-11,129,-751,-43,12:49:52
324,-58,-490,887,-1424,58,338,-828,-252,12:49:52
333,-61,-471,957,-1278,135,439,-910,-217,12:49:52
333,-61,-471,888,-1155,128,467,-909,-145,12:49:52
318,-75,-448,819,-991,104,498,-894,-125,12:49:52
292,-60,-456,770,-920,103,453,-868,-18,12:49:52
324,-67,-463,728,-931,90,345,-816,82,12:49:52
307,-81,-435,687,-917,54,253,-786,83,12:49:52
304,-81,-423,687,-877,46,206,-784,70,12:49:52
304,-81,-423,701,-821,72,206,-784,70,12:49:52
294,-91,-396,667,-812,39,222,-817,27,12:49:52
294,-91,-396,584,-731,-11,218,-792,-1,12:49:52
307,-78,-430,571,-689,-31,279,-785,-13,12:49:52
286,-91,-402,571,-689,-31,332,-808,-53,12:49:52
277,-94,-391,508,-708,-83,311,-791,-64,12:49:52
277,-94,-391,467,-712,-133,346,-799,-89,12:49:52
283,-81,-382,444,-671,-165,350,-791,-84,12:49:52
276,-91,-387,448,-599,-179,328,-776,-51,12:49:52
270,-100,-361,469,-525,-200,306,-768,-14,12:49:52
288,-87,-388,480,-459,-219,305,-778,22,12:49:52
273,-88,-372,495,-431,-240,313,-798,52,12:49:52
261,-97,-354,521,-452,-267,312,-823,70,12:49:52
261,-97,-354,529,-494,-302,302,-856,69,12:49:52
292,-94,-351,529,-503,-329,292,-888,74,12:49:52
271,-100,-337,540,-491,-347,300,-905,80,12:49:52
271,-100,-337,549,-462,-362,312,-908,94,12:49:52
303,-126,-333,534,-406,-372,321,-930,108,12:49:52
297,-136,-313,508,-370,-364,321,-961,108,12:49:52
271,-111,-316,445,-347,-350,336,-956,108,12:49:52
271,-111,-316,382,-337,-317,353,-957,102,12:49:52
303,-114,-319,310,-338,-286,366,-968,99,12:49:52
283,-123,-285,214,-332,-270,381,-980,108,12:49:52
283,-123,-285,111,-326,-254,434,-994,105,12:49:52
282,-129,-316,111,-326,-254,512,-995,68,12:49:52
292,-141,-307,58,-304,-221,521,-984,74,12:49:52
306,-123,-319,-25,-300,-225,431,-994,135,12:49:52
306,-123,-319,-91,-210,-259,361,-1054,175,12:49:52
283,-124,-295,-163,-37,-278,375,-1140,250,12:49:52
277,-142,-300,-221,49,-247,423,-1170,340,12:49:52
291,-139,-301,-298,-23,-247,476,-1115,309,12:49:52
303,-147,-298,-380,-96,-210,554,-1044,120,12:49:52
301,-139,-300,-419,-116,-94,629,-1070,-111,12:49:52
289,-133,-297,-421,91,-12,601,-1135,-214,12:49:52
289,-133,-297,-494,489,-37,567,-1195,-145,12:49:52
297,-139,-330,-633,807,21,650,-1256,-102,12:49:52
274,-133,-319,-801,891,160,503,-1308,-98,12:49:52
274,-133,-319,-1036,964,130,77,-1319,-102,12:49:52
316,-153,-337,-1283,1110,15,-35,-1340,-133,12:49:52
300,-124,-340,-1341,1137,64,-35,-1340,-133,12:49:52
304,-127,-364,-1253,1074,195,150,-1372,-162,12:49:52
304,-127,-364,-1162,826,334,258,-1421,-151,12:49:52
304,-121,-369,-1206,444,366,178,-1483,-43,12:49:52
298,-133,-363,-1206,444,366,52,-1553,86,12:49:52
306,-115,-378,-1277,115,400,30,-1589,139,12:49:52
301,-132,-399,-1385,-107,367,28,-1562,106,12:49:52
318,-121,-388,-1538,-232,288,61,-1507,6,12:49:52
294,-100,-396,-1686,-276,201,107,-1383,-116,12:49:52
294,-100,-396,-1777,-146,233,147,-1297,-158,12:49:52
291,-109,-414,-1733,-46,350,143,-1205,-125,12:49:52
277,-103,-408,-1607,94,284,99,-1093,-93,12:49:52
277,-103,-408,-1480,293,149,123,-1019,-172,12:49:52
286,-87,-435,-1234,608,81,213,-1029,-227,12:49:52
306,-99,-433,-1150,904,80,393,-1078,-228,12:49:52
288,-72,-463,-1102,1159,186,462,-1071,-76,12:49:52
288,-72,-463,-1258,1316,173,398,-1033,-69,12:49:52
309,-87,-492,-1219,1608,261,330,-975,-180,12:49:52
316,-64,-475,-1127,1843,298,252,-906,-69,12:49:52
315,-69,-513,-1087,1948,334,215,-833,116,12:49:52
319,-60,-516,-947,1950,277,215,-833,116,12:49:52
333,-61,-523,-733,1941,273,173,-741,191,12:49:52
349,-72,-532,-514,1990,347,143,-681,32,12:49:52
349,-72,-532,-514,1990,347,115,-692,-38,12:49:52
333,-76,-528,-333,1873,361,90,-700,43,12:49:52
337,-57,-549,-333,1873,361,19,-650,183,12:49:52
337,-57,-549,-233,1681,338,-29,-572,187,12:49:52
363,-48,-565,-130,1542,333,-55,-530,140,12:49:52
361,-48,-561,-38,1400,331,-121,-497,155,12:49:52
361,-48,-561,53,1252,327,-183,-434,142,12:49:52
397,-45,-579,131,1108,294,-217,-397,165,12:49:52
399,-43,-565,191,930,240,-197,-398,211,12:49:52
396,-49,-583,260,719,203,-163,-408,253,12:49:52
409,-52,-595,340,525,179,-131,-432,281,12:49:52
405,-40,-598,427,364,183,-100,-443,292,12:49:52
387,-58,-586,519,212,207,-76,-431,294,12:49:52
387,-58,-586,628,85,245,-55,-432,323,12:49:52
397,-42,-588,732,-31,284,-21,-450,366,12:49:52
396,-70,-589,820,-129,310,15,-477,427,12:49:52
373,-73,-586,871,-183,317,53,-525,499,12:49:52
373,-70,-568,893,-179,327,53,-525,499,12:49:52
400,-66,-573,875,-152,332,120,-596,567,12:49:52
397,-67,-556,848,-105,333,172,-679,650,12:49:52
397,-67,-556,848,-105,333,219,-781,716,12:49:52
394,-72,-562,803,-35,346,277,-907,785,12:49:52
399,-87,-559,713,66,361,317,-1043,864,12:49:52
399,-87,-559,539,210,354,391,-1185,905,12:49:52
390,-94,-535,278,312,361,447,-1338,940,12:49:52
388,-103,-555,-4,312,371,442,-1465,945,12:49:52
376,-87,-571,-169,164,394,413,-1481,839,12:49:52
376,-87,-571,-218,60,382,329,-1362,743,12:49:52
382,-94,-564,-273,189,329,138,-1092,755,12:49:52
378,-91,-558,-282,526,238,-141,-663,762,12:49:52
379,-67,-571,-143,824,148,-379,-240,719,12:49:52
375,-100,-582,114,909,51,-424,-37,629,12:49:52
409,-88,-583,333,850,-31,-362,-92,504,12:49:52
405,-91,-588,394,592,-43,-216,-392,373,12:49:53
405,-91,-588,346,217,-44,69,-1024,283,12:49:53
385,-85,-576,62,-7,-86,328,-1717,250,12:49:53
411,-85,-571,-308,62,-271,328,-1996,256,12:49:53
406,-82,-564,-497,385,-392,437,-1996,256,12:49:53
406,-82,-564,-540,745,-280,551,-1998,295,12:49:53
420,-93,-577,-340,162,-55,542,-1746,446,12:49:53
421,-79,-586,-340,162,-55,65,-911,149,12:49:53
421,-79,-586,144,-521,-37,-542,-171,-411,12:49:53
432,-99,-586,392,-536,-266,-709,-62,-256,12:49:53
399,-97,-588,247,-293,-466,-437,-241,191,12:49:53
424,-90,-592,-50,-200,-546,-107,-497,308,12:49:53
426,-96,-595,-139,-579,-513,126,-672,159,12:49:53
393,-94,-601,149,-1394,-379,247,-799,-143,12:49:53
400,-97,-576,614,-1945,-245,336,-1071,-408,12:49:53
400,-97,-576,874,-1895,-106,574,-1445,-465,12:49:53
387,-106,-571,884,-1432,100,907,-1659,-331,12:49:53
372,-112,-553,819,-1038,336,1021,-1580,-85,12:49:53
345,-117,-558,718,-892,478,799,-1288,114,12:49:53
345,-117,-558,579,-892,505,416,-976,296,12:49:53
331,-114,-550,547,-886,428,86,-709,353,12:49:53
340,-111,-528,621,-961,312,-104,-578,332,12:49:53
340,-111,-528,549,-1102,121,-180,-618,353,12:49:53
351,-118,-528,492,-1285,-1,-180,-618,353,12:49:53
336,-124,-519,571,-1472,-30,-116,-705,276,12:49:53
316,-118,-507,656,-1482,-30,28,-785,95,12:49:53
316,-130,-505,704,-1398,5,172,-862,-94,12:49:53
318,-127,-484,770,-1204,57,321,-923,-206,12:49:53
309,-133,-486,770,-1204,57,472,-933,-280,12:49:53
309,-133,-486,852,-965,134,600,-956,-288,12:49:53
292,-147,-487,877,-863,205,589,-964,-176,12:49:53
300,-147,-471,812,-857,192,421,-910,-24,12:49:53
285,-145,-451,739,-789,136,292,-860,57,12:49:53
271,-138,-448,725,-742,140,213,-841,121,12:49:53
283,-162,-456,695,-763,123,160,-842,166,12:49:53
268,-136,-442,707,-795,88,148,-811,149,12:49:53
268,-136,-442,639,-822,47,221,-812,67,12:49:53
273,-148,-417,581,-810,-12,342,-840,-28,12:49:53
267,-133,-430,495,-788,-77,327,-832,-65,12:49:53
283,-154,-403,401,-670,-152,331,-851,-83,12:49:53
273,-138,-414,365,-619,-156,375,-865,-52,12:49:53
273,-156,-430,364,-641,-164,358,-832,-5,12:49:53
273,-138,-397,362,-639,-185,358,-832,-5,12:49:53
273,-138,-397,371,-596,-202,349,-813,15,12:49:53
274,-157,-400,391,-540,-217,344,-819,7,12:49:53
279,-139,-399,434,-494,-235,338,-815,-9,12:49:53
258,-162,-367,434,-494,-235,333,-811,3,12:49:53
276,-159,-378,518,-488,-287,314,-822,55,12:49:53
301,-177,-381,518,-488,-287,301,-838,112,12:49:53
279,-166,-352,536,-522,-315,298,-852,133,12:49:53
279,-166,-352,545,-543,-329,305,-860,109,12:49:53
271,-168,-369,536,-531,-352,330,-868,76,12:49:53
274,-162,-355,541,-496,-362,355,-881,63,12:49:53
276,-156,-340,531,-469,-366,373,-895,63,12:49:53
274,-172,-343,523,-427,-350,379,-907,77,12:49:53
267,-189,-334,480,-404,-329,382,-916,102,12:49:53
274,-177,-333,438,-406,-271,374,-933,118,12:49:53
274,-177,-333,371,-414,-222,358,-960,126,12:49:53
288,-166,-334,221,-448,-264,413,-994,103,12:49:53
280,-168,-313,169,-398,-219,479,-1007,41,12:49:53
267,-186,-321,91,-345,-196,439,-1009,47,12:49:53
277,-180,-319,7,-275,-203,339,-1059,85,12:49:53
298,-187,-340,-77,-96,-217,296,-1117,82,12:49:53
291,-193,-327,-158,43,-250,296,-1117,82,12:49:53
291,-193,-327,-217,109,-263,336,-1154,133,12:49:53
288,-171,-312,-253,56,-232,436,-1154,200,12:49:53
294,-172,-321,-298,-7,-155,558,-1132,161,12:49:53
283,-168,-307,-298,-7,-155,680,-1136,74,12:49:53
283,-168,-307,-298,67,2,767,-1140,23,12:49:53
286,-187,-333,-319,179,149,769,-1142,-31,12:49:53
277,-181,-331,-323,352,156,663,-1164,-156,12:49:53
277,-181,-331,-446,646,107,421,-1252,-175,12:49:53
288,-171,-345,-658,783,32,126,-1308,-78,12:49:53
282,-181,-337,-914,863,-88,-22,-1294,-70,12:49:53
280,-165,-357,-1158,1000,-112,8,-1283,-141,12:49:53
262,-177,-394,-1304,1087,-73,111,-1278,-172,12:49:53
303,-171,-394,-1329,995,63,186,-1327,-117,12:49:53
286,-160,-408,-1285,799,182,90,-1351,-78,12:49:53
286,-160,-408,-1253,643,207,-33,-1379,-26,12:49:53
285,-171,-426,-1271,429,230,-4,-1439,30,12:49:53
289,-160,-432,-1372,181,222,43,-1481,57,12:49:53
282,-153,-445,-1533,74,133,43,-1481,57,12:49:53
282,-153,-445,-1624,4,46,30,-1353,36,12:49:53
295,-138,-462,-1710,-42,29,5,-1354,-29,12:49:53
307,-123,-469,-1663,-79,92,-5,-1264,-56,12:49:53
307,-123,-469,-1628,1,95,6,-1184,-104,12:49:53
313,-117,-480,-1558,215,42,40,-1088,-177,12:49:53
292,-117,-496,-1558,215,42,83,-1027,-130,12:49:53
295,-123,-481,-1417,363,-18,168,-1014,-96,12:49:53
289,-109,-496,-1276,575,-30,276,-1054,-83,12:49:53
307,-114,-517,-1250,822,-9,374,-1075,-27,12:49:53
313,-93,-520,-1257,1124,38,441,-1057,23,12:49:53
313,-93,-520,-1285,1330,80,441,-1036,78,12:49:53
315,-97,-529,-1248,1519,112,400,-989,38,12:49:53
336,-96,-541,-1120,1707,202,319,-895,-52,12:49:53
325,-76,-555,-981,1743,273,201,-778,-12,12:49:53
337,-85,-565,-820,1646,281,89,-708,122,12:49:53
370,-70,-591,-644,1477,284,9,-689,150,12:49:53
339,-70,-592,-477,1411,310,-21,-697,99,12:49:53
339,-70,-592,-378,1384,319,-50,-711,96,12:49:53
358,-64,-598,-333,1391,310,-87,-709,127,12:49:53
373,-67,-609,-290,1361,291,-101,-676,164,12:49:53
388,-58,-595,-220,1272,276,-104,-619,190,12:49:53
370,-61,-600,-102,1130,292,-104,-619,190,12:49:53
390,-49,-601,-8,950,301,-118,-561,227,12:49:53
396,-61,-612,112,751,298,-146,-499,276,12:49:53
396,-61,-612,233,562,286,-148,-436,264,12:49:54
397,-34,-606,233,562,286,-133,-409,271,12:49:54
408,-49,-633,312,378,258,-100,-415,302,12:49:54
399,-40,-637,377,220,235,-50,-438,313,12:49:54
412,-46,-610,431,95,228,-21,-462,333,12:49:54
412,-46,-610,499,-11,238,-2,-471,346,12:49:54
408,-60,-628,588,-96,259,19,-468,337,12:49:54
411,-66,-595,674,-173,275,24,-471,353,12:49:54
406,-57,-601,739,-231,285,21,-484,410,12:49:54
399,-73,-603,788,-273,287,35,-522,470,12:49:54
391,-78,-594,831,-268,272,68,-595,535,12:49:54
391,-78,-594,856,-198,274,117,-677,609,12:49:54
388,-84,-576,846,-100,289,179,-773,675,12:49:54
384,-94,-586,808,7,323,240,-909,757,12:49:54
391,-82,-580,718,107,359,289,-1052,850,12:49:54
391,-85,-574,555,176,400,351,-1176,929,12:49:54
382,-87,-579,316,216,407,351,-1176,929,12:49:54
382,-87,-579,30,194,396,405,-1332,1004,12:49:54
375,-78,-558,-184,90,387,420,-1450,1008,12:49:54
372,-88,-574,-255,-5,367,396,-1453,872,12:49:54
385,-79,-573,-255,173,367,318,-1360,716,12:49:54
388,-79,-574,-267,133,328,159,-1165,682,12:49:54
393,-78,-583,-254,527,252,-75,-877,698,12:49:54
393,-78,-583,-165,945,155,-331,-583,680,12:49:54
388,-85,-586,-18,1138,65,-411,-518,648,12:49:54
391,-76,-583,98,990,-9,-205,-771,526,12:49:54
391,-76,-583,137,580,-102,102,-1182,292,12:49:54
411,-91,-601,113,149,-204,305,-1549,92,12:49:54
402,-72,-583,-152,-42,-247,311,-1769,196,12:49:54
408,-78,-591,-354,175,-228,101,-1643,437,12:49:54
408,-78,-591,-363,345,-241,-136,-1076,459,12:49:54
411,-76,-594,-204,35,-303,-323,-538,170,12:49:54
417,-94,-585,19,-314,-424,-387,-369,-105,12:49:54
393,-85,-588,70,-331,-471,-218,-496,-17,12:49:54
409,-81,-592,-70,-214,-400,27,-731,191,12:49:54
429,-73,-594,-150,-338,-254,27,-731,191,12:49:54
417,-75,-597,56,-848,-88,197,-892,228,12:49:54
417,-75,-597,408,-1449,21,263,-941,70,12:49:54
400,-76,-603,655,-1753,32,305,-1011,-121,12:49:54
391,-94,-567,655,-1753,32,400,-1147,-246,12:49:54
391,-94,-567,749,-1726,53,547,-1285,-265,12:49:54
378,-91,-574,699,-1448,128,646,-1377,-193,12:49:54
370,-87,-568,522,-1051,211,618,-1360,-51,12:49:54
369,-105,-550,395,-749,289,461,-1191,98,12:49:54
369,-105,-550,366,-675,307,225,-961,231,12:49:54
352,-109,-541,337,-835,235,7,-773,314,12:49:54
330,-84,-547,382,-924,103,-86,-646,234,12:49:54
337,-91,-520,408,-1041,25,-77,-644,168,12:49:54
336,-96,-535,406,-1256,-10,-55,-735,210,12:49:54
328,-108,-504,425,-1451,-21,27,-824,172,12:49:54
324,-108,-507,452,-1683,-14,123,-887,73,12:49:54
324,-108,-507,508,-1673,-33,266,-954,-64,12:49:54
325,-133,-487,544,-1524,3,469,-1030,-176,12:49:54
292,-103,-493,709,-1360,224,668,-1031,-241,12:49:54
297,-106,-474,809,-1258,310,668,-1031,-241,12:49:54
285,-118,-450,783,-1093,252,602,-944,-169,12:49:54
297,-120,-439,733,-954,176,432,-832,-62,12:49:54
297,-120,-439,715,-888,114,291,-770,-25,12:49:54
282,-111,-427,691,-815,56,232,-748,22,12:49:54
273,-106,-426,691,-815,56,211,-765,47,12:49:54
282,-126,-424,652,-802,7,205,-801,71,12:49:54
288,-115,-414,613,-809,-32,250,-839,35,12:49:54
267,-126,-409,594,-737,-28,324,-884,-37,12:49:54
270,-132,-403,534,-702,-61,281,-855,32,12:49:54
270,-132,-403,469,-562,-129,293,-861,39,12:49:54
273,-121,-412,450,-502,-139,348,-900,-8,12:49:54
262,-127,-403,427,-491,-158,309,-879,48,12:49:54
258,-132,-370,386,-499,-184,309,-872,58,12:49:54
261,-127,-369,366,-511,-199,308,-847,43,12:49:54
274,-133,-384,370,-510,-231,318,-817,13,12:49:54
273,-132,-393,394,-494,-260,323,-798,-15,12:49:54
273,-132,-393,431,-457,-284,323,-798,-28,12:49:54
277,-135,-382,484,-439,-308,338,-812,-18,12:49:54
273,-156,-385,541,-429,-323,334,-823,13,12:49:54
276,-157,-340,560,-443,-354,314,-859,63,12:49:54
277,-141,-375,597,-440,-357,314,-859,63,12:49:54
279,-169,-366,600,-411,-367,309,-874,72,12:49:54
279,-154,-345,605,-399,-362,294,-897,113,12:49:54
279,-154,-345,605,-399,-362,302,-889,131,12:49:54
270,-169,-339,581,-384,-346,337,-859,97,12:49:54
268,-165,-333,515,-387,-334,352,-867,79,12:49:54
271,-165,-309,462,-399,-299,358,-893,62,12:49:54
277,-178,-328,400,-424,-259,352,-936,72,12:49:54
276,-166,-304,331,-444,-228,371,-963,74,12:49:54
286,-159,-316,216,-454,-244,443,-964,30,12:49:54
286,-159,-316,142,-405,-223,496,-977,8,12:49:54
289,-180,-312,81,-375,-188,464,-988,28,12:49:54
292,-178,-298,-3,-269,-177,386,-1001,21,12:49:54
270,-166,-301,-93,-72,-193,322,-1046,43,12:49:54
270,-166,-301,-150,90,-249,318,-1074,95,12:49:54
297,-166,-315,-197,182,-267,404,-1106,129,12:49:54
285,-175,-303,-263,137,-216,506,-1161,139,12:49:54
285,-175,-303,-324,15,-108,587,-1199,69,12:49:54
294,-169,-315,-316,-13,0,658,-1191,5,12:49:54
307,-175,-310,-293,65,82,658,-1191,5,12:49:54
283,-162,-315,-321,255,95,686,-1174,-20,12:49:54
291,-157,-316,-402,418,35,653,-1191,-74,12:49:54
297,-163,-333,-567,523,-1,560,-1245,-100,12:49:54
306,-157,-337,-567,523,-1,296,-1247,-64,12:49:54
306,-157,-337,-814,609,-102,85,-1228,-20,12:49:54
300,-163,-324,-1019,686,-133,123,-1265,-77,12:49:54
304,-160,-343,-1192,881,-75,171,-1308,-140,12:49:54
312,-145,-363,-1262,994,50,180,-1302,-135,12:49:54
312,-145,-363,-1189,939,191,137,-1239,-110,12:49:54
292,-154,-379,-1080,800,284,66,-1210,-38,12:49:54
291,-151,-408,-1110,595,320,35,-1270,86,12:49:54
291,-151,-408,-1230,319,330,24,-1315,165,12:49:55
295,-127,-397,-1390,86,292,38,-1349,152,12:49:55
307,-129,-427,-1555,-65,199,58,-1348,66,12:49:55
324,-148,-405,-1666,-90,97,80,-1291,-21,12:49:55
301,-132,-408,-1753,-71,35,115,-1242,-84,12:49:55
298,-124,-424,-1634,42,50,160,-1144,-208,12:49:55
307,-132,-456,-1533,343,42,231,-1070,-200,12:49:55
307,-132,-456,-1466,459,3,263,-1058,-131,12:49:55
298,-118,-442,-1248,600,10,263,-1058,-131,12:49:55
313,-123,-456,-1195,905,-31,262,-1049,-174,12:49:55
313,-123,-456,-1298,1229,-51,325,-1055,-23,12:49:55
324,-111,-460,-1308,1388,10,325,-1055,-23,12:49:55
325,-109,-517,-1308,1388,10,373,-1036,0,12:49:55
336,-88,-495,-1248,1488,91,373,-1032,-3,12:49:55
336,-88,-495,-1169,1590,207,322,-1006,-24,12:49:55
336,-81,-523,-1046,1705,338,270,-950,-16,12:49:55
337,-78,-522,-848,1705,469,176,-862,65,12:49:55
348,-48,-543,-641,1576,512,66,-762,110,12:49:55
346,-79,-544,-486,1525,506,2,-762,158,12:49:55
357,-58,-558,-435,1515,455,-23,-822,198,12:49:55
391,-79,-550,-429,1536,416,-28,-838,208,12:49:55
391,-79,-550,-396,1542,387,-19,-791,201,12:49:55
376,-61,-556,-324,1521,371,-36,-717,193,12:49:55
391,-67,-582,-294,1377,333,-93,-650,242,12:49:55
379,-57,-562,-242,1160,290,-147,-587,295,12:49:55
391,-39,-576,-161,940,252,-165,-536,285,12:49:55
405,-66,-583,-70,732,211,-163,-499,247,12:49:55
412,-52,-600,4,580,163,-163,-499,247,12:49:55
412,-52,-600,85,423,146,-145,-500,233,12:49:55
400,-49,-580,190,252,164,-98,-525,266,12:49:55
408,-48,-585,324,170,195,-43,-533,293,12:49:55
399,-37,-586,451,119,210,8,-517,259,12:49:55
397,-54,-577,451,119,210,36,-509,272,12:49:55
424,-52,-580,564,39,220,36,-492,349,12:49:55
403,-54,-595,674,-56,223,43,-462,391,12:49:55
403,-54,-595,785,-128,221,67,-463,415,12:49:55
402,-66,-571,882,-161,212,93,-496,444,12:49:55
385,-60,-588,950,-158,205,121,-567,483,12:49:55
378,-73,-549,966,-121,215,176,-684,512,12:49:55
385,-70,-564,937,-57,245,236,-814,545,12:49:55
399,-81,-564,871,2,287,255,-905,597,12:49:55
381,-76,-559,798,46,335,243,-957,641,12:49:55
381,-76,-559,728,83,388,256,-997,676,12:49:55
376,-93,-555,627,104,423,270,-1032,716,12:49:55
375,-94,-550,449,107,419,270,-1082,771,12:49:55
370,-88,-541,183,91,366,278,-1163,791,12:49:55
370,-88,-541,-84,52,296,314,-1278,742,12:49:55
381,-88,-552,-225,20,237,314,-1278,742,12:49:55
384,-96,-546,-228,162,173,322,-1311,615,12:49:55
384,-96,-546,-186,527,112,277,-1244,512,12:49:55
376,-91,-568,-129,913,58,162,-1055,537,12:49:55
384,-87,-570,10,1089,20,-39,-704,587,12:49:55
385,-103,-556,10,1089,20,-193,-365,561,12:49:55
411,-87,-561,223,978,-18,-230,-268,491,12:49:55
411,-87,-561,353,634,-28,-201,-439,401,12:49:55
409,-82,-561,345,268,13,-66,-781,262,12:49:55
417,-111,-564,196,98,30,99,-1234,229,12:49:55
403,-96,-567,-23,165,-18,158,-1673,318,12:49:55
409,-96,-580,-196,371,-112,176,-1935,376,12:49:55
405,-87,-553,-266,531,-201,210,-1983,447,12:49:55
405,-87,-553,-282,501,-160,312,-1648,452,12:49:55
402,-96,-574,-191,110,-20,221,-1044,255,12:49:55
426,-93,-559,39,-242,49,-56,-658,29,12:49:55
414,-85,-561,212,-331,22,-144,-534,25,12:49:55
399,-93,-567,235,-349,-49,-53,-515,126,12:49:55
414,-97,-574,241,-447,-109,87,-566,128,12:49:55
424,-90,-564,237,-548,-177,219,-705,35,12:49:55
424,-90,-564,249,-639,-242,219,-705,35,12:49:55
403,-117,-562,288,-692,-275,321,-851,-64,12:49:55
382,-81,-544,349,-669,-261,371,-955,-116,12:49:55
382,-102,-558,373,-576,-205,424,-1054,-162,12:49:55
396,-105,-544,373,-576,-205,483,-1141,-174,12:49:55
408,-100,-552,376,-466,-123,519,-1190,-144,12:49:55
408,-100,-552,419,-382,0,517,-1190,-90,12:49:55
364,-91,-543,448,-336,133,462,-1150,0,12:49:55
390,-91,-532,420,-359,227,313,-1068,150,12:49:55
385,-108,-556,314,-448,217,138,-947,256,12:49:55
382,-115,-549,273,-513,158,55,-851,229,12:49:55
372,-112,-537,329,-524,140,62,-840,139,12:49:55
372,-112,-537,333,-593,130,56,-862,155,12:49:55
355,-121,-540,289,-662,71,44,-858,179,12:49:55
370,-111,-528,270,-737,42,112,-868,119,12:49:55
354,-130,-528,301,-829,11,191,-903,79,12:49:55
367,-121,-532,332,-857,0,280,-927,-3,12:49:55
364,-130,-508,357,-778,2,373,-950,-82,12:49:55
364,-130,-508,347,-621,2,418,-966,-101,12:49:55
349,-135,-514,322,-439,0,418,-954,-79,12:49:55
333,-111,-516,341,-247,7,411,-910,-33,12:49:55
333,-111,-516,396,-194,31,411,-910,-33,12:49:55
352,-130,-489,406,-262,51,347,-884,71,12:49:55
348,-121,-520,420,-371,86,286,-885,180,12:49:55
343,-133,-504,420,-371,86,257,-871,189,12:49:55
343,-133,-504,429,-413,105,252,-879,114,12:49:55
327,-138,-493,430,-406,100,258,-900,24,12:49:55
357,-142,-478,419,-323,86,265,-914,0,12:49:55
357,-142,-478,416,-252,74,281,-927,19,12:49:55
336,-130,-487,426,-234,69,288,-925,59,12:49:55
328,-136,-489,424,-259,60,286,-926,115,12:49:55
343,-142,-490,420,-306,51,277,-926,153,12:49:55
343,-142,-490,409,-338,37,258,-922,172,12:49:55
330,-141,-499,392,-347,11,243,-922,181,12:49:55
319,-141,-474,377,-336,-14,239,-917,175,12:49:55
319,-139,-463,369,-313,-37,244,-917,175,12:49:55
325,-174,-469,351,-315,-48,271,-927,183,12:49:55
334,-138,-471,325,-370,-46,303,-935,171,12:49:55
325,-139,-469,298,-453,-40,314,-948,139,12:49:55
325,-139,-469,281,-520,-28,314,-948,139,12:49:55
327,-154,-453,275,-552,-17,317,-960,99,12:49:56
304,-151,-441,265,-540,-16,314,-965,54,12:49:56
304,-151,-441,224,-501,-42,306,-968,25,12:49:56
310,-159,-457,224,-501,-42,310,-954,7,12:49:56
306,-163,-438,212,-440,-44,294,-931,40,12:49:56
306,-163,-438,180,-430,-61,256,-919,104,12:49:56
310,-144,-426,141,-460,-97,261,-913,102,12:49:56
315,-150,-457,142,-473,-94,267,-919,68,12:49:56
313,-168,-433,130,-455,-98,274,-934,16,12:49:56
313,-162,-432,125,-397,-102,301,-939,-38,12:49:56
328,-163,-430,119,-336,-105,321,-943,-54,12:49:56
288,-148,-433,117,-298,-105,340,-961,-39,12:49:56
288,-148,-433,98,-291,-98,351,-988,-15,12:49:56
307,-165,-426,68,-308,-84,356,-999,-14,12:49:56
327,-163,-429,4,-324,-110,386,-983,-45,12:49:56
303,-145,-442,41,-308,-64,371,-958,-53,12:49:56
303,-145,-442,41,-265,-44,310,-940,-18,12:49:56
303,-159,-438,-4,-222,-58,278,-931,8,12:49:56
310,-162,-433,-67,-198,-81,252,-938,14,12:49:56
310,-162,-433,-126,-175,-104,252,-938,14,12:49:56
303,-163,-432,-177,-151,-122,233,-964,13,12:49:56
306,-151,-435,-248,-126,-133,234,-1004,14,12:49:56
316,-181,-441,-294,-58,-138,255,-1040,-25,12:49:56
307,-159,-424,-294,-58,-138,261,-1078,-15,12:49:56
309,-169,-441,-346,-27,-117,254,-1080,-9,12:49:56
309,-169,-441,-361,-35,-117,219,-1054,-9,12:49:56
321,-156,-436,-405,-35,-126,202,-1082,-11,12:49:56
333,-138,-439,-497,16,-112,187,-1100,-22,12:49:56
309,-147,-438,-541,61,-133,171,-1082,-29,12:49:56
304,-162,-460,-597,146,-159,187,-1089,-26,12:49:56
331,-142,-459,-669,225,-162,214,-1107,-18,12:49:56
306,-138,-463,-731,279,-153,207,-1093,-8,12:49:56
306,-138,-463,-758,333,-150,184,-1065,8,12:49:56
325,-148,-475,-758,408,-136,161,-1037,22,12:49:56
325,-129,-490,-710,473,-130,134,-988,18,12:49:56
316,-130,-495,-602,492,-149,117,-923,9,12:49:56
336,-142,-480,-536,486,-156,113,-886,42,12:49:56
349,-148,-504,-504,449,-156,101,-868,83,12:49:56
322,-133,-484,-430,377,-159,101,-868,83,12:49:56
322,-133,-484,-310,324,-168,66,-840,84,12:49:56
322,-123,-516,-212,306,-186,44,-827,45,12:49:56
340,-136,-519,-217,294,-221,36,-872,71,12:49:56
319,-142,-501,-217,294,-221,39,-960,182,12:49:56
354,-138,-499,-210,260,-242,73,-1014,204,12:49:56
342,-124,-522,-152,206,-228,107,-1032,169,12:49:56
361,-132,-522,-95,137,-194,119,-1025,155,12:49:56
361,-132,-522,-42,65,-157,104,-992,135,12:49:56
360,-129,-508,6,7,-130,83,-960,118,12:49:56
349,-120,-520,51,-37,-114,68,-938,114,12:49:56
354,-147,-505,87,-91,-102,65,-924,120,12:49:56
354,-147,-505,121,-135,-91,73,-912,133,12:49:56
354,-150,-516,161,-180,-72,82,-905,142,12:49:56
346,-127,-516,196,-203,-47,90,-905,138,12:49:56
346,-127,-516,230,-212,-18,97,-907,135,12:49:56
349,-141,-520,260,-207,10,107,-907,140,12:49:56
339,-142,-498,294,-205,37,118,-899,156,12:49:56
348,-141,-484,321,-217,57,126,-890,182,12:49:56
343,-138,-507,329,-219,69,126,-880,197,12:49:56
334,-139,-493,326,-221,67,132,-880,197,12:49:56
360,-159,-508,304,-223,48,135,-866,203,12:49:56
360,-159,-508,269,-207,12,128,-850,201,12:49:56
346,-130,-508,226,-175,-22,120,-843,179,12:49:56
345,-147,-507,226,-175,-22,121,-842,154,12:49:56
345,-148,-481,190,-140,-49,127,-850,139,12:49:56
345,-148,-481,147,-89,-77,131,-880,135,12:49:56
351,-157,-504,96,-26,-97,139,-909,144,12:49:56
336,-151,-493,88,-1,-96,155,-914,147,12:49:56
336,-151,-493,142,-18,-61,170,-909,136,12:49:56
355,-163,-498,242,-59,-9,170,-912,135,12:49:56
349,-151,-501,315,-98,19,167,-937,164,12:49:56
357,-148,-495,329,-185,31,176,-972,183,12:49:56
337,-153,-489,314,-317,38,181,-991,137,12:49:56
357,-171,-495,303,-391,41,173,-1002,45,12:49:56
348,-156,-486,315,-353,46,160,-1016,-26,12:49:56
348,-156,-486,364,-263,64,156,-1037,-42,12:49:56
343,-165,-466,415,-185,98,166,-1072,13,12:49:56
336,-169,-480,417,-161,144,187,-1097,118,12:49:56
319,-162,-456,376,-203,187,187,-1097,118,12:49:56
319,-162,-456,339,-285,210,191,-1080,189,12:49:56
342,-163,-468,322,-342,189,161,-1022,180,12:49:56
340,-160,-468,291,-319,134,121,-961,107,12:49:56
340,-160,-468,291,-319,134,92,-924,24,12:49:56
325,-165,-456,238,-214,58,91,-909,-9,12:49:56
330,-168,-471,162,-84,-21,119,-913,-3,12:49:56
339,-175,-456,100,9,-74,153,-930,9,12:49:56
339,-156,-444,77,59,-102,191,-954,6,12:49:56
319,-177,-457,77,81,-102,227,-973,-10,12:49:56
324,-180,-471,91,95,-86,241,-989,-30,12:49:56
324,-180,-471,109,106,-58,238,-1002,-18,12:49:56
334,-163,-463,124,100,-26,229,-1000,26,12:49:56
330,-166,-474,135,63,4,219,-985,61,12:49:56
312,-184,-459,145,4,33,210,-973,70,12:49:56
321,-175,-438,156,-65,60,204,-973,46,12:49:56
339,-163,-468,162,-105,77,192,-980,17,12:49:56
343,-157,-453,156,-104,77,177,-989,4,12:49:56
343,-157,-453,141,-67,60,173,-988,7,12:49:56
328,-166,-451,126,-30,37,176,-981,15,12:49:56
330,-174,-453,107,-9,14,176,-981,15,12:49:56
342,-165,-435,93,1,-1,187,-974,12,12:49:56
327,-168,-451,78,25,-15,194,-968,4,12:49:56
321,-175,-474,65,36,-21,194,-970,6,12:49:56
322,-156,-453,65,36,-21,198,-975,13,12:49:56
322,-156,-453,57,33,-20,204,-975,13,12:49:56
331,-183,-448,54,32,-13,209,-970,13,12:49:56
331,-162,-471,57,23,-5,212,-963,21,12:49:56
310,-178,-436,61,4,2,217,-961,30,12:49:56
309,-166,-447,62,-13,13,225,-960,32,12:49:57
327,-172,-459,62,-35,24,232,-959,28,12:49:57
336,-178,-441,64,-53,32,236,-959,21,12:49:57
336,-178,-441,70,-65,40,233,-955,12,12:49:57
318,-168,-472,73,-66,44,231,-957,1,12:49:57
336,-163,-453,69,-53,44,230,-965,-1,12:49:57
310,-168,-442,67,-35,42,230,-967,0,12:49:57
310,-168,-442,69,-18,40,228,-965,3,12:49:57
324,-159,-439,69,-8,40,226,-964,9,12:49:57
316,-184,-453,61,-8,39,223,-960,10,12:49:57
316,-184,-453,56,-12,39,220,-957,1,12:49:57
313,-190,-448,51,3,37,220,-957,1,12:49:57
315,-160,-441,46,-18,42,223,-966,-19,12:49:57
324,-174,-439,48,-46,43,214,-969,-3,12:49:57
328,-172,-453,48,-48,39,201,-971,12,12:49:57
331,-184,-435,48,-48,39,202,-978,2,12:49:57
306,-168,-445,40,-43,32,203,-975,8,12:49:57
306,-168,-445,30,-48,23,203,-972,2,12:49:57
310,-169,-469,18,-53,10,199,-969,-4,12:49:57
298,-172,-454,18,-55,11,212,-960,-26,12:49:57
315,-178,-453,21,-47,10,229,-954,-48,12:49:57
315,-178,-453,22,-39,7,226,-952,-42,12:49:57
313,-177,-439,23,-26,4,228,-955,-36,12:49:57
316,-177,-453,29,-23,4,232,-958,-29,12:49:57
316,-177,-453,32,-21,4,229,-955,-23,12:49:57
312,-172,-444,30,-22,3,227,-954,-25,12:49:57
318,-177,-468,30,-23,4,227,-954,-33,12:49:57
340,-166,-451,30,-23,3,222,-952,-36,12:49:57
303,-175,-450,31,-16,3,223,-954,-30,12:49:57
310,-187,-448,33,-19,4,223,-954,-30,12:49:57
307,-183,-451,36,-19,2,224,-961,-29,12:49:57
307,-183,-451,32,-16,1,223,-968,-28,12:49:57
315,-171,-421,24,-20,0,224,-967,-21,12:49:57
328,-169,-463,20,-25,-6,221,-964,-14,12:49:57
328,-169,-463,20,-25,-6,218,-964,-29,12:49:57
315,-153,-433,14,-7,-14,214,-963,-48,12:49:57
315,-159,-439,14,4,-21,208,-961,-45,12:49:57
321,-198,-456,16,9,-28,205,-955,-35,12:49:57
321,-198,-456,14,8,-30,211,-950,-27,12:49:57
318,-178,-457,11,1,-26,221,-950,-25,12:49:57
337,-163,-450,12,-10,-22,225,-950,-31,12:49:57
307,-186,-447,16,-13,-18,230,-952,-41,12:49:57
310,-174,-450,21,-8,-16,230,-955,-41,12:49:57
303,-186,-444,23,-2,-17,225,-959,-31,12:49:57
304,-166,-447,22,3,-17,224,-960,-22,12:49:57
304,-166,-447,18,4,-19,223,-960,-14,12:49:57
309,-177,-426,11,1,-21,221,-961,-13,12:49:57
316,-156,-450,7,1,-23,220,-959,-20,12:49:57
300,-187,-441,2,-2,-24,219,-955,-23,12:49:57
300,-159,-441,0,4,-25,221,-958,-23,12:49:57
303,-175,-453,-2,7,-24,221,-958,-23,12:49:57
310,-171,-454,-2,7,-25,223,-957,-23,12:49:57
310,-171,-454,-4,7,-23,224,-957,-22,12:49:57
328,-177,-451,-5,8,-23,224,-961,-21,12:49:57
328,-186,-442,-7,8,-22,225,-963,-14,12:49:57
301,-172,-442,-7,8,-22,227,-965,-9,12:49:57
301,-172,-442,-8,4,-19,228,-964,-10,12:49:57
313,-193,-447,-9,1,-17,225,-962,-13,12:49:57
315,-177,-442,-11,0,-17,222,-960,-15,12:49:57
315,-177,-442,-10,1,-19,219,-956,-18,12:49:57
321,-177,-445,-9,2,-20,216,-956,-21,12:49:57
303,-180,-456,-7,7,-21,216,-961,-17,12:49:57
321,-171,-439,-9,6,-21,213,-963,-14,12:49:57
321,-175,-442,-7,8,-20,216,-962,-15,12:49:57
312,-171,-453,-5,7,-18,218,-962,-17,12:49:57
298,-193,-465,-4,3,-16,213,-961,-22,12:49:57
298,-193,-465,-3,5,-17,205,-962,-27,12:49:57
324,-184,-460,-2,12,-20,197,-963,-25,12:49:57
330,-192,-456,-3,18,-24,195,-961,-18,12:49:57
306,-178,-433,-3,7,-23,198,-962,-15,12:49:57
306,-178,-433,-2,0,-22,198,-962,-15,12:49:57
306,-178,-472,-2,-4,-22,200,-961,-16,12:49:57
315,-169,-454,-2,-3,-22,200,-962,-20,12:49:57
315,-169,-454,-2,-3,-22,198,-963,-22,12:49:57
295,-168,-450,-2,-6,-22,198,-963,-20,12:49:57
327,-171,-460,-3,-9,-21,198,-963,-18,12:49:57
315,-172,-454,-4,-9,-20,197,-963,-16,12:49:57
310,-169,-460,-7,-7,-19,199,-965,-12,12:49:57
312,-177,-436,-9,-9,-20,203,-967,-12,12:49:57
313,-187,-450,-9,-14,-20,205,-967,-15,12:49:57
313,-187,-450,-10,-13,-20,205,-967,-18,12:49:57
346,-184,-448,-13,-13,-20,207,-965,-17,12:49:57
327,-187,-463,-15,-14,-20,207,-962,-18,12:49:57
303,-181,-447,-14,-18,-21,206,-962,-16,12:49:57
303,-181,-447,-16,-14,-21,208,-963,-13,12:49:57
316,-190,-445,-16,-11,-21,209,-963,-8,12:49:57
310,-192,-459,-15,-14,-21,209,-961,-8,12:49:57
310,-192,-459,-15,-16,-21,209,-961,-12,12:49:57
310,-189,-462,-14,-10,-22,211,-961,-13,12:49:57
327,-174,-444,-11,-9,-21,214,-958,-12,12:49:57
309,-168,-463,-10,-23,-17,214,-957,-16,12:49:57
318,-177,-465,-8,-16,-16,213,-957,-16,12:49:57
327,-168,-448,-6,-12,-18,209,-958,-19,12:49:57
313,-184,-451,-4,-11,-19,206,-962,-18,12:49:57
313,-184,-451,-4,-11,-19,206,-967,-15,12:49:57
313,-180,-456,-1,-13,-18,207,-966,-11,12:49:57
303,-171,-463,0,-11,-19,207,-963,-6,12:49:57
312,-172,-435,-1,-12,-21,207,-961,-6,12:49:57
300,-171,-445,-3,-11,-22,207,-961,-7,12:49:57
312,-183,-459,-7,-9,-23,209,-962,-3,12:49:57
315,-169,-468,-8,-12,-21,213,-964,-2,12:49:57
315,-169,-468,-9,-17,-18,214,-963,-2,12:49:57
297,-166,-456,-11,-20,-15,215,-961,-3,12:49:57
307,-175,-469,-13,-18,-13,211,-962,-8,12:49:57
315,-169,-459,-14,-7,-14,206,-963,-10,12:49:57
304,-180,-442,-16,-4,-15,205,-962,-8,12:49:57
313,-171,-453,-11,-1,-16,207,-961,-3,12:49:58
313,-159,-439,-11,3,-17,209,-959,3,12:49:58
313,-159,-439,-9,0,-16,210,-958,7,12:49:58
309,-174,-457,-9,-7,-15,210,-958,7,12:49:58
325,-171,-441,-7,-11,-14,213,-957,3,12:49:58
289,-184,-442,-1,-2,-14,213,-954,-10,12:49:58
306,-181,-468,4,0,-13,213,-956,-18,12:49:58
322,-183,-465,4,0,-11,210,-960,-10,12:49:58
319,-175,-451,4,0,-11,207,-960,-7,12:49:58
319,-175,-451,4,3,-11,209,-958,-7,12:49:58
330,-187,-447,3,3,-11,205,-962,-5,12:49:58
319,-189,-468,2,6,-11,201,-965,0,12:49:58
309,-195,-448,0,7,-14,204,-966,2,12:49:58
309,-195,-448,-5,2,-12,206,-967,0,12:49:58
318,-175,-450,-7,-1,-12,206,-966,-2,12:49:58
307,-180,-463,-7,0,-13,205,-964,-4,12:49:58
307,-180,-463,-9,4,-15,205,-962,-3,12:49:58
316,-178,-448,-14,10,-17,204,-962,0,12:49:58
304,-180,-450,-18,11,-18,203,-962,0,12:49:58
319,-171,-435,-18,16,-18,206,-960,-2,12:49:58
309,-184,-450,-19,9,-14,206,-959,-1,12:49:58
309,-186,-448,-18,6,-13,206,-961,-7,12:49:58
325,-169,-465,-14,10,-14,204,-961,-13,12:49:58
325,-169,-465,-13,20,-16,204,-961,-13,12:49:58
321,-187,-463,-11,23,-15,205,-960,-4,12:49:58
321,-184,-451,-9,14,-13,208,-961,6,12:49:58
300,-174,-429,-4,3,-10,214,-958,0,12:49:58
300,-174,-429,0,5,-8,215,-956,-10,12:49:58
312,-172,-475,0,5,-8,209,-958,-14,12:49:58
319,-183,-463,4,7,-9,206,-958,-10,12:49:58
319,-183,-463,7,9,-10,205,-959,-8,12:49:58
307,-180,-466,10,13,-11,204,-961,-7,12:49:58
316,-174,-475,10,13,-11,202,-961,-1,12:49:58
307,-177,-469,8,17,-11,201,-965,0,12:49:58
315,-162,-454,5,9,-11,200,-969,0,12:49:58
309,-189,-462,5,3,-9,199,-967,-5,12:49:58
318,-178,-462,7,4,-9,199,-963,-8,12:49:58
318,-178,-462,9,5,-8,201,-959,-5,12:49:58
328,-190,-451,7,2,-7,205,-958,-2,12:49:58
307,-187,-474,5,-5,-5,207,-958,-1,12:49:58
297,-180,-453,4,-3,-5,211,-959,-5,12:49:58
295,-184,-460,1,-9,-4,211,-962,-7,12:49:58
315,-186,-472,0,-11,-4,211,-962,-7,12:49:58
298,-186,-459,-4,-9,-4,212,-965,-6,12:49:58
298,-186,-459,-9,-7,-6,213,-965,-4,12:49:58
336,-165,-462,-10,-6,-9,211,-962,-4,12:49:58
315,-178,-463,-13,-2,-10,208,-961,-6,12:49:58
318,-178,-462,-13,-2,-10,206,-965,-6,12:49:58
318,-181,-475,-14,5,-10,206,-967,-3,12:49:58
325,-175,-475,-13,4,-9,208,-968,3,12:49:58
313,-168,-460,-11,-7,-6,211,-967,4,12:49:58
313,-168,-460,-12,-13,-4,213,-963,0,12:49:58
310,-187,-459,-10,-12,-4,213,-958,-4,12:49:58
328,-180,-463,-7,-9,-4,211,-954,-11,12:49:58
328,-180,-463,-8,12,-9,209,-954,-12,12:49:58
310,-171,-465,-7,9,-11,211,-955,-7,12:49:58
312,-187,-459,-7,6,-12,214,-954,-4,12:49:58
334,-171,-460,-7,4,-11,216,-955,-1,12:49:58
334,-171,-460,-6,2,-11,215,-958,-2,12:49:58
315,-175,-445,-3,0,-10,214,-963,-8,12:49:58
315,-181,-472,-2,-2,-9,213,-966,-7,12:49:58
315,-163,-462,-2,-7,-8,212,-965,-2,12:49:58
321,-166,-439,-2,-2,-9,212,-963,-2,12:49:58
321,-174,-466,-1,0,-11,213,-963,-2,12:49:58
315,-184,-462,-1,0,-11,211,-959,-4,12:49:58
315,-184,-462,-3,4,-13,210,-958,-3,12:49:58
313,-166,-468,-4,7,-14,211,-958,0,12:49:58
324,-192,-445,-4,7,-14,212,-958,3,12:49:58
307,-165,-454,-3,0,-14,215,-961,0,12:49:58
313,-162,-445,-2,-4,-11,216,-962,-5,12:49:58
328,-175,-460,0,-5,-9,215,-962,-8,12:49:58
306,-189,-472,4,-4,-9,210,-962,-9,12:49:58
306,-189,-472,3,-3,-10,207,-959,-7,12:49:58
330,-169,-448,0,-1,-11,209,-959,-1,12:49:58
316,-172,-441,-1,-3,-12,211,-960,2,12:49:58
303,-162,-468,-4,-9,-10,213,-961,3,12:49:58
303,-162,-468,-5,-11,-9,210,-959,-2,12:49:58
316,-169,-441,-5,-7,-10,205,-961,-7,12:49:58
310,-183,-468,-4,-3,-11,205,-964,-3,12:49:58
310,-183,-468,-2,-1,-13,206,-967,0,12:49:58
328,-169,-462,-2,-1,-13,206,-968,4,12:49:58
312,-181,-460,-4,-4,-12,208,-964,6,12:49:58
307,-183,-451,-7,-11,-12,208,-960,1,12:49:58
324,-178,-462,-9,-13,-12,208,-960,1,12:49:58
318,-168,-466,-5,-9,-12,207,-958,-3,12:49:58
312,-178,-462,-1,-5,-12,207,-957,-6,12:49:58
312,-178,-462,-1,-5,-12,208,-959,-5,12:49:58
321,-150,-457,1,-9,-11,212,-960,-1,12:49:58
322,-172,-465,2,-10,-9,212,-960,-1,12:49:58
303,-163,-451,4,-11,-9,210,-961,2,12:49:58
303,-163,-451,4,-11,-9,208,-964,6,12:49:58
307,-174,-451,4,-7,-10,204,-966,9,12:49:58
324,-171,-466,5,-7,-11,206,-962,8,12:49:58
324,-171,-466,5,-6,-10,211,-962,5,12:49:58
298,-190,-478,5,-7,-9,211,-960,5,12:49:58
307,-171,-466,6,-9,-7,211,-959,6,12:49:58
322,-181,-460,7,-7,-8,210,-961,5,12:49:58
316,-165,-439,4,-7,-8,208,-961,7,12:49:58
316,-184,-451,4,-5,-7,212,-961,10,12:49:58
316,-181,-459,4,-7,-5,217,-963,11,12:49:58
316,-181,-459,1,-12,-2,218,-964,5,12:49:58
334,-174,-459,2,-16,0,217,-960,-7,12:49:58
303,-175,-457,0,-11,0,217,-960,-7,12:49:58
315,-160,-442,0,-5,0,214,-957,-10,12:49:58
313,-168,-450,-2,0,-2,213,-959,-5,12:49:58
283,-187,-466,-9,2,-3,209,-959,0,12:49:58
304,-171,-460,-9,2,-3,208,-961,-1,12:49:58
304,-171,-460,-13,8,-4,211,-966,0,12:49:59
330,-190,-463,-15,7,-5,213,-969,2,12:49:59
313,-175,-450,-13,5,-4,216,-967,-3,12:49:59
324,-184,-456,-11,4,-5,217,-963,-9,12:49:59
313,-177,-463,-8,11,-7,216,-960,-9,12:49:59
313,-163,-442,-4,11,-8,214,-958,-8,12:49:59
298,-172,-451,-2,8,-8,215,-957,-5,12:49:59
298,-172,-451,0,7,-8,215,-956,-7,12:49:59
313,-174,-475,2,7,-8,216,-958,-9,12:49:59
312,-163,-448,7,7,-7,217,-960,-10,12:49:59
297,-169,-432,6,14,-7,220,-957,-12,12:49:59
292,-165,-456,7,9,-7,221,-955,-9,12:49:59
288,-163,-459,7,2,-6,219,-957,-6,12:49:59
312,-166,-457,5,4,-8,212,-960,-6,12:49:59
312,-166,-457,5,7,-9,213,-962,0,12:49:59
303,-183,-471,2,4,-9,213,-962,0,12:49:59
304,-174,-439,-1,0,-9,218,-961,5,12:49:59
321,-175,-448,-5,1,-9,218,-961,1,12:49:59
321,-175,-448,-6,-5,-8,219,-963,-2,12:49:59
322,-175,-466,-6,-5,-8,220,-962,-3,12:49:59
316,-169,-454,-5,-3,-8,220,-960,-2,12:49:59
316,-169,-454,-8,-2,-9,218,-961,0,12:49:59
333,-163,-450,-12,-2,-9,218,-961,6,12:49:59
312,-172,-481,-14,-7,-10,217,-961,7,12:49:59
286,-186,-427,-11,-14,-9,218,-957,6,12:49:59
301,-181,-462,-7,-11,-9,219,-954,5,12:49:59
334,-163,-459,-4,-14,-7,222,-954,5,12:49:59
306,-166,-465,-4,-13,-7,225,-953,6,12:49:59
306,-166,-465,-4,-9,-8,224,-954,6,12:49:59
313,-165,-471,-7,-6,-9,222,-955,6,12:49:59
306,-178,-460,-10,-3,-11,221,-958,8,12:49:59
309,-169,-432,-11,0,-12,222,-960,9,12:49:59
309,-169,-432,-10,-2,-13,220,-960,7,12:49:59
319,-168,-472,-10,1,-13,220,-960,7,12:49:59
303,-186,-448,-9,2,-11,217,-960,6,12:49:59
303,-186,-448,-6,0,-11,218,-962,11,12:49:59
295,-166,-439,-5,-1,-11,216,-965,14,12:49:59
313,-178,-469,-8,-8,-12,211,-964,14,12:49:59
315,-183,-442,-8,-8,-12,210,-959,17,12:49:59
321,-180,-456,-13,-18,-11,211,-957,11,12:49:59
310,-181,-463,-11,-18,-11,210,-955,0,12:49:59
324,-177,-459,-6,-16,-12,212,-956,-1,12:49:59
324,-177,-459,-4,-10,-15,215,-958,3,12:49:59
319,-169,-460,-3,-7,-15,216,-958,11,12:49:59
321,-166,-466,-5,-13,-14,218,-958,17,12:49:59
295,-171,-450,-15,-13,-14,224,-957,14,12:49:59
295,-171,-450,-10,-21,-11,225,-959,8,12:49:59
297,-165,-459,-5,-23,-11,220,-960,7,12:49:59
327,-189,-453,-5,-15,-13,216,-961,7,12:49:59
327,-189,-453,-4,-8,-16,214,-961,13,12:49:59
298,-171,-462,-6,-11,-16,218,-960,24,12:49:59
307,-171,-460,-9,-18,-16,224,-960,21,12:49:59
297,-171,-454,-12,-22,-14,224,-958,13,12:49:59
307,-166,-478,-11,-20,-15,220,-957,8,12:49:59
313,-177,-463,-5,-15,-15,220,-957,8,12:49:59
313,-177,-463,-4,-14,-16,216,-957,8,12:49:59
294,-171,-459,-4,-14,-17,218,-954,8,12:49:59
319,-172,-453,-5,-11,-16,223,-956,5,12:49:59
322,-168,-456,-5,-13,-14,224,-957,5,12:49:59
303,-159,-457,-5,-13,-14,226,-956,8,12:49:59
304,-190,-454,-7,-10,-12,225,-961,8,12:49:59
304,-190,-454,-4,-8,-12,222,-963,8,12:49:59
310,-174,-451,-1,-3,-12,219,-961,7,12:49:59
306,-175,-466,0,-2,-14,217,-958,9,12:49:59
309,-156,-447,-1,-1,-14,216,-958,11,12:49:59
297,-169,-459,-3,-10,-14,216,-958,10,12:49:59
294,-160,-463,-6,-9,-16,214,-956,10,12:49:59
294,-160,-463,-6,-8,-17,211,-960,10,12:49:59
309,-169,-456,-4,-11,-14,213,-962,11,12:49:59
300,-172,-459,-2,-14,-14,214,-960,5,12:49:59
319,-160,-448,0,-16,-14,213,-960,-1,12:49:59
318,-187,-462,-1,-11,-16,213,-961,3,12:49:59
313,-168,-460,0,-9,-16,213,-962,9,12:49:59
313,-168,-460,2,-16,-15,216,-960,11,12:49:59
292,-160,-459,2,-15,-14,216,-960,11,12:49:59
294,-162,-468,2,-16,-14,217,-958,7,12:49:59
304,-175,-450,1,-16,-14,218,-958,6,12:49:59
319,-162,-457,2,-17,-14,219,-958,5,12:49:59
309,-178,-457,2,-17,-14,217,-959,0,12:49:59
309,-178,-457,2,-18,-14,218,-961,0,12:49:59
327,-175,-462,4,-18,-14,217,-960,2,12:49:59
309,-168,-442,2,-21,-13,215,-958,6,12:49:59
312,-169,-447,0,-20,-14,217,-959,7,12:49:59
301,-159,-466,-2,-17,-15,219,-961,8,12:49:59
297,-172,-462,-2,-16,-14,222,-959,4,12:49:59
297,-172,-462,-1,-16,-13,223,-957,2,12:49:59
300,-181,-459,-2,-11,-14,221,-960,2,12:49:59
292,-163,-429,0,0,-16,218,-960,2,12:49:59
325,-177,-451,-2,-3,-16,218,-958,3,12:49:59
319,-168,-456,-4,-8,-16,221,-957,3,12:49:59
318,-169,-459,-3,-9,-15,219,-957,1,12:49:59
304,-181,-454,-1,-12,-15,214,-960,2,12:49:59
304,-181,-454,0,-11,-14,212,-965,2,12:49:59
303,-178,-472,2,-8,-15,213,-967,2,12:49:59
301,-180,-442,0,-8,-16,213,-967,2,12:49:59
301,-180,-442,0,-11,-17,215,-965,1,12:49:59
310,-190,-468,0,-9,-19,216,-961,0,12:49:59
295,-160,-447,0,-9,-21,213,-957,0,12:49:59
301,-192,-460,0,-9,-21,210,-954,0,12:49:59
301,-192,-460,-2,-7,-21,212,-956,1,12:49:59
310,-175,-463,-2,-4,-21,217,-959,3,12:49:59
312,-186,-453,-2,-2,-19,220,-957,7,12:49:59
316,-157,-456,0,-9,-16,222,-956,10,12:49:59
303,-175,-435,0,-16,-14,221,-954,8,12:49:59
313,-175,-462,-3,-18,-14,219,-953,4,12:49:59
324,-159,-453,-4,-14,-15,217,-958,2,12:49:59
324,-159,-453,-5,-12,-17,218,-963,5,12:49:59
321,-168,-460,-5,-10,-18,218,-963,6,12:50:00
309,-172,-459,-4,-3,-19,219,-960,8,12:50:00
309,-172,-459,-4,-5,-16,220,-960,11,12:50:00
310,-175,-456,-3,-7,-16,217,-960,13,12:50:00
316,-168,-474,-3,-4,-15,218,-962,18,12:50:00
315,-168,-472,-2,-6,-15,222,-962,16,12:50:00
315,-168,-472,0,-7,-14,222,-962,16,12:50:00
315,-160,-457,0,-6,-14,224,-958,11,12:50:00
306,-177,-459,0,-1,-14,221,-958,7,12:50:00
315,-174,-450,2,5,-15,219,-958,4,12:50:00
310,-171,-445,0,7,-15,216,-958,9,12:50:00
312,-180,-450,0,7,-15,214,-958,14,12:50:00
313,-169,-457,-2,7,-16,212,-959,13,12:50:00
313,-169,-457,-4,6,-16,213,-961,12,12:50:00
312,-168,-438,-5,7,-15,214,-961,10,12:50:00
297,-172,-453,-4,9,-13,213,-959,5,12:50:00
297,-172,-453,-1,7,-12,213,-959,1,12:50:00
321,-168,-465,1,6,-13,211,-960,0,12:50:00
307,-168,-441,2,12,-14,210,-958,4,12:50:00
304,-177,-451,1,13,-15,212,-959,9,12:50:00
304,-177,-451,0,10,-16,212,-959,8,12:50:00
319,-177,-457,0,8,-16,213,-956,5,12:50:00
295,-159,-441,0,7,-16,217,-958,2,12:50:00
307,-166,-466,4,5,-14,219,-960,2,12:50:00
322,-172,-460,6,6,-14,220,-959,0,12:50:00
319,-180,-472,4,9,-16,220,-959,0,12:50:00
294,-174,-456,2,11,-16,218,-959,1,12:50:00
294,-174,-456,0,7,-16,217,-960,10,12:50:00
303,-169,-460,-4,2,-15,220,-961,15,12:50:00
303,-190,-442,-7,12,-16,222,-959,11,12:50:00
303,-190,-442,-4,9,-15,220,-957,7,12:50:00
312,-160,-469,-4,9,-15,219,-958,9,12:50:00
301,-180,-459,-3,7,-14,219,-959,10,12:50:00
295,-171,-457,-5,11,-16,219,-958,9,12:50:00
295,-171,-457,-7,15,-17,218,-957,15,12:50:00
312,-169,-444,-7,16,-16,217,-958,16,12:50:00
294,-166,-465,-7,11,-15,220,-959,12,12:50:00
294,-166,-465,-4,7,-14,223,-959,11,12:50:00
306,-172,-447,0,4,-12,223,-957,11,12:50:00
315,-172,-448,4,1,-10,220,-958,11,12:50:00
324,-165,-456,5,0,-11,219,-960,10,12:50:00
324,-165,-456,4,2,-12,218,-961,10,12:50:00
324,-184,-447,3,7,-14,217,-961,7,12:50:00
291,-187,-450,2,8,-14,216,-960,10,12:50:00
291,-178,-451,0,14,-16,215,-959,10,12:50:00
319,-168,-444,0,15,-18,217,-962,8,12:50:00
300,-162,-456,1,11,-18,217,-962,8,12:50:00
304,-174,-453,3,7,-16,218,-964,11,12:50:00
304,-174,-453,3,9,-16,216,-961,11,12:50:00
312,-148,-471,2,9,-18,215,-958,8,12:50:00
327,-174,-447,2,9,-18,213,-957,6,12:50:00
327,-174,-447,3,10,-19,210,-958,8,12:50:00
325,-174,-439,0,14,-21,212,-959,10,12:50:00
312,-159,-463,0,16,-20,216,-961,10,12:50:00
312,-159,-463,-1,12,-18,217,-961,14,12:50:00
313,-163,-447,-1,7,-16,214,-962,12,12:50:00
315,-183,-469,-2,7,-15,213,-964,5,12:50:00
318,-169,-454,-5,12,-18,215,-965,21,12:50:00
318,-181,-453,-9,8,-18,216,-966,24,12:50:00
295,-163,-462,-12,3,-16,213,-961,20,12:50:00
295,-163,-462,-13,0,-18,212,-959,15,12:50:00
327,-159,-453,-16,0,-19,209,-958,10,12:50:00
315,-172,-468,-18,5,-21,208,-958,9,12:50:00
318,-163,-453,-21,12,-23,210,-961,13,12:50:00
307,-172,-453,-23,14,-23,210,-961,13,12:50:00
309,-165,-450,-23,16,-23,213,-961,15,12:50:00
313,-168,-451,-23,16,-23,213,-959,18,12:50:00
313,-168,-451,-21,10,-21,212,-961,23,12:50:00
307,-156,-456,-16,1,-18,213,-960,26,12:50:00
315,-184,-466,-16,1,-18,212,-961,23,12:50:00
312,-174,-463,-14,-2,-16,214,-962,18,12:50:00
312,-157,-466,-10,-2,-15,216,-960,20,12:50:00
315,-163,-469,-7,-4,-14,216,-957,22,12:50:00
315,-163,-469,-4,-5,-14,215,-953,21,12:50:00
324,-183,-442,-6,-2,-16,213,-953,20,12:50:00
319,-172,-466,-8,5,-18,214,-955,19,12:50:00
306,-177,-442,-8,8,-19,215,-957,19,12:50:00
315,-169,-469,-4,8,-19,216,-960,20,12:50:00
315,-163,-442,-2,7,-18,211,-964,18,12:50:00
298,-177,-463,0,11,-21,207,-964,18,12:50:00
