magX[mG],magY[mG],magZ[mG],gyroX[mdps],gyroY[mdps],gyroZ[mdps],accX[mg],accY[mg],accZ[mg],hh:mm:ss.ms
427,-238,-477,0,-13,-14,-135,-979,59,0:29:08
426,-235,-478,0,-13,-14,-135,-979,59,0:29:08
426,-235,-478,0,-13,-14,-135,-979,59,0:29:08
426,-235,-478,0,-13,-14,-135,-979,59,0:29:08
426,-235,-478,0,-13,-14,-135,-979,59,0:29:08
426,-235,-478,0,-13,-14,-135,-979,59,0:29:08
426,-235,-478,0,-13,-14,-135,-979,59,0:29:08
426,-235,-478,0,-13,-14,-135,-979,59,0:29:08
426,-235,-478,0,-13,-14,-135,-979,59,0:29:08
426,-235,-478,0,-13,-14,-135,-979,59,0:29:08
426,-235,-478,0,-13,-14,-135,-979,59,0:29:08
426,-235,-478,0,-13,-14,-135,-979,59,0:29:08
426,-235,-478,0,-13,-14,-135,-979,59,0:29:08
426,-235,-478,0,-13,-14,-135,-979,59,0:29:08
426,-235,-478,0,-13,-14,-135,-979,59,0:29:08
426,-235,-478,0,-13,-14,-135,-979,59,0:29:08
426,-235,-478,0,-13,-14,-135,-979,59,0:29:08
426,-235,-478,0,-13,-14,-135,-979,59,0:29:08
426,-235,-478,0,-13,-14,-135,-979,59,0:29:08
426,-235,-478,0,-13,-14,-135,-979,59,0:29:08
426,-235,-478,0,-13,-14,-135,-979,59,0:29:08
426,-235,-478,0,-13,-14,-135,-979,59,0:29:08
426,-235,-478,0,-13,-14,-135,-979,59,0:29:08
426,-235,-478,0,-13,-14,-135,-979,59,0:29:08
426,-235,-478,0,-13,-14,-135,-979,59,0:29:08
426,-235,-478,0,-13,-14,-135,-979,59,0:29:08
426,-235,-478,0,-13,-14,-135,-979,59,0:29:08
426,-235,-478,0,-13,-14,-135,-979,59,0:29:08
426,-235,-478,0,-13,-14,-135,-979,59,0:29:08
426,-235,-478,0,-13,-14,-135,-979,59,0:29:08
426,-235,-478,0,-13,-14,-135,-979,59,0:29:08
426,-235,-478,0,-13,-14,-135,-979,59,0:29:08
426,-235,-478,0,-13,-14,-135,-979,59,0:29:08
426,-235,-478,0,-13,-14,-135,-979,59,0:29:08
426,-235,-478,0,-13,-14,-135,-979,59,0:29:08
426,-235,-478,0,-13,-14,-135,-979,59,0:29:08
426,-235,-478,0,-13,-14,-135,-979,59,0:29:08
426,-235,-478,0,-13,-14,-135,-979,59,0:29:08
426,-235,-478,0,-13,-14,-135,-979,59,0:29:08
426,-235,-478,0,-13,-14,-135,-979,59,0:29:08
426,-235,-478,0,-13,-14,-135,-979,59,0:29:08
426,-235,-478,0,-13,-14,-135,-979,59,0:29:08
426,-235,-478,0,-13,-14,-135,-979,59,0:29:08
426,-235,-478,0,-13,-14,-135,-979,59,0:29:08
426,-235,-478,0,-13,-14,-135,-979,59,0:29:08
426,-235,-478,0,-13,-14,-135,-979,59,0:29:08
426,-235,-478,0,-13,-14,-135,-979,59,0:29:08
426,-235,-478,0,-13,-14,-135,-979,59,0:29:08
426,-235,-478,0,-13,-14,-135,-979,59,0:29:08
426,-235,-478,0,-13,-14,-135,-979,59,0:29:08
426,-235,-478,0,-13,-14,-135,-979,59,0:29:08
426,-235,-478,0,-13,-14,-135,-979,59,0:29:08
426,-235,-478,0,-13,-14,-135,-979,59,0:29:08
426,-235,-478,0,-13,-14,-135,-979,59,0:29:08
426,-235,-478,4,-13,-11,-134,-973,60,0:29:08
457,-259,-469,5,-14,-13,-134,-973,60,0:29:08
457,-259,-469,7,-15,-11,-130,-969,63,0:29:08
429,-226,-475,7,-10,-11,-128,-971,56,0:29:08
426,-244,-492,2,-11,-9,-130,-975,59,0:29:08
426,-231,-493,-3,-6,-10,-131,-975,60,0:29:08
451,-231,-483,-8,-3,-9,-134,-978,59,0:29:08
436,-241,-495,-8,-9,-9,-137,-978,61,0:29:08
426,-223,-465,-7,-9,-9,-138,-972,59,0:29:08
426,-223,-465,-3,-11,-8,-134,-974,59,0:29:08
426,-232,-478,0,-14,-9,-134,-974,64,0:29:08
430,-232,-484,0,-14,-10,-136,-969,64,0:29:08
433,-231,-484,1,-17,-8,-130,-969,64,0:29:08
433,-231,-484,2,-7,-9,-128,-969,61,0:29:08
433,-231,-484,0,2,-11,-133,-970,62,0:29:08
447,-238,-471,0,1,-12,-132,-972,70,0:29:08
429,-240,-462,-2,0,-12,-129,-972,73,0:29:08
439,-237,-487,-2,-2,-8,-127,-973,71,0:29:08
429,-240,-490,-2,4,-8,-128,-973,67,0:29:08
432,-235,-489,-5,7,-9,-130,-973,66,0:29:09
436,-229,-468,-8,7,-11,-131,-976,67,0:29:09
418,-223,-493,-6,11,-11,-131,-976,67,0:29:09
450,-231,-493,-4,5,-9,-129,-975,64,0:29:09
435,-235,-486,-4,0,-7,-128,-972,64,0:29:09
430,-225,-486,-1,0,-7,-132,-972,61,0:29:09
444,-252,-481,-1,0,-7,-131,-975,61,0:29:09
433,-244,-466,2,-5,-7,-129,-972,61,0:29:09
438,-223,-501,4,-2,-4,-129,-970,60,0:29:09
438,-223,-501,3,0,-4,-128,-976,61,0:29:09
427,-238,-487,0,-4,-2,-128,-981,65,0:29:09
439,-240,-513,0,-6,-2,-127,-980,70,0:29:09
427,-238,-486,0,0,-5,-125,-976,68,0:29:09
439,-231,-495,1,3,-7,-125,-968,65,0:29:09
429,-244,-475,2,11,-10,-125,-966,63,0:29:09
432,-217,-484,4,11,-9,-125,-971,63,0:29:09
447,-244,-496,4,7,-7,-124,-977,67,0:29:09
427,-228,-471,5,2,-5,-126,-980,70,0:29:09
447,-217,-478,8,3,-4,-127,-979,68,0:29:09
450,-237,-498,9,4,-5,-126,-977,63,0:29:09
450,-237,-498,4,4,-5,-122,-974,63,0:29:09
433,-229,-499,3,5,-5,-121,-972,65,0:29:09
423,-235,-481,3,0,-5,-122,-976,61,0:29:09
429,-232,-466,0,0,-5,-124,-977,60,0:29:09
439,-219,-490,0,-2,-4,-126,-978,59,0:29:09
442,-222,-480,-2,-7,-4,-128,-978,61,0:29:09
426,-223,-453,-7,-8,-6,-130,-976,63,0:29:09
427,-237,-468,-14,-1,-9,-131,-974,59,0:29:09
435,-237,-490,-11,0,-12,-128,-973,63,0:29:09
411,-229,-477,-6,4,-11,-123,-974,66,0:29:09
409,-217,-478,-2,3,-9,-121,-973,60,0:29:09
448,-240,-486,0,5,-11,-125,-969,62,0:29:09
448,-240,-486,0,6,-11,-126,-970,64,0:29:09
436,-229,-475,0,11,-11,-124,-974,60,0:29:09
436,-229,-475,0,7,-12,-129,-975,61,0:29:09
418,-234,-475,-2,-1,-11,-132,-975,67,0:29:09
418,-234,-475,-1,-1,-9,-126,-974,65,0:29:09
414,-216,-484,-1,7,-12,-125,-971,68,0:29:09
427,-232,-468,0,5,-12,-125,-971,68,0:29:09
439,-219,-487,2,0,-11,-123,-973,71,0:29:09
451,-234,-499,4,3,-11,-122,-977,67,0:29:09
435,-232,-480,2,6,-12,-124,-975,66,0:29:09
439,-223,-484,3,2,-11,-123,-973,69,0:29:09
453,-231,-484,4,4,-11,-123,-974,67,0:29:09
417,-226,-475,2,6,-11,-123,-975,68,0:29:09
441,-228,-490,4,0,-9,-122,-978,72,0:29:09
444,-226,-493,4,-2,-7,-121,-978,71,0:29:09
444,-226,-493,3,0,-7,-123,-977,67,0:29:09
442,-229,-489,4,0,-7,-126,-978,68,0:29:09
423,-243,-495,2,2,-7,-125,-977,71,0:29:09
439,-244,-477,5,0,-4,-121,-977,71,0:29:10
420,-246,-471,4,4,-4,-119,-978,67,0:29:10
436,-229,-474,4,5,-7,-121,-972,64,0:29:10
438,-237,-495,1,7,-8,-123,-971,66,0:29:10
415,-244,-477,5,4,-10,-126,-979,66,0:29:10
444,-216,-469,7,8,-11,-126,-979,66,0:29:10
435,-234,-483,8,8,-9,-123,-976,63,0:29:10
414,-244,-475,8,3,-5,-121,-975,65,0:29:10
442,-252,-471,7,5,-5,-119,-975,67,0:29:10
444,-243,-480,4,11,-8,-119,-976,64,0:29:10
412,-231,-474,4,11,-9,-119,-975,62,0:29:10
435,-226,-492,5,18,-9,-118,-974,60,0:29:10
453,-223,-471,2,16,-9,-120,-974,59,0:29:10
453,-223,-471,1,12,-7,-122,-976,61,0:29:10
444,-226,-498,2,16,-9,-120,-976,62,0:29:10
430,-232,-487,1,21,-11,-120,-975,58,0:29:10
438,-243,-477,2,14,-9,-122,-975,63,0:29:10
439,-223,-483,2,11,-8,-119,-975,65,0:29:10
424,-241,-490,2,21,-10,-117,-974,58,0:29:10
421,-231,-487,2,23,-11,-121,-973,59,0:29:10
435,-237,-489,2,21,-10,-125,-972,62,0:29:10
438,-234,-475,2,22,-9,-123,-978,63,0:29:10
445,-232,-486,2,19,-9,-123,-976,63,0:29:10
435,-232,-484,2,19,-9,-123,-976,63,0:29:10
429,-225,-478,1,21,-10,-121,-976,62,0:29:10
439,-244,-480,3,21,-9,-118,-975,62,0:29:10
433,-235,-495,6,26,-9,-117,-975,60,0:29:10
436,-225,-502,4,26,-11,-118,-975,61,0:29:10
444,-229,-475,2,23,-11,-121,-972,64,0:29:10
444,-229,-475,1,25,-9,-119,-973,64,0:29:10
459,-237,-501,0,28,-9,-115,-979,61,0:29:10
426,-238,-477,2,26,-9,-112,-980,58,0:29:10
429,-220,-495,1,25,-10,-113,-976,58,0:29:10
444,-241,-471,-1,23,-11,-118,-975,57,0:29:10
424,-237,-477,-1,23,-11,-120,-978,56,0:29:10
447,-232,-480,-1,16,-11,-121,-977,54,0:29:10
439,-222,-489,-2,16,-13,-124,-976,53,0:29:10
438,-220,-483,-2,12,-15,-127,-976,58,0:29:10
442,-240,-496,0,7,-16,-127,-975,61,0:29:10
447,-231,-489,-1,4,-16,-125,-979,58,0:29:10
432,-244,-477,-1,2,-15,-125,-979,58,0:29:10
430,-241,-474,-4,0,-16,-127,-976,63,0:29:10
438,-232,-480,-4,-2,-16,-129,-976,63,0:29:10
438,-232,-480,-4,4,-18,-129,-979,61,0:29:10
439,-238,-492,-4,5,-16,-126,-980,63,0:29:10
430,-243,-474,-2,3,-14,-120,-977,66,0:29:10
423,-246,-493,-4,9,-14,-118,-972,64,0:29:10
430,-238,-487,-7,19,-15,-123,-972,68,0:29:10
432,-231,-492,-1,15,-13,-121,-974,73,0:29:10
436,-228,-481,0,17,-11,-118,-972,67,0:29:10
442,-232,-480,0,17,-10,-121,-969,66,0:29:10
439,-235,-483,0,13,-11,-125,-972,72,0:29:11
424,-247,-483,1,11,-14,-129,-977,71,0:29:11
444,-231,-499,2,8,-16,-132,-975,68,0:29:11
448,-223,-489,3,7,-14,-132,-971,64,0:29:11
435,-237,-496,9,2,-13,-131,-971,63,0:29:11
439,-241,-501,11,0,-12,-130,-970,65,0:29:11
436,-252,-477,7,-2,-11,-129,-976,65,0:29:11
426,-222,-487,8,-11,-11,-129,-976,65,0:29:11
439,-256,-469,6,-7,-11,-127,-977,63,0:29:11
439,-256,-469,2,-2,-11,-126,-973,60,0:29:11
441,-222,-474,3,0,-12,-126,-974,62,0:29:11
441,-229,-489,7,-3,-10,-128,-975,64,0:29:11
421,-223,-459,8,-2,-7,-129,-973,65,0:29:11
433,-234,-472,9,-5,-4,-128,-974,65,0:29:11
433,-229,-468,6,2,-7,-126,-974,69,0:29:11
424,-226,-471,2,10,-9,-127,-975,67,0:29:11
414,-241,-471,0,7,-5,-124,-974,67,0:29:11
424,-219,-474,6,5,-3,-122,-974,68,0:29:11
432,-232,-477,7,14,-7,-126,-976,68,0:29:11
429,-219,-496,5,16,-7,-124,-975,65,0:29:11
447,-250,-484,3,13,-5,-117,-972,66,0:29:11
417,-228,-474,5,16,-4,-119,-974,67,0:29:11
432,-222,-483,9,14,-6,-124,-977,68,0:29:11
441,-223,-481,10,14,-7,-122,-975,67,0:29:11
430,-232,-487,8,24,-9,-122,-975,67,0:29:11
430,-232,-487,9,25,-8,-121,-971,59,0:29:11
460,-226,-498,10,30,-7,-117,-969,59,0:29:11
436,-243,-484,11,29,-4,-117,-972,63,0:29:11
435,-235,-495,11,26,-3,-121,-975,65,0:29:11
432,-232,-499,13,28,-4,-122,-973,62,0:29:11
436,-234,-478,11,35,-4,-122,-971,56,0:29:11
427,-220,-466,12,42,-4,-124,-971,53,0:29:11
427,-220,-466,16,37,-3,-125,-975,57,0:29:11
456,-232,-495,20,36,-3,-126,-975,59,0:29:11
448,-232,-478,18,37,-3,-127,-971,57,0:29:11
441,-231,-468,18,39,-1,-124,-966,57,0:29:11
423,-243,-487,11,57,-2,-124,-967,58,0:29:11
447,-223,-480,7,67,0,-124,-968,58,0:29:11
436,-234,-474,2,72,4,-120,-960,62,0:29:11
459,-235,-496,-4,74,9,-121,-960,70,0:29:11
448,-220,-510,-4,60,14,-124,-969,82,0:29:11
438,-231,-493,4,53,17,-139,-983,86,0:29:11
441,-223,-487,20,28,19,-139,-983,86,0:29:11
423,-229,-472,37,4,23,-144,-981,87,0:29:11
423,-229,-472,49,-7,26,-143,-969,71,0:29:11
444,-228,-487,56,-5,26,-151,-958,54,0:29:11
450,-226,-484,59,-22,27,-154,-956,52,0:29:11
426,-220,-475,63,-30,28,-150,-957,52,0:29:11
459,-232,-477,59,-42,30,-149,-952,47,0:29:11
429,-243,-490,61,-55,36,-149,-945,47,0:29:11
427,-241,-471,57,-60,42,-144,-948,47,0:29:11
451,-228,-478,57,-63,48,-134,-961,56,0:29:12
429,-241,-481,63,-78,51,-129,-969,64,0:29:12
430,-225,-475,77,-117,59,-136,-960,55,0:29:12
433,-223,-483,100,-148,82,-137,-959,49,0:29:12
433,-225,-478,135,-196,102,-120,-963,52,0:29:12
429,-232,-477,145,-211,97,-104,-964,48,0:29:12
436,-237,-463,135,-218,79,-100,-962,43,0:29:12
436,-237,-463,116,-261,65,-87,-959,48,0:29:12
426,-225,-471,118,-315,67,-29,-1011,69,0:29:12
414,-240,-444,130,-338,83,-29,-1011,69,0:29:12
415,-228,-447,140,-333,94,24,-1023,82,0:29:12
415,-250,-429,130,-276,81,57,-1007,90,0:29:12
418,-241,-439,126,-231,68,81,-990,69,0:29:12
409,-234,-433,131,-189,66,84,-998,53,0:29:12
402,-253,-450,153,-185,68,53,-1016,68,0:29:12
405,-238,-435,138,-170,42,22,-1030,71,0:29:12
390,-235,-469,112,-144,18,21,-1025,54,0:29:12
396,-243,-442,95,-113,12,40,-1005,30,0:29:12
399,-240,-414,79,-111,14,44,-999,27,0:29:12
394,-228,-429,53,-64,-1,18,-1006,29,0:29:12
390,-244,-399,30,-53,-24,-27,-1007,34,0:29:12
384,-253,-432,39,-109,-30,-43,-998,60,0:29:12
384,-235,-411,60,-151,-37,-12,-982,61,0:29:12
384,-235,-411,109,-128,-51,18,-963,30,0:29:12
409,-247,-424,149,-70,-82,15,-946,10,0:29:12
403,-253,-405,197,-73,-103,35,-940,30,0:29:12
402,-232,-412,226,-85,-117,35,-940,30,0:29:12
400,-244,-417,236,-70,-133,39,-941,15,0:29:12
390,-243,-400,231,-48,-146,30,-946,19,0:29:12
391,-267,-411,244,-51,-157,22,-945,36,0:29:12
402,-243,-400,251,-99,-148,25,-959,61,0:29:12
420,-250,-394,236,-129,-141,31,-968,63,0:29:12
408,-247,-406,231,-114,-160,33,-950,35,0:29:12
399,-252,-402,247,-81,-168,36,-951,22,0:29:12
411,-259,-388,256,-89,-194,20,-986,50,0:29:12
415,-250,-369,263,-124,-209,18,-1037,103,0:29:12
412,-258,-373,274,-113,-229,51,-1027,93,0:29:12
427,-267,-388,275,-100,-240,79,-995,77,0:29:12
436,-270,-369,223,-79,-247,103,-1043,117,0:29:12
421,-268,-364,108,-68,-266,109,-1123,176,0:29:12
438,-270,-342,-60,-51,-269,100,-1166,246,0:29:12
438,-270,-342,-268,60,-215,109,-1176,201,0:29:12
447,-258,-334,-512,294,-127,131,-1208,74,0:29:12
438,-279,-366,-815,486,-56,75,-1200,-93,0:29:12
448,-270,-378,-1092,501,22,-129,-1139,-63,0:29:12
432,-283,-381,-1288,394,130,-129,-1139,-63,0:29:12
432,-283,-381,-1369,259,198,-273,-1093,-46,0:29:12
457,-264,-453,-1343,-23,220,-347,-1110,9,0:29:12
439,-238,-444,-1309,-308,157,-373,-1150,71,0:29:12
445,-246,-477,-1331,-375,77,-376,-1124,-10,0:29:12
453,-226,-508,-1279,-108,21,-334,-1049,-70,0:29:13
439,-222,-499,-1172,289,45,-233,-980,-56,0:29:13
475,-210,-535,-1147,436,123,-109,-1011,-33,0:29:13
426,-186,-541,-1143,606,226,-30,-1110,86,0:29:13
453,-184,-567,-1068,760,295,-54,-1102,127,0:29:13
457,-175,-592,-959,802,334,-141,-990,152,0:29:13
451,-154,-597,-894,839,325,-250,-912,223,0:29:13
451,-154,-597,-835,891,270,-303,-865,204,0:29:13
480,-144,-601,-753,888,201,-309,-784,189,0:29:13
484,-139,-625,-584,771,134,-285,-728,213,0:29:13
507,-147,-631,-261,542,123,-207,-646,293,0:29:13
484,-126,-633,-30,441,177,-211,-590,304,0:29:13
505,-126,-645,177,362,128,-211,-590,304,0:29:13
505,-126,-645,310,275,95,-188,-558,342,0:29:13
537,-135,-628,445,226,98,-121,-556,395,0:29:13
534,-133,-640,496,235,85,-90,-571,417,0:29:13
529,-133,-634,505,254,79,-41,-625,430,0:29:13
511,-150,-634,545,251,115,-35,-649,470,0:29:13
519,-150,-639,562,242,199,-66,-680,534,0:29:13
525,-169,-634,469,271,248,-79,-754,603,0:29:13
517,-162,-609,274,158,230,-91,-884,676,0:29:13
520,-180,-630,119,-82,290,-131,-1101,705,0:29:13
519,-160,-636,69,176,310,-193,-1301,613,0:29:13
517,-171,-615,-217,683,121,-194,-1171,632,0:29:13
534,-151,-616,-128,753,-53,-177,-597,777,0:29:13
538,-168,-637,-11,355,48,-191,-242,660,0:29:13
562,-163,-621,417,-564,163,-280,-726,301,0:29:13
562,-163,-621,-114,-223,123,-551,-1585,-28,0:29:13
540,-184,-625,-289,-246,105,-212,-973,261,0:29:13
546,-174,-637,-39,-373,-202,-212,-973,261,0:29:13
531,-172,-660,-392,-238,-243,-357,-158,-26,0:29:13
519,-171,-643,548,-1137,56,-95,-528,225,0:29:13
534,-180,-654,951,-1006,86,112,-885,-212,0:29:13
538,-184,-637,522,-245,185,150,-1329,-387,0:29:13
514,-201,-631,410,-487,203,111,-1445,116,0:29:13
510,-201,-628,518,-800,88,-130,-997,370,0:29:13
504,-199,-616,645,-940,46,-311,-698,235,0:29:13
487,-210,-618,781,-1073,137,-196,-760,78,0:29:13
492,-214,-594,924,-1068,230,-9,-917,35,0:29:13
471,-228,-595,967,-896,198,100,-966,-26,0:29:13
460,-237,-543,868,-529,57,148,-917,-73,0:29:13
438,-244,-541,678,-268,-23,98,-882,-17,0:29:13
438,-265,-520,620,-122,-116,58,-874,24,0:29:13
448,-268,-525,544,-93,-209,34,-852,-1,0:29:13
448,-268,-525,499,-191,-248,-14,-870,36,0:29:13
444,-261,-501,559,-153,-252,5,-906,8,0:29:13
450,-286,-505,565,-39,-275,5,-899,19,0:29:13
459,-298,-495,574,-60,-273,5,-921,19,0:29:13
451,-292,-480,576,-150,-261,-2,-921,93,0:29:13
475,-280,-481,536,-199,-301,-12,-930,108,0:29:13
478,-306,-462,485,-263,-347,-23,-939,103,0:29:13
492,-295,-457,439,-326,-353,11,-978,121,0:29:14
484,-297,-447,427,-347,-280,94,-1027,92,0:29:14
468,-324,-451,380,-254,-205,112,-1069,66,0:29:14
478,-318,-423,291,-32,-173,127,-1104,60,0:29:14
502,-319,-426,272,203,-187,202,-1079,35,0:29:14
487,-315,-430,222,177,-185,188,-1070,92,0:29:14
510,-327,-414,27,-19,-117,92,-1175,242,0:29:14
507,-325,-412,-168,-92,0,87,-1292,228,0:29:14
493,-327,-414,-448,16,31,195,-1317,85,0:29:14
520,-307,-438,-862,257,-4,205,-1310,-25,0:29:14
520,-307,-438,-1210,296,26,0,-1318,-127,0:29:14
504,-313,-441,-1363,429,78,-285,-1214,-146,0:29:14
523,-304,-450,-1429,345,158,-387,-1119,24,0:29:14
516,-283,-487,-1505,-134,210,-305,-1204,110,0:29:14
522,-261,-502,-1418,-378,168,-305,-1204,110,0:29:14
501,-255,-526,-1343,-272,65,-256,-1216,1,0:29:14
525,-246,-531,-1139,86,34,-269,-1108,-89,0:29:14
498,-246,-564,-1159,411,67,-146,-1026,-122,0:29:14
517,-235,-549,-1284,499,137,13,-1074,-9,0:29:14
513,-223,-567,-1306,695,140,-12,-1076,146,0:29:14
526,-196,-583,-1211,832,100,-120,-972,168,0:29:14
529,-184,-601,-1033,689,110,-186,-826,181,0:29:14
544,-171,-612,-908,816,194,-180,-770,190,0:29:14
534,-156,-631,-852,1041,161,-172,-793,129,0:29:14
552,-168,-630,-638,955,47,-216,-702,119,0:29:14
547,-153,-625,-162,656,-53,-271,-531,177,0:29:14
564,-135,-627,317,373,-47,-273,-454,196,0:29:14
564,-135,-627,499,242,-1,-221,-486,238,0:29:14
574,-127,-618,487,219,22,-165,-541,350,0:29:14
576,-147,-606,574,221,44,-128,-531,430,0:29:14
565,-168,-607,670,198,109,-41,-533,504,0:29:14
588,-159,-583,684,217,161,-41,-533,504,0:29:14
573,-166,-597,651,254,265,-8,-663,582,0:29:14
580,-165,-570,519,318,368,-11,-826,701,0:29:14
565,-189,-571,165,178,406,-52,-1018,843,0:29:14
573,-177,-583,135,-156,459,-132,-1308,948,0:29:14
564,-171,-573,-103,435,277,-264,-1478,785,0:29:14
553,-189,-568,-447,982,-2,-324,-1131,732,0:29:14
579,-171,-571,-240,352,-51,-386,-746,767,0:29:14
562,-172,-570,51,-459,-85,-464,-1195,351,0:29:14
562,-160,-550,-217,-296,-61,-476,-1718,23,0:29:14
580,-163,-565,79,-536,-186,-356,-1140,145,0:29:14
559,-172,-561,-320,-385,-237,-289,-439,92,0:29:14
558,-151,-580,440,-910,63,-188,-602,113,0:29:14
558,-151,-580,1054,-1267,130,22,-875,26,0:29:14
543,-157,-561,557,-584,207,122,-1234,-246,0:29:14
505,-189,-538,376,-555,230,119,-1419,-5,0:29:14
505,-189,-538,503,-854,89,-285,-635,287,0:29:14
517,-166,-547,564,-958,-59,-190,-750,125,0:29:14
495,-193,-538,624,-1012,-13,-190,-750,125,0:29:14
502,-190,-522,909,-1135,192,16,-940,46,0:29:15
478,-214,-490,998,-984,238,176,-883,-86,0:29:15
462,-208,-483,879,-616,148,203,-806,-125,0:29:15
468,-231,-462,786,-291,56,125,-854,21,0:29:15
451,-223,-465,667,-238,-62,31,-906,107,0:29:15
453,-214,-436,563,-227,-171,-13,-873,99,0:29:15
459,-220,-445,513,-228,-232,10,-862,70,0:29:15
460,-235,-403,544,-206,-259,39,-889,57,0:29:15
442,-237,-417,577,-99,-289,67,-869,25,0:29:15
478,-243,-408,612,-19,-328,57,-870,0,0:29:15
478,-243,-408,679,-56,-370,28,-902,65,0:29:15
448,-247,-411,674,-149,-407,10,-909,141,0:29:15
454,-232,-370,607,-235,-420,2,-921,204,0:29:15
480,-256,-390,539,-262,-382,55,-956,197,0:29:15
468,-243,-373,453,-282,-279,122,-989,118,0:29:15
468,-258,-348,313,-253,-200,133,-1048,133,0:29:15
483,-258,-360,301,-121,-193,139,-1080,128,0:29:15
483,-243,-349,236,-43,-183,139,-1080,128,0:29:15
484,-261,-340,8,-134,-220,46,-1184,264,0:29:15
472,-255,-327,-231,-80,-86,53,-1275,234,0:29:15
484,-253,-349,-603,254,20,228,-1334,12,0:29:15
481,-256,-373,-1073,541,49,373,-1384,-140,0:29:15
474,-256,-366,-1456,616,44,205,-1373,-244,0:29:15
493,-252,-417,-1568,688,84,-281,-1230,-247,0:29:15
468,-264,-432,-1542,317,217,-549,-1148,-94,0:29:15
468,-264,-432,-1466,-333,308,-519,-1285,109,0:29:15
457,-265,-450,-1450,-653,242,-444,-1368,133,0:29:15
457,-234,-462,-1414,-639,102,-370,-1267,48,0:29:15
436,-229,-480,-1137,-92,58,-254,-1047,-33,0:29:15
450,-217,-499,-1309,490,186,30,-1026,-148,0:29:15
448,-189,-505,-1335,829,214,160,-1147,-39,0:29:15
441,-217,-543,-1229,1249,167,13,-1005,88,0:29:15
442,-180,-544,-1036,1190,156,-131,-765,73,0:29:15
465,-181,-586,-824,1036,236,-228,-721,265,0:29:15
463,-150,-597,-685,1038,284,-228,-721,265,0:29:15
474,-147,-619,-514,956,229,-242,-704,221,0:29:15
490,-132,-615,-276,759,158,-285,-589,215,0:29:15
498,-138,-625,108,535,76,-281,-437,198,0:29:15
501,-142,-628,436,268,54,-240,-407,200,0:29:15
501,-142,-628,606,114,72,-203,-456,258,0:29:15
495,-139,-609,703,115,94,-157,-482,353,0:29:15
496,-165,-609,813,149,114,-95,-472,430,0:29:15
501,-148,-618,805,193,134,-9,-538,490,0:29:15
495,-183,-585,647,179,227,48,-737,550,0:29:15
505,-175,-579,415,160,350,20,-948,663,0:29:15
504,-205,-585,102,181,402,-41,-1131,837,0:29:15
495,-187,-565,97,23,434,-80,-1238,924,0:29:15
498,-178,-591,146,254,362,-127,-1237,798,0:29:15
499,-175,-580,-133,815,74,-88,-998,726,0:29:15
504,-192,-592,-78,924,-31,-22,-433,720,0:29:15
499,-202,-582,98,-183,236,-391,-1034,115,0:29:15
517,-205,-573,419,-874,121,-391,-1896,115,0:29:16
499,-169,-582,-483,56,149,-730,-1896,-244,0:29:16
463,-180,-574,145,-392,-62,-398,-1439,140,0:29:16
486,-190,-577,-382,-405,-350,-296,-483,156,0:29:16
486,-190,-577,47,-848,-131,-410,-367,-26,0:29:16
486,-198,-598,980,-1414,-56,-108,-633,-104,0:29:16
478,-199,-562,779,-735,64,1,-982,-325,0:29:16
459,-204,-564,541,-665,201,195,-1516,-7,0:29:16
445,-199,-553,415,-1005,11,101,-1321,397,0:29:16
444,-213,-541,499,-1162,-167,-178,-764,355,0:29:16
423,-214,-538,828,-1174,-29,-145,-608,48,0:29:16
432,-216,-523,901,-980,140,94,-829,-137,0:29:16
418,-231,-498,893,-840,204,273,-985,-155,0:29:16
397,-247,-477,842,-451,137,173,-917,-62,0:29:16
384,-231,-454,728,-252,38,74,-882,-22,0:29:16
391,-241,-451,581,-328,-108,55,-892,60,0:29:16
388,-243,-447,466,-358,-212,3,-874,133,0:29:16
391,-259,-424,469,-389,-246,71,-895,58,0:29:16
402,-274,-426,514,-273,-254,71,-895,58,0:29:16
402,-259,-435,559,-133,-291,93,-861,32,0:29:16
402,-259,-435,610,-69,-350,74,-862,48,0:29:16
387,-262,-412,651,-86,-400,44,-853,107,0:29:16
403,-283,-403,613,-102,-433,37,-859,168,0:29:16
411,-279,-355,559,-163,-434,49,-922,190,0:29:16
420,-274,-358,471,-235,-381,98,-977,166,0:29:16
432,-282,-366,343,-312,-325,110,-1020,151,0:29:16
399,-294,-357,235,-192,-289,97,-1079,146,0:29:16
418,-294,-363,139,-53,-294,76,-1101,162,0:29:16
423,-280,-334,-62,-105,-304,13,-1099,218,0:29:16
442,-288,-331,-240,-101,-172,36,-1177,173,0:29:16
435,-295,-349,-588,161,-63,147,-1295,-23,0:29:16
436,-291,-361,-1042,454,72,292,-1367,-165,0:29:16
433,-301,-373,-1400,450,172,198,-1416,-158,0:29:16
433,-301,-373,-1439,432,281,-195,-1376,-92,0:29:16
423,-258,-436,-1411,76,361,-422,-1426,129,0:29:16
423,-258,-436,-1419,-488,385,-394,-1453,124,0:29:16
433,-247,-474,-1473,-568,302,-394,-1453,124,0:29:16
412,-249,-462,-1232,-308,186,-246,-1270,-6,0:29:16
394,-222,-492,-1190,158,204,-155,-1044,-79,0:29:16
409,-222,-510,-1294,730,241,63,-1075,-77,0:29:16
21,-211,-526,-1302,1193,165,186,-1133,-38,0:29:16
409,-178,-555,-1333,1563,80,-16,-929,-17,0:29:16
421,-187,-588,-1210,1471,97,-216,-737,108,0:29:16
453,-139,-621,-882,1183,217,-272,-648,223,0:29:16
444,-144,-630,-688,1049,268,-257,-684,234,0:29:16
454,-132,-639,-506,989,287,-281,-718,191,0:29:16
489,-135,-643,-156,813,199,-254,-590,124,0:29:16
489,-135,-643,168,500,135,-226,-492,139,0:29:16
456,-120,-645,360,319,96,-175,-490,238,0:29:16
478,-129,-637,463,303,79,-148,-485,351,0:29:16
483,-124,-640,594,274,53,-144,-464,398,0:29:16
477,-132,-624,701,237,49,-89,-454,421,0:29:17
478,-138,-622,758,172,113,-59,-695,562,0:29:17
487,-154,-636,784,167,239,-97,-894,728,0:29:17
490,-168,-607,546,250,368,-97,-894,728,0:29:17
477,-145,-601,191,7,445,-33,-1169,914,0:29:17
466,-163,-597,198,-203,516,-15,-1431,901,0:29:17
441,-168,-609,-128,522,233,-57,-1415,714,0:29:17
462,-163,-606,-190,1103,-114,-76,-780,718,0:29:17
486,-154,-594,147,420,-51,-74,-142,682,0:29:17
499,-157,-597,245,-410,64,-222,-413,290,0:29:17
499,-157,-597,-121,204,-168,-745,-1404,-251,0:29:17
474,-162,-591,42,-149,72,-462,-1993,208,0:29:17
472,-142,-595,186,-571,-140,-86,-1086,236,0:29:17
498,-159,-571,-247,-378,-208,-391,-290,-160,0:29:17
466,-144,-595,550,-1127,30,-222,-521,21,0:29:17
477,-139,-573,1090,-1239,80,-6,-734,-249,0:29:17
459,-153,-559,805,-589,270,117,-1220,-267,0:29:17
454,-156,-553,506,-686,223,226,-1481,43,0:29:17
430,-172,-546,419,-1003,28,-90,-995,329,0:29:17
403,-169,-523,602,-1276,-54,-180,-703,36,0:29:17
415,-187,-504,800,-1330,42,-180,-703,36,0:29:17
400,-195,-493,808,-1201,143,89,-936,-112,0:29:17
394,-186,-472,760,-834,160,230,-1011,-157,0:29:17
382,-174,-474,687,-464,94,178,-942,-86,0:29:17
382,-174,-474,573,-346,-23,127,-905,13,0:29:17
385,-202,-466,451,-387,-126,103,-924,101,0:29:17
390,-190,-454,422,-451,-190,70,-911,101,0:29:17
360,-223,-441,517,-366,-224,43,-860,87,0:29:17
373,-204,-427,574,-315,-288,38,-835,93,0:29:17
388,-190,-408,606,-209,-351,68,-849,81,0:29:17
382,-205,-415,645,-102,-406,76,-844,43,0:29:17
369,-208,-402,711,-80,-455,43,-817,51,0:29:17
387,-216,-403,694,-165,-474,30,-841,138,0:29:17
390,-225,-385,614,-271,-432,74,-923,202,0:29:17
396,-228,-366,499,-357,-329,120,-1016,188,0:29:17
414,-238,-352,342,-329,-248,104,-1097,173,0:29:17
393,-235,-349,259,-182,-224,99,-1145,156,0:29:17
393,-235,-349,123,-134,-265,-48,-1102,260,0:29:17
409,-222,-352,-91,-252,-333,-48,-1102,260,0:29:17
414,-214,-358,-364,-183,-143,-31,-1167,189,0:29:17
417,-226,-336,-767,131,-6,133,-1277,-23,0:29:17
393,-223,-376,-1122,435,155,365,-1394,-164,0:29:17
423,-202,-381,-1341,588,307,243,-1431,-225,0:29:17
409,-201,-402,-1346,610,375,-179,-1393,-155,0:29:17
411,-211,-403,-1455,242,371,-396,-1381,-92,0:29:17
391,-180,-435,-1416,-408,312,-401,-1454,1,0:29:17
406,-171,-468,-1408,-660,257,-381,-1375,78,0:29:17
387,-186,-471,-1159,-331,173,-313,-1159,-53,0:29:17
378,-175,-465,-1127,129,260,-262,-1016,-144,0:29:17
397,-159,-483,-1136,573,400,-24,-1104,-136,0:29:17
388,-150,-498,-1237,1093,312,153,-1169,-79,0:29:17
384,-130,-505,-1297,1492,189,-23,-976,-22,0:29:18
403,-118,-543,-1183,1458,137,-191,-778,73,0:29:18
417,-91,-544,-945,1243,184,-226,-686,203,0:29:18
400,-88,-577,-742,1145,189,-236,-720,230,0:29:18
426,-82,-586,-503,1077,134,-236,-720,230,0:29:18
426,-82,-586,-188,940,88,-256,-586,148,0:29:18
424,-79,-565,87,637,69,-212,-506,98,0:29:18
439,-76,-574,269,427,84,-149,-526,181,0:29:18
447,-84,-585,375,366,90,-138,-501,315,0:29:18
456,-61,-594,489,350,73,-130,-487,412,0:29:18
469,-81,-595,667,275,77,-82,-485,433,0:29:18
448,-69,-574,756,195,101,-42,-508,434,0:29:18
454,-87,-594,730,204,176,-34,-640,504,0:29:18
457,-108,-576,575,322,282,-66,-818,636,0:29:18
466,-105,-550,235,267,321,-70,-986,796,0:29:18
471,-106,-585,200,-174,420,-26,-1204,906,0:29:18
457,-93,-570,56,210,388,-56,-1345,710,0:29:18
433,-99,-574,-373,924,114,-115,-1196,653,0:29:18
460,-106,-589,-319,367,7,-214,-814,848,0:29:18
486,-102,-589,223,-495,17,-288,-1139,421,0:29:18
486,-102,-589,-295,28,-62,-391,-1245,150,0:29:18
492,-99,-594,-186,-203,-203,-311,-550,223,0:29:18
475,-87,-568,-517,-227,-224,-311,-550,223,0:29:18
475,-87,-568,362,-899,162,-257,-545,37,0:29:18
462,-96,-601,1149,-1446,232,-56,-776,22,0:29:18
477,-84,-592,677,-662,292,126,-1218,-329,0:29:18
445,-81,-588,507,-513,282,167,-1549,-63,0:29:18
436,-94,-567,557,-900,82,-76,-1088,273,0:29:18
429,-103,-547,611,-988,-42,-303,-691,245,0:29:18
417,-120,-553,658,-1073,-23,-206,-715,58,0:29:18
420,-120,-532,852,-1131,138,3,-895,-34,0:29:18
396,-118,-529,990,-975,204,148,-941,-120,0:29:18
390,-117,-501,992,-660,160,213,-884,-179,0:29:18
390,-126,-492,852,-265,44,193,-889,-127,0:29:18
390,-126,-492,678,-118,-107,134,-923,-19,0:29:18
399,-127,-468,559,-137,-207,47,-927,53,0:29:18
384,-126,-484,526,-197,-244,7,-906,51,0:29:18
384,-121,-466,548,-160,-256,28,-895,27,0:29:18
397,-154,-472,576,-114,-266,46,-875,33,0:29:18
387,-153,-459,635,-132,-268,22,-874,75,0:29:18
394,-144,-432,655,-161,-295,22,-874,75,0:29:18
397,-159,-429,609,-217,-331,-11,-885,123,0:29:18
402,-187,-444,537,-315,-340,-12,-925,159,0:29:18
396,-169,-426,436,-420,-311,32,-965,170,0:29:18
405,-159,-441,326,-494,-240,116,-978,130,0:29:18
411,-172,-420,219,-437,-172,207,-997,71,0:29:18
390,-178,-418,171,-172,-170,248,-1007,44,0:29:18
424,-166,-400,112,-86,-149,201,-1032,67,0:29:18
414,-187,-412,-101,-140,-78,95,-1149,196,0:29:18
430,-171,-381,-352,-105,21,36,-1253,229,0:29:18
412,-177,-403,-700,93,35,123,-1326,112,0:29:19
415,-169,-409,-1114,198,25,186,-1413,-58,0:29:19
430,-144,-432,-1397,366,77,-82,-1375,-161,0:29:19
430,-144,-432,-1439,359,157,-388,-1274,-121,0:29:19
427,-159,-438,-1402,-117,237,-413,-1296,18,0:29:19
423,-163,-448,-1412,-519,170,-346,-1279,49,0:29:19
426,-133,-462,-1467,-564,-6,-293,-1177,-7,0:29:19
430,-147,-475,-1425,-303,-133,-293,-1177,-7,0:29:19
426,-103,-493,-1188,115,-92,-97,-1033,-223,0:29:19
414,-99,-495,-1205,506,-15,25,-1050,-207,0:29:19
426,-99,-516,-1217,688,27,-17,-1060,55,0:29:19
412,-87,-535,-1101,828,18,-95,-947,152,0:29:19
429,-85,-540,-928,703,29,-150,-826,175,0:29:19
418,-60,-562,-765,598,64,-204,-700,218,0:29:19
448,-69,-552,-652,643,49,-226,-731,215,0:29:19
450,-72,-567,-486,701,21,-235,-729,172,0:29:19
442,-63,-592,-133,531,-48,-285,-575,162,0:29:19
469,-46,-585,335,288,-85,-276,-471,176,0:29:19
469,-54,-573,636,194,-78,-195,-477,229,0:29:19
480,-76,-580,715,163,-23,-135,-529,332,0:29:19
480,-76,-580,631,217,19,-71,-579,448,0:29:19
472,-88,-585,576,279,88,-8,-631,539,0:29:19
487,-70,-564,562,313,186,-14,-645,564,0:29:19
466,-85,-558,565,257,308,-156,-862,632,0:29:19
466,-90,-561,564,252,429,-232,-952,706,0:29:19
474,-103,-537,381,188,420,-232,-952,706,0:29:19
487,-103,-574,172,-157,333,-197,-1067,809,0:29:19
468,-105,-550,102,-91,226,-188,-1218,736,0:29:19
478,-106,-550,-284,598,-41,-237,-1259,611,0:29:19
492,-111,-528,-326,770,-243,-283,-788,617,0:29:19
495,-85,-558,-90,80,-95,-401,-429,482,0:29:19
490,-103,-567,-147,-173,-79,-541,-980,125,0:29:19
478,-87,-561,-150,-431,43,-563,-1643,115,0:29:19
480,-105,-564,249,-837,-14,-167,-1509,222,0:29:19
480,-105,-564,-88,-399,-221,-36,-916,-49,0:29:19
471,-97,-544,234,-515,-177,-173,-702,-90,0:29:19
463,-103,-540,677,-990,-11,-43,-866,-12,0:29:19
465,-102,-517,751,-845,224,31,-1087,-127,0:29:19
454,-118,-507,602,-763,302,64,-1195,-94,0:29:19
451,-114,-507,449,-1050,128,-51,-1081,168,0:29:19
429,-115,-508,572,-1299,60,-243,-850,329,0:29:19
412,-102,-483,739,-1358,94,58,-901,-111,0:29:19
429,-129,-477,883,-1338,170,58,-901,-111,0:29:19
391,-115,-444,865,-1183,182,144,-957,-155,0:29:19
394,-123,-462,767,-926,94,170,-901,-88,0:29:19
391,-145,-430,646,-539,-50,130,-877,9,0:29:19
372,-123,-421,567,-422,-142,114,-886,26,0:29:19
381,-159,-424,506,-358,-189,122,-926,12,0:29:19
394,-135,-417,532,-312,-223,73,-907,62,0:29:19
394,-135,-417,606,-305,-223,60,-874,79,0:29:19
379,-129,-391,560,-226,-277,108,-898,115,0:29:19
397,-144,-388,548,-145,-314,82,-872,103,0:29:20
393,-160,-381,581,-146,-335,13,-861,80,0:29:20
414,-160,-366,574,-196,-350,-17,-893,120,0:29:20
406,-174,-363,527,-270,-347,9,-922,135,0:29:20
403,-157,-354,473,-309,-331,86,-965,134,0:29:20
411,-157,-364,405,-317,-285,129,-1003,131,0:29:20
405,-171,-337,296,-297,-247,88,-1048,146,0:29:20
403,-160,-334,214,-179,-238,52,-1077,155,0:29:20
420,-169,-348,154,-59,-235,101,-1078,189,0:29:20
436,-178,-333,46,-22,-193,101,-1078,189,0:29:20
424,-174,-310,-153,-67,-156,87,-1150,231,0:29:20
424,-174,-310,-427,126,-75,114,-1219,87,0:29:20
426,-196,-319,-862,353,3,211,-1337,-19,0:29:20
426,-186,-342,-1269,513,60,182,-1401,-64,0:29:20
420,-174,-345,-1411,614,156,-81,-1339,-128,0:29:20
460,-162,-354,-1474,553,238,-277,-1275,-78,0:29:20
444,-156,-366,-1457,84,276,-308,-1290,56,0:29:20
423,-159,-396,-1479,-203,181,-324,-1309,125,0:29:20
424,-144,-414,-1400,-104,111,-280,-1235,10,0:29:20
423,-132,-442,-1233,214,41,-215,-1053,-115,0:29:20
432,-111,-460,-1208,444,162,-162,-988,-112,0:29:20
427,-124,-477,-1183,669,308,24,-1098,-54,0:29:20
429,-109,-477,-1176,1006,315,63,-1068,56,0:29:20
442,-96,-486,-1195,1183,224,-101,-928,109,0:29:20
453,-88,-517,-1017,1066,232,-185,-808,161,0:29:20
441,-84,-519,-746,953,270,-175,-747,150,0:29:20
435,-69,-535,-641,999,250,-175,-747,150,0:29:20
435,-69,-535,-382,941,171,-164,-727,121,0:29:20
460,-88,-549,-30,806,104,-201,-614,124,0:29:20
468,-75,-553,271,618,65,-235,-517,136,0:29:20
477,-61,-543,394,450,46,-196,-520,209,0:29:20
486,-81,-534,424,378,53,-157,-555,329,0:29:20
486,-75,-559,577,296,45,-141,-525,421,0:29:20
483,-87,-541,668,230,27,-106,-506,460,0:29:20
504,-78,-519,644,213,77,-46,-613,478,0:29:20
490,-102,-522,584,317,165,-47,-778,568,0:29:20
498,-105,-525,361,455,217,-106,-912,704,0:29:20
507,-82,-528,-70,251,242,-89,-1096,846,0:29:20
495,-99,-526,-14,-4,382,-90,-1306,821,0:29:20
505,-78,-541,-21,412,308,-142,-1317,570,0:29:20
496,-96,-546,-165,850,63,-200,-966,648,0:29:20
502,-87,-544,-172,730,30,-255,-462,818,0:29:20
510,-67,-540,122,-265,163,-304,-557,547,0:29:20
510,-67,-540,-102,-247,111,-381,-1987,210,0:29:20
495,-99,-538,-34,-345,156,-226,-1156,189,0:29:20
495,-84,-532,-72,-378,-80,-226,-1156,189,0:29:20
495,-84,-532,-248,-322,-149,-265,-413,4,0:29:20
483,-82,-547,623,-1034,4,-82,-593,71,0:29:20
490,-96,-556,799,-1015,35,95,-877,-275,0:29:20
459,-87,-519,490,-374,184,138,-1319,-297,0:29:20
459,-84,-532,471,-525,256,72,-1408,147,0:29:20
456,-82,-519,556,-795,140,-94,-991,355,0:29:21
459,-87,-508,583,-880,38,-206,-716,234,0:29:21
444,-88,-495,695,-956,130,-121,-789,112,0:29:21
438,-109,-498,804,-931,221,68,-950,47,0:29:21
430,-109,-483,821,-732,207,143,-988,-15,0:29:21
409,-118,-468,733,-370,129,133,-913,-60,0:29:21
436,-117,-478,634,-144,28,110,-846,-7,0:29:21
412,-114,-456,584,-93,-72,60,-827,78,0:29:21
412,-114,-456,548,-78,-135,37,-849,66,0:29:21
423,-139,-439,538,-191,-147,54,-946,144,0:29:21
411,-123,-442,560,-255,-158,84,-931,114,0:29:21
417,-144,-439,595,-212,-198,84,-931,114,0:29:21
418,-144,-426,655,-144,-270,92,-874,55,0:29:21
417,-139,-417,667,-37,-343,68,-846,38,0:29:21
408,-142,-408,658,-72,-386,5,-870,91,0:29:21
424,-160,-421,619,-180,-383,-25,-921,161,0:29:21
430,-157,-397,560,-271,-326,19,-973,152,0:29:21
444,-142,-391,459,-361,-231,61,-1012,121,0:29:21
417,-162,-399,319,-355,-189,86,-1063,126,0:29:21
418,-166,-376,261,-198,-211,162,-1101,118,0:29:21
438,-160,-364,194,-126,-221,169,-1093,116,0:29:21
441,-165,-403,52,-231,-256,95,-1131,217,0:29:21
426,-174,-375,-158,-223,-187,104,-1168,251,0:29:21
436,-159,-393,-399,9,-137,215,-1234,111,0:29:21
439,-151,-372,-829,333,-96,267,-1331,-4,0:29:21
439,-151,-372,-1264,520,-53,115,-1318,-114,0:29:21
435,-160,-396,-1418,701,64,-159,-1271,-193,0:29:21
435,-160,-396,-1475,540,263,-252,-1271,13,0:29:21
450,-151,-439,-1473,-17,338,-276,-1353,100,0:29:21
435,-141,-456,-1407,-404,275,-276,-1353,100,0:29:21
435,-141,-456,-1379,-331,140,-347,-1309,55,0:29:21
448,-126,-498,-1316,6,65,-341,-1163,-1,0:29:21
414,-78,-495,-1178,270,74,-226,-1048,-21,0:29:21
439,-76,-513,-1202,505,130,-14,-1047,19,0:29:21
439,-85,-537,-1254,893,133,68,-1025,57,0:29:21
439,-70,-532,-1206,1110,154,-14,-916,83,0:29:21
468,-43,-582,-954,984,228,-78,-799,196,0:29:21
456,-31,-571,-790,1005,319,-148,-760,269,0:29:21
471,-22,-564,-708,1094,254,-194,-758,212,0:29:21
498,-21,-574,-497,1010,129,-246,-659,159,0:29:21
492,-10,-609,-114,772,56,-288,-503,140,0:29:21
492,-13,-586,235,514,32,-271,-435,159,0:29:21
486,-19,-595,460,338,44,-228,-463,231,0:29:21
498,-27,-592,499,302,63,-177,-521,336,0:29:21
499,-7,-579,568,270,82,-119,-563,423,0:29:21
499,-7,-579,667,191,125,-28,-626,490,0:29:21
526,-51,-576,641,158,162,-28,-626,490,0:29:21
510,-51,-601,546,206,215,-12,-787,542,0:29:21
526,-43,-579,477,312,275,-81,-901,641,0:29:21
526,-43,-579,208,292,287,-140,-976,758,0:29:21
511,-66,-579,34,21,372,-121,-1184,846,0:29:22
528,-48,-588,131,155,366,-98,-1330,676,0:29:22
526,-58,-571,-197,697,67,-111,-1105,597,0:29:22
526,-58,-571,-195,929,-146,-161,-555,740,0:29:22
537,-69,-586,37,361,7,-232,-274,632,0:29:22
549,-57,-562,113,-307,72,-344,-799,233,0:29:22
556,-66,-586,-299,117,30,-607,-1633,-1,0:29:22
528,-66,-591,153,-219,13,-341,-1764,298,0:29:22
565,-51,-574,-203,-217,-262,-198,-870,171,0:29:22
555,-48,-604,-49,-398,-199,-309,-421,-6,0:29:22
546,-48,-600,716,-954,-41,-18,-700,-7,0:29:22
546,-48,-600,822,-734,105,41,-929,-279,0:29:22
522,-51,-577,636,-352,329,84,-1379,188,0:29:22
526,-42,-588,492,-623,279,-176,-974,428,0:29:22
495,-60,-579,473,-926,91,-176,-974,428,0:29:22
510,-75,-558,611,-1052,23,-269,-688,283,0:29:22
525,-60,-565,704,-963,56,-132,-734,39,0:29:22
486,-73,-571,782,-915,157,21,-928,-66,0:29:22
477,-106,-558,735,-811,176,97,-987,-53,0:29:22
475,-100,-549,644,-551,123,81,-886,41,0:29:22
471,-97,-549,581,-344,56,75,-837,34,0:29:22
471,-111,-528,508,-299,-19,73,-853,29,0:29:22
459,-109,-519,488,-280,-59,88,-879,58,0:29:22
459,-112,-523,500,-304,-91,107,-889,78,0:29:22
462,-118,-504,532,-252,-119,92,-892,91,0:29:22
468,-133,-510,557,-205,-160,75,-905,77,0:29:22
475,-141,-490,616,-147,-221,55,-897,71,0:29:22
466,-130,-486,643,-103,-296,24,-876,72,0:29:22
477,-133,-468,627,-125,-342,1,-899,118,0:29:22
487,-148,-474,581,-163,-343,15,-950,157,0:29:22
484,-159,-478,525,-210,-286,101,-1016,122,0:29:22
484,-159,-478,445,-274,-189,101,-1016,122,0:29:22
481,-165,-471,317,-301,-147,88,-1063,149,0:29:22
471,-175,-460,256,-225,-175,91,-1089,157,0:29:22
483,-154,-441,226,-112,-177,98,-1076,128,0:29:22
486,-162,-436,97,-149,-221,58,-1089,174,0:29:22
486,-162,-442,-75,-105,-177,107,-1164,199,0:29:22
483,-153,-435,-297,192,-25,266,-1248,78,0:29:22
475,-151,-444,-640,491,-39,323,-1266,-30,0:29:22
495,-166,-439,-1073,636,-80,180,-1293,-131,0:29:22
501,-162,-451,-1390,752,-86,-141,-1281,-214,0:29:22
499,-168,-475,-1434,743,28,-385,-1160,-181,0:29:22
489,-168,-492,-1502,319,193,-385,-1146,-66,0:29:22
480,-132,-490,-1418,-273,215,-353,-1258,82,0:29:22
508,-133,-517,-1363,-626,112,-356,-1289,127,0:29:22
474,-102,-540,-1362,-520,99,-360,-1195,55,0:29:22
465,-97,-553,-1145,77,53,-267,-1037,-83,0:29:22
465,-97,-553,-1152,523,159,98,-1037,22,0:29:22
453,-96,-565,-1204,720,158,20,-1001,203,0:29:22
468,-88,-574,-1238,986,134,20,-1001,203,0:29:22
480,-67,-574,-1031,849,134,-94,-881,235,0:29:22
492,-57,-589,-802,772,189,-159,-781,255,0:29:23
502,-51,-603,-697,863,211,-185,-795,208,0:29:23
508,-58,-622,-606,896,115,-210,-776,172,0:29:23
520,-42,-613,-372,729,-4,-282,-634,221,0:29:23
523,-34,-624,-6,460,-76,-312,-503,253,0:29:23
514,-34,-634,371,230,-74,-289,-456,254,0:29:23
505,-40,-616,536,124,-32,-239,-486,277,0:29:23
534,-40,-621,538,136,6,-169,-581,351,0:29:23
535,-55,-622,623,135,30,-109,-623,448,0:29:23
513,-51,-621,707,146,58,-73,-626,494,0:29:23
537,-67,-603,655,203,113,-46,-732,531,0:29:23
534,-64,-606,552,266,227,-37,-891,621,0:29:23
534,-64,-606,404,278,328,-62,-965,715,0:29:23
538,-84,-592,172,114,321,-87,-1000,776,0:29:23
523,-81,-591,72,-158,314,-198,-1225,608,0:29:23
525,-93,-592,37,32,171,-257,-1081,537,0:29:23
520,-99,-601,-131,567,-90,-257,-1081,537,0:29:23
501,-111,-565,4,754,-247,-277,-632,613,0:29:23
534,-82,-592,225,351,-148,-288,-372,533,0:29:23
537,-103,-589,311,-160,12,-355,-716,308,0:29:23
499,-102,-550,639,-788,24,140,-806,-16,0:29:23
498,-100,-577,716,-346,185,206,-1119,-225,0:29:23
495,-105,-552,512,-209,313,106,-1279,-117,0:29:23
496,-114,-559,430,-578,261,-88,-1139,306,0:29:23
493,-96,-550,427,-826,119,-284,-789,419,0:29:23
477,-114,-510,524,-987,121,-272,-701,210,0:29:23
468,-100,-541,644,-1125,224,-112,-918,56,0:29:23
460,-129,-517,720,-1037,280,83,-935,-35,0:29:23
433,-130,-517,693,-714,226,83,-935,-35,0:29:23
433,-130,-517,561,-441,100,80,-832,-22,0:29:23
447,-123,-486,477,-322,4,63,-833,20,0:29:23
432,-147,-484,458,-267,-25,70,-898,55,0:29:23
432,-147,-484,441,-257,-60,72,-942,63,0:29:23
432,-147,-466,434,-225,-88,39,-931,88,0:29:23
468,-132,-457,438,-188,-122,47,-915,98,0:29:23
429,-165,-438,461,-115,-175,79,-903,78,0:29:23
435,-175,-442,494,-65,-237,71,-884,81,0:29:23
426,-160,-442,569,-65,-284,40,-871,78,0:29:23
429,-162,-445,585,-102,-329,2,-884,107,0:29:23
448,-154,-420,574,-153,-336,-13,-935,156,0:29:23
459,-178,-417,530,-225,-312,34,-960,149,0:29:23
474,-172,-417,462,-318,-250,93,-975,103,0:29:23
474,-172,-417,294,-325,-198,69,-1032,104,0:29:23
441,-172,-406,122,-163,-191,52,-1100,144,0:29:23
448,-192,-393,53,-21,-209,-10,-1052,190,0:29:23
453,-189,-414,-40,-80,-174,36,-1105,276,0:29:23
447,-177,-411,-198,-156,-117,36,-1105,276,0:29:24
456,-195,-373,-422,100,-67,209,-1164,142,0:29:24
454,-201,-403,-765,519,-4,318,-1233,-31,0:29:24
454,-201,-390,-1205,723,13,260,-1311,-105,0:29:24
471,-178,-408,-1498,777,2,-95,-1345,-115,0:29:24
459,-183,-460,-1449,592,74,-427,-1283,-71,0:29:24
466,-190,-457,-1463,24,187,-415,-1257,-1,0:29:24
454,-157,-486,-1452,-503,98,-355,-1277,84,0:29:24
438,-145,-508,-1360,-482,43,-326,-1240,107,0:29:24
447,-151,-520,-1179,-119,36,-244,-1132,37,0:29:24
447,-151,-520,-1052,307,107,-79,-1055,-58,0:29:24
444,-136,-510,-1105,568,140,61,-1084,-26,0:29:24
447,-138,-541,-1191,760,116,9,-1084,105,0:29:24
448,-130,-552,-1198,853,95,-128,-986,146,0:29:24
469,-129,-559,-973,751,108,-188,-830,183,0:29:24
469,-111,-595,-751,765,144,-223,-715,226,0:29:24
487,-114,-607,-617,861,144,-277,-772,162,0:29:24
475,-109,-618,-474,799,65,-277,-772,162,0:29:24
489,-96,-639,-184,545,-28,-302,-644,169,0:29:24
501,-85,-639,193,320,-88,-293,-523,213,0:29:24
499,-103,-634,492,116,-63,-245,-490,254,0:29:24
513,-94,-636,557,39,-35,-194,-551,318,0:29:24
517,-103,-612,577,24,11,-130,-636,390,0:29:24
505,-130,-619,698,31,60,-76,-617,416,0:29:24
504,-132,-598,771,49,123,-51,-604,433,0:29:24
501,-132,-595,710,121,205,-41,-740,486,0:29:24
501,-132,-595,585,126,290,-53,-916,577,0:29:24
501,-132,-598,355,6,350,-76,-1025,685,0:29:24
502,-144,-577,80,-186,366,-101,-1103,761,0:29:24
528,-156,-574,2,-62,361,-111,-1176,661,0:29:24
510,-148,-582,-88,369,218,-145,-1133,499,0:29:24
492,-133,-577,-70,645,-2,-186,-843,521,0:29:24
499,-157,-571,78,354,-99,-197,-487,500,0:29:24
501,-163,-594,120,37,-22,-309,-1061,162,0:29:24
522,-163,-591,5,-2,-29,-372,-1729,281,0:29:24
514,-151,-579,-242,32,32,-372,-1729,281,0:29:24
493,-153,-591,72,-156,78,-225,-1680,323,0:29:24
510,-162,-568,138,-137,-32,-200,-947,169,0:29:24
492,-160,-586,49,-130,-58,-203,-548,144,0:29:24
492,-160,-586,244,-165,-14,35,-684,75,0:29:24
507,-171,-588,380,9,-36,155,-861,-118,0:29:24
510,-172,-571,317,270,18,103,-1020,-151,0:29:24
511,-183,-571,319,162,166,7,-1179,-13,0:29:24
486,-187,-583,351,-149,196,-97,-1128,206,0:29:24
496,-196,-583,373,-331,171,-197,-928,297,0:29:24
504,-172,-562,372,-359,158,-179,-840,190,0:29:24
505,-187,-550,394,-302,136,-76,-895,61,0:29:24
481,-189,-558,371,-224,88,-2,-968,8,0:29:24
486,-205,-543,326,-153,30,0,-961,47,0:29:24
493,-202,-532,319,-107,17,-9,-933,112,0:29:24
493,-213,-540,324,-93,30,0,-940,125,0:29:25
478,-222,-513,312,-59,21,26,-958,61,0:29:25
481,-202,-535,296,-3,-6,26,-958,61,0:29:25
489,-223,-523,282,30,-18,40,-965,96,0:29:25
462,-213,-505,264,29,-23,35,-984,148,0:29:25
474,-222,-517,239,4,-46,10,-994,174,0:29:25
477,-234,-514,207,-53,-62,-25,-980,182,0:29:25
477,-234,-514,175,-147,-90,-49,-963,188,0:29:25
480,-223,-507,173,-223,-94,-51,-964,208,0:29:25
478,-213,-511,165,-270,-103,-40,-960,183,0:29:25
474,-238,-468,146,-269,-113,-17,-969,133,0:29:25
483,-225,-502,117,-246,-113,13,-987,121,0:29:25
490,-249,-493,77,-167,-119,42,-1001,103,0:29:25
483,-244,-492,39,-46,-137,55,-1005,78,0:29:25
481,-240,-499,32,28,-154,55,-1000,70,0:29:25
489,-244,-477,53,57,-154,45,-1011,85,0:29:25
475,-231,-471,79,23,-130,11,-1013,101,0:29:25
468,-225,-472,44,-81,-107,-33,-985,101,0:29:25
477,-255,-498,-37,-157,-101,-79,-970,88,0:29:25
487,-244,-472,-112,-150,-104,-151,-992,73,0:29:25
481,-247,-507,-240,-46,-132,-151,-992,73,0:29:25
477,-235,-505,-389,64,-155,-149,-1030,55,0:29:25
480,-223,-474,-532,152,-184,-143,-1059,57,0:29:25
499,-231,-517,-561,180,-196,-142,-1072,89,0:29:25
499,-231,-517,-643,240,-248,-135,-1060,69,0:29:25
502,-235,-528,-596,294,-274,-166,-1039,99,0:29:25
504,-234,-531,-504,270,-271,-228,-1009,187,0:29:25
499,-220,-535,-391,234,-252,-256,-960,217,0:29:25
499,-220,-535,-219,112,-211,-236,-905,214,0:29:25
513,-219,-553,-44,2,-161,-205,-863,179,0:29:25
514,-204,-555,98,-14,-113,-204,-868,182,0:29:25
517,-225,-546,196,-38,-94,-224,-886,192,0:29:25
526,-231,-547,296,-100,-84,-247,-871,186,0:29:25
526,-229,-535,377,-137,-64,-251,-859,179,0:29:25
526,-213,-529,422,-148,-40,-242,-851,171,0:29:25
517,-246,-540,394,-123,-23,-236,-850,173,0:29:25
522,-214,-513,343,-112,2,-197,-900,220,0:29:25
510,-235,-529,322,-163,37,-197,-900,220,0:29:25
510,-235,-529,296,-172,56,-181,-905,232,0:29:25
528,-232,-516,273,-107,56,-187,-963,200,0:29:25
529,-241,-505,308,-51,63,-166,-1017,145,0:29:25
499,-247,-507,357,-174,39,-149,-1007,161,0:29:25
514,-250,-499,342,-154,-11,-183,-988,144,0:29:25
516,-246,-507,336,23,-18,-210,-961,58,0:29:25
495,-249,-489,308,-53,7,-213,-959,96,0:29:25
495,-259,-474,293,-149,29,-202,-983,170,0:29:25
502,-267,-483,273,-83,29,-194,-969,122,0:29:25
502,-243,-490,224,-98,36,-175,-938,40,0:29:25
504,-255,-475,186,-71,42,-129,-947,48,0:29:25
495,-256,-475,154,-7,38,-123,-977,51,0:29:25
505,-271,-462,135,-4,37,-141,-1000,43,0:29:25
505,-271,-462,119,-62,41,-147,-993,81,0:29:26
493,-271,-468,122,-116,49,-160,-980,97,0:29:26
511,-267,-456,117,-144,53,-162,-983,88,0:29:26
504,-259,-451,111,-141,56,-136,-981,51,0:29:26
487,-267,-454,107,-124,51,-133,-980,43,0:29:26
498,-283,-447,90,-100,43,-133,-980,43,0:29:26
493,-247,-439,72,-100,39,-120,-978,48,0:29:26
505,-267,-454,67,-90,39,-111,-981,49,0:29:26
489,-283,-448,53,-80,34,-113,-988,46,0:29:26
501,-258,-444,46,-86,30,-117,-991,52,0:29:26
493,-276,-459,31,-67,25,-113,-985,48,0:29:26
498,-255,-450,26,-54,25,-102,-981,38,0:29:26
487,-247,-451,28,-39,24,-99,-977,32,0:29:26
489,-238,-454,31,-39,25,-100,-973,33,0:29:26
484,-253,-442,33,-37,25,-98,-978,40,0:29:26
486,-273,-436,32,-22,22,-91,-984,40,0:29:26
486,-273,-436,26,-5,17,-82,-984,32,0:29:26
477,-270,-447,20,11,11,-80,-985,29,0:29:26
480,-276,-436,16,14,11,-89,-983,31,0:29:26
474,-265,-466,11,14,14,-93,-981,31,0:29:26
483,-250,-441,10,15,11,-89,-987,21,0:29:26
495,-268,-460,7,30,2,-93,-981,18,0:29:26
475,-256,-441,0,39,-2,-93,-981,18,0:29:26
489,-268,-438,1,32,-3,-96,-980,24,0:29:26
498,-276,-451,2,28,-2,-97,-982,23,0:29:26
481,-250,-453,3,25,0,-96,-984,21,0:29:26
460,-265,-453,2,21,-1,-100,-982,26,0:29:26
468,-270,-448,1,7,-4,-108,-979,27,0:29:26
499,-252,-454,7,2,-6,-109,-982,28,0:29:26
493,-264,-432,6,7,-9,-106,-984,24,0:29:26
492,-267,-447,0,8,-10,-103,-979,23,0:29:26
484,-259,-436,-2,13,-9,-95,-980,30,0:29:26
502,-273,-438,-2,21,-7,-91,-984,34,0:29:26
502,-273,-438,-5,25,-9,-93,-981,33,0:29:26
478,-270,-447,-2,24,-12,-98,-978,33,0:29:26
478,-253,-451,1,29,-17,-106,-979,33,0:29:26
477,-250,-445,5,18,-18,-114,-978,33,0:29:26
478,-255,-447,9,4,-17,-109,-978,37,0:29:26
493,-262,-427,3,9,-18,-103,-979,36,0:29:26
493,-255,-441,0,4,-17,-106,-982,40,0:29:26
484,-265,-448,0,4,-18,-106,-982,40,0:29:26
486,-261,-448,-3,4,-23,-107,-980,36,0:29:26
477,-264,-436,2,-12,-18,-106,-979,40,0:29:26
495,-253,-442,5,-21,-15,-106,-977,48,0:29:26
496,-258,-451,7,-21,-14,-108,-975,48,0:29:26
471,-250,-442,11,-37,-7,-109,-977,48,0:29:26
489,-262,-444,11,-43,-4,-105,-975,48,0:29:26
489,-262,-444,7,-38,-7,-105,-973,40,0:29:26
480,-265,-442,4,-41,-5,-105,-974,37,0:29:26
480,-265,-442,-4,-44,-4,-101,-978,40,0:29:26
487,-277,-439,-9,-42,-2,-100,-979,36,0:29:26
483,-255,-439,-17,-35,-2,-100,-984,30,0:29:27
483,-262,-430,-23,-32,-5,-103,-987,40,0:29:27
486,-274,-442,-28,-28,-13,-108,-980,50,0:29:27
471,-276,-439,-25,-21,-18,-102,-973,44,0:29:27
472,-270,-459,-18,-11,-17,-96,-970,33,0:29:27
478,-261,-451,-9,-4,-18,-92,-970,23,0:29:27
490,-267,-433,4,2,-16,-92,-970,23,0:29:27
499,-262,-454,8,4,-15,-99,-969,25,0:29:27
483,-270,-472,5,-4,-11,-103,-970,37,0:29:27
483,-270,-472,1,0,-8,-99,-976,39,0:29:27
475,-267,-430,-2,-2,-3,-98,-985,37,0:29:27
481,-271,-457,-5,-4,-1,-100,-992,36,0:29:27
489,-259,-438,-7,-11,-3,-101,-994,37,0:29:27
478,-277,-441,-7,-4,-9,-101,-988,37,0:29:27
492,-280,-448,-7,4,-13,-102,-980,34,0:29:27
469,-270,-442,-3,7,-14,-99,-973,33,0:29:27
486,-261,-445,0,12,-10,-96,-969,26,0:29:27
495,-259,-469,4,18,-11,-98,-971,27,0:29:27
477,-262,-448,7,20,-14,-101,-973,33,0:29:27
487,-265,-448,9,22,-18,-104,-976,32,0:29:27
480,-258,-462,12,24,-18,-106,-981,35,0:29:27
495,-255,-441,21,28,-17,-104,-983,37,0:29:27
495,-255,-441,22,29,-15,-97,-980,36,0:29:27
508,-255,-441,15,33,-14,-79,-976,25,0:29:27
490,-280,-451,9,48,-13,-79,-976,25,0:29:27
483,-265,-445,7,73,-14,-78,-981,24,0:29:27
495,-271,-459,2,76,-16,-89,-985,29,0:29:27
490,-270,-465,-2,65,-18,-99,-983,37,0:29:27
489,-244,-450,-6,52,-21,-106,-981,45,0:29:27
493,-264,-451,-9,48,-24,-111,-979,44,0:29:27
490,-270,-447,-11,43,-25,-112,-981,38,0:29:27
496,-270,-444,-16,40,-28,-112,-983,41,0:29:27
501,-262,-432,-16,39,-28,-109,-978,46,0:29:27
490,-265,-439,-12,48,-28,-106,-976,43,0:29:27
486,-256,-435,-8,43,-28,-109,-975,42,0:29:27
486,-256,-435,-5,27,-26,-110,-976,48,0:29:27
502,-252,-450,-3,16,-28,-110,-980,51,0:29:27
490,-250,-444,-2,14,-26,-114,-978,52,0:29:27
490,-255,-444,-2,7,-26,-117,-975,49,0:29:27
504,-264,-457,-4,-2,-25,-117,-974,46,0:29:27
495,-270,-457,-1,-2,-25,-111,-979,44,0:29:27
490,-276,-441,0,2,-25,-109,-981,46,0:29:27
498,-268,-450,-1,-2,-23,-109,-981,46,0:29:27
481,-267,-460,-3,-7,-22,-106,-980,48,0:29:27
486,-244,-444,-3,-4,-20,-105,-978,45,0:29:27
486,-255,-450,-2,0,-18,-104,-978,45,0:29:27
487,-255,-459,-4,-4,-17,-107,-976,48,0:29:27
495,-276,-448,0,-16,-15,-109,-977,50,0:29:27
490,-259,-445,3,-21,-14,-111,-979,49,0:29:27
490,-259,-445,6,-19,-13,-113,-977,46,0:29:27
495,-247,-435,3,-14,-14,-112,-977,44,0:29:27
493,-265,-447,1,-14,-12,-110,-977,42,0:29:28
498,-264,-435,0,-16,-8,-109,-978,48,0:29:28
496,-264,-451,1,-23,-7,-111,-978,50,0:29:28
499,-261,-462,2,-16,-11,-115,-979,42,0:29:28
478,-255,-441,4,-16,-14,-114,-978,41,0:29:28
504,-244,-441,7,-16,-14,-115,-975,44,0:29:28
487,-261,-454,11,-25,-12,-117,-977,43,0:29:28
504,-265,-456,17,-30,-9,-116,-979,33,0:29:28
483,-265,-427,17,-32,-8,-116,-979,33,0:29:28
493,-262,-454,12,-29,-11,-115,-974,33,0:29:28
484,-253,-459,10,-29,-14,-117,-973,37,0:29:28
504,-238,-454,9,-24,-14,-114,-976,38,0:29:28
493,-255,-441,6,-16,-14,-110,-976,35,0:29:28
484,-268,-456,4,-9,-12,-105,-975,33,0:29:28
484,-268,-456,4,-6,-9,-104,-976,38,0:29:28
502,-261,-454,4,-9,-11,-105,-976,44,0:29:28
487,-256,-442,3,-3,-12,-105,-978,45,0:29:28
490,-252,-475,-2,0,-12,-104,-980,43,0:29:28
498,-259,-454,-5,4,-11,-102,-978,40,0:29:28
481,-277,-454,-7,9,-11,-106,-976,37,0:29:28
495,-262,-462,-5,12,-11,-108,-975,38,0:29:28
484,-250,-445,-3,8,-11,-111,-978,44,0:29:28
483,-267,-451,-2,4,-11,-115,-978,42,0:29:28
504,-268,-442,-2,4,-12,-115,-978,37,0:29:28
493,-270,-456,-4,1,-11,-117,-972,38,0:29:28
484,-267,-450,-4,-1,-12,-118,-974,37,0:29:28
480,-261,-451,-7,-2,-13,-118,-974,37,0:29:28
517,-267,-463,-9,-5,-11,-114,-978,34,0:29:28
477,-262,-442,-11,-14,-10,-114,-980,37,0:29:28
477,-262,-442,-12,-18,-12,-112,-978,38,0:29:28
487,-271,-450,-10,-14,-14,-113,-976,37,0:29:28
486,-256,-435,-11,-11,-14,-112,-978,38,0:29:28
486,-256,-435,-7,-11,-13,-112,-979,40,0:29:28
501,-255,-442,-5,-14,-11,-113,-975,40,0:29:28
477,-270,-465,-4,-14,-10,-113,-978,40,0:29:28
501,-258,-460,-4,-13,-13,-111,-980,42,0:29:28
490,-255,-442,-5,-7,-14,-108,-979,45,0:29:28
481,-280,-450,-4,-5,-14,-105,-978,47,0:29:28
492,-265,-453,-6,0,-16,-105,-975,44,0:29:28
499,-255,-426,-5,-1,-15,-109,-976,43,0:29:28
487,-264,-454,-1,-5,-15,-111,-978,47,0:29:28
502,-267,-454,0,-8,-14,-114,-976,48,0:29:28
490,-276,-429,0,-12,-15,-116,-974,50,0:29:28
502,-271,-450,0,-12,-16,-116,-974,50,0:29:28
496,-250,-453,-2,-14,-15,-111,-976,51,0:29:28
496,-259,-444,0,-16,-15,-107,-978,53,0:29:28
486,-276,-454,-1,-14,-16,-111,-975,50,0:29:28
486,-276,-454,-2,-11,-16,-113,-975,50,0:29:28
493,-246,-448,-2,-14,-15,-112,-980,55,0:29:28
495,-277,-457,-2,-14,-14,-111,-978,54,0:29:28
484,-250,-462,-3,-16,-13,-111,-977,51,0:29:29
493,-261,-454,-3,-16,-15,-111,-976,50,0:29:29
499,-246,-442,-3,-16,-17,-112,-974,51,0:29:29
492,-271,-457,-2,-9,-18,-110,-973,50,0:29:29
480,-276,-438,-1,-3,-17,-106,-975,47,0:29:29
493,-252,-448,-2,-2,-16,-106,-977,48,0:29:29
501,-253,-447,-4,-4,-15,-110,-975,48,0:29:29
501,-264,-432,-7,-3,-15,-113,-977,48,0:29:29
490,-271,-448,-10,-7,-16,-114,-980,49,0:29:29
499,-252,-450,-14,-5,-18,-115,-978,47,0:29:29
499,-252,-450,-16,-4,-20,-120,-976,47,0:29:29
487,-262,-456,-16,-3,-20,-120,-976,47,0:29:29
484,-268,-450,-13,-9,-19,-116,-977,49,0:29:29
504,-258,-450,-7,-13,-18,-113,-975,52,0:29:29
489,-279,-453,-3,-12,-18,-116,-975,52,0:29:29
478,-262,-447,0,-12,-17,-115,-977,53,0:29:29
498,-265,-468,1,-14,-15,-114,-979,55,0:29:29
489,-267,-463,2,-16,-14,-111,-981,57,0:29:29
508,-265,-456,-4,-17,-14,-111,-980,60,0:29:29
495,-267,-450,-7,-16,-16,-112,-973,63,0:29:29
496,-256,-463,-10,-9,-18,-109,-973,66,0:29:29
478,-258,-451,-8,-3,-16,-106,-977,65,0:29:29
492,-265,-439,-3,-1,-14,-105,-977,61,0:29:29
474,-265,-435,-1,0,-13,-105,-977,63,0:29:29
492,-268,-453,-3,0,-13,-105,-977,66,0:29:29
492,-267,-465,-5,0,-11,-104,-974,62,0:29:29
504,-271,-453,-4,0,-11,-104,-973,60,0:29:29
481,-253,-453,0,0,-10,-110,-974,60,0:29:29
474,-265,-438,-1,3,-10,-110,-974,60,0:29:29
474,-265,-438,0,0,-12,-113,-980,63,0:29:29
504,-262,-462,-2,-4,-12,-113,-979,63,0:29:29
502,-259,-448,-1,-5,-11,-114,-974,56,0:29:29
471,-255,-450,0,-2,-11,-116,-973,53,0:29:29
498,-264,-444,0,-6,-9,-116,-976,60,0:29:29
489,-271,-445,0,-6,-9,-111,-977,62,0:29:29
483,-258,-450,-3,0,-9,-109,-977,56,0:29:29
496,-256,-463,-4,0,-9,-110,-976,57,0:29:29
493,-261,-450,-3,2,-9,-109,-978,59,0:29:29
502,-265,-457,-4,5,-9,-111,-978,55,0:29:29
493,-265,-459,-1,3,-9,-112,-975,57,0:29:29
504,-261,-462,1,6,-11,-113,-973,57,0:29:29
475,-262,-466,0,5,-12,-115,-973,54,0:29:29
501,-264,-448,0,1,-11,-116,-975,56,0:29:29
501,-262,-456,0,1,-11,-116,-975,55,0:29:29
475,-256,-448,0,2,-11,-115,-976,52,0:29:29
475,-256,-448,2,3,-12,-116,-976,55,0:29:29
516,-255,-459,2,6,-13,-116,-976,55,0:29:29
516,-255,-459,3,2,-12,-117,-975,58,0:29:29
493,-256,-462,2,-1,-13,-116,-976,60,0:29:29
495,-268,-451,2,-2,-13,-120,-974,57,0:29:29
507,-253,-477,0,-2,-14,-122,-976,56,0:29:29
489,-258,-444,1,-2,-14,-119,-977,58,0:29:30
513,-250,-447,3,-2,-12,-117,-975,57,0:29:30
480,-261,-462,4,-4,-12,-117,-978,57,0:29:30
492,-253,-450,3,-6,-13,-116,-980,57,0:29:30
496,-253,-460,3,-8,-14,-114,-977,60,0:29:30
507,-259,-451,3,-10,-13,-112,-975,62,0:29:30
483,-274,-448,3,-9,-11,-112,-977,60,0:29:30
496,-264,-453,3,-8,-11,-108,-978,60,0:29:30
484,-267,-445,2,-7,-11,-107,-975,61,0:29:30
484,-267,-445,2,-7,-12,-108,-974,61,0:29:30
501,-252,-469,1,-4,-12,-107,-976,62,0:29:30
505,-259,-435,0,-2,-13,-112,-970,63,0:29:30
487,-261,-445,-1,0,-12,-113,-974,63,0:29:30
481,-268,-454,-2,3,-11,-113,-974,63,0:29:30
498,-259,-460,-2,4,-11,-112,-976,60,0:29:30
483,-262,-444,0,4,-12,-113,-976,60,0:29:30
498,-252,-453,-1,4,-13,-116,-976,60,0:29:30
502,-255,-456,-1,4,-14,-119,-974,59,0:29:30
481,-246,-447,0,4,-13,-118,-974,58,0:29:30
507,-256,-445,3,7,-9,-117,-975,59,0:29:30
489,-276,-453,6,7,-6,-119,-974,62,0:29:30
492,-268,-435,7,0,-9,-117,-974,63,0:29:30
496,-271,-469,2,0,-11,-114,-974,60,0:29:30
496,-271,-469,2,0,-11,-112,-976,59,0:29:30
502,-259,-463,2,-2,-11,-110,-977,60,0:29:30
474,-243,-447,0,2,-11,-109,-978,60,0:29:30
492,-274,-475,0,2,-13,-111,-977,59,0:29:30
489,-258,-444,0,4,-15,-111,-974,59,0:29:30
507,-270,-454,2,4,-16,-111,-976,61,0:29:30
474,-267,-447,4,0,-15,-116,-976,62,0:29:30
499,-277,-450,7,-2,-13,-116,-976,62,0:29:30
487,-259,-457,8,-7,-11,-116,-975,60,0:29:30
489,-255,-444,7,-3,-11,-116,-973,60,0:29:30
487,-271,-453,4,-3,-11,-115,-975,59,0:29:30
480,-243,-430,3,-4,-11,-112,-975,61,0:29:30
499,-271,-460,2,-3,-11,-114,-976,64,0:29:30
484,-261,-469,2,-4,-11,-113,-976,65,0:29:30
481,-255,-459,3,0,-11,-111,-977,61,0:29:30
481,-255,-459,4,1,-10,-112,-977,58,0:29:30
499,-252,-451,6,0,-10,-111,-976,59,0:29:30
478,-267,-469,5,0,-10,-113,-975,58,0:29:30
487,-270,-457,4,2,-11,-115,-976,56,0:29:30
484,-277,-447,2,4,-13,-114,-977,57,0:29:30
481,-279,-472,2,4,-13,-111,-974,58,0:29:30
496,-277,-477,3,4,-13,-111,-976,58,0:29:30
484,-271,-450,4,0,-11,-112,-977,59,0:29:30
501,-261,-454,5,0,-11,-113,-974,58,0:29:30
486,-250,-444,4,1,-13,-114,-975,56,0:29:30
501,-277,-444,2,0,-11,-114,-975,56,0:29:30
507,-265,-460,4,0,-11,-114,-977,55,0:29:30
471,-265,-456,3,-4,-12,-115,-978,55,0:29:30
501,-268,-454,2,-6,-11,-116,-975,58,0:29:31
501,-270,-465,2,-3,-12,-113,-975,56,0:29:31
487,-265,-444,2,-6,-11,-113,-976,56,0:29:31
498,-258,-456,3,-10,-11,-114,-977,57,0:29:31
