,Gyroscope X (deg/s),Gyroscope Y (deg/s),Gyroscope Z (deg/s),Accelerometer X (g),Accelerometer Y (g),Accelerometer Z (g),Magnetometer X (G),Magnetometer Y (G),Magnetometer Z (G)
1,-0.8,-0.07,0.0,0.29,-0.03,0.44,6.31,-4.75,-6.81
2,-0.79,-0.18,-0.08,0.39,-0.21,0.61,6.24,-4.83,-6.67
3,-0.57,0.18,0.09,0.33,-0.16,0.39,6.37,-4.77,-6.73
4,-0.11,-0.04,0.24,0.4,-0.34,0.64,6.43,-4.74,-6.76
5,0.28,0.34,0.74,0.21,-0.34,0.47,6.48,-4.69,-6.75
6,0.42,0.04,0.46,0.34,-0.2,0.56,6.37,-4.72,-6.73
7,0.44,0.25,0.09,0.3,-0.2,0.54,6.37,-4.71,-6.72
8,0.45,0.32,0.01,0.27,-0.23,0.52,6.34,-4.72,-6.66
9,0.2,-0.03,0.02,0.3,-0.03,0.39,6.28,-4.68,-6.78
10,-0.42,-0.25,0.0,0.56,-0.1,0.73,6.31,-4.74,-6.7
11,-0.74,0.23,0.01,0.49,0.13,0.47,6.27,-4.71,-6.73
12,-0.82,-0.18,-0.23,0.7,0.05,0.76,6.31,-4.63,-6.76
13,-0.78,0.97,-0.16,0.7,0.22,0.95,6.39,-4.68,-6.69
14,-0.35,0.56,-0.36,0.4,0.26,0.6,6.39,-4.66,-6.78
15,-0.68,-0.88,-0.98,0.85,0.35,0.61,6.43,-4.63,-6.75
16,-0.59,-0.78,-1.28,1.04,0.09,0.53,6.37,-4.57,-6.66
17,-0.39,-0.77,-0.96,0.99,0.0,0.35,6.48,-4.69,-6.73
18,0.06,-0.43,-0.73,0.86,0.13,0.32,6.48,-4.69,-6.7
19,0.21,-0.49,-0.54,0.95,0.22,0.42,6.57,-4.68,-6.76
20,0.13,-0.36,-0.51,1.15,0.38,0.11,6.57,-4.71,-6.73
21,-0.19,-0.47,-0.47,1.49,0.45,0.23,6.54,-4.75,-6.75
22,-0.56,0.39,-0.13,1.43,0.39,0.3,6.55,-4.71,-6.72
23,-0.88,0.06,-0.62,1.32,0.61,0.87,6.48,-4.72,-6.75
24,-0.09,-0.96,-0.81,0.89,0.23,1.05,6.49,-4.65,-6.75
25,0.49,-2.21,-1.14,0.83,-0.02,3.14,6.57,-4.78,-6.7
26,1.01,-1.56,-0.4,-0.51,-0.33,3.21,6.6,-4.86,-6.79
27,1.31,-3.29,-0.67,-0.19,-0.49,1.79,6.55,-4.89,-6.82
28,0.51,-3.54,-0.63,0.69,-0.5,0.69,6.51,-4.96,-6.93
29,0.58,-1.61,-0.73,0.33,-0.07,0.25,6.37,-4.93,-7.03
30,0.16,-0.58,0.56,0.36,-0.64,-0.4,6.21,-4.86,-6.96
31,-0.35,-0.86,0.09,0.47,-0.01,-0.6,6.18,-4.87,-7.12
32,-0.72,-0.4,-0.07,0.92,-0.2,-0.69,6.18,-4.9,-7.09
33,-0.56,0.98,0.81,1.25,-0.29,-0.75,6.27,-4.87,-7.06
34,-0.49,0.38,0.67,1.11,-0.4,-0.94,6.22,-4.83,-7.14
35,-0.39,0.99,0.9,1.8,-0.5,0.11,6.27,-4.83,-7.05
36,-0.18,1.89,1.5,1.46,-0.09,-0.17,6.16,-4.66,-7.09
37,-0.34,1.24,0.97,1.64,-0.19,0.35,6.01,-4.6,-6.99
38,-0.08,1.47,1.42,1.5,-0.56,1.22,6.03,-4.57,-6.96
39,-0.53,-1.19,-0.04,1.11,0.18,1.83,6.07,-4.59,-6.97
40,-0.74,-1.03,0.23,1.29,-0.57,4.37,6.03,-4.71,-7.05
41,-0.63,0.93,1.9,0.11,0.45,2.42,5.98,-4.66,-6.94
42,-1.01,-1.37,1.51,-0.41,0.49,1.38,5.91,-4.45,-7.08
43,-0.95,-2.66,3.48,-0.26,-0.6,0.11,5.77,-4.18,-7.15
44,-0.82,-1.57,3.0,-0.62,0.16,-0.71,5.65,-3.67,-7.11
45,-0.14,-0.09,0.9,0.58,0.53,-1.59,5.19,-3.48,-7.14
46,-0.02,0.49,0.64,0.58,-0.44,-1.55,5.1,-3.46,-7.23
47,0.03,0.35,0.75,0.84,-0.27,-1.06,5.04,-3.43,-7.21
48,0.61,2.12,0.88,1.06,0.0,-0.28,4.99,-3.43,-7.14
49,0.24,0.72,0.09,1.19,0.37,0.03,5.07,-3.33,-7.21
50,0.0,1.68,-0.21,1.57,0.2,0.61,4.96,-3.37,-7.2
51,-0.41,0.79,-0.68,1.84,0.11,1.1,5.01,-3.33,-7.14
52,-0.72,0.32,-0.56,1.19,0.11,1.9,4.99,-3.34,-7.12
53,-0.79,-1.73,-1.33,0.1,0.25,2.33,5.11,-3.33,-7.08
54,-1.39,-2.97,-2.75,0.63,-0.91,4.73,5.08,-3.43,-7.17
55,-0.49,0.16,0.48,-1.03,-1.24,2.13,5.01,-3.4,-7.15
56,-0.32,-3.81,1.44,-1.1,-0.65,0.88,5.11,-3.31,-7.15
57,0.81,-1.89,1.33,-0.34,-0.85,0.87,4.83,-3.21,-7.3
58,1.61,-0.77,1.57,-0.42,-0.84,-0.98,4.74,-2.92,-7.33
59,1.42,-0.99,0.0,0.21,-0.33,-1.61,4.5,-2.88,-7.36
60,0.97,0.54,0.08,0.38,-0.24,-1.33,4.38,-2.95,-7.3
61,0.16,0.95,0.38,0.68,-0.51,-1.2,4.3,-2.91,-7.27
62,-0.79,1.0,0.9,0.85,-0.45,-0.62,4.35,-2.83,-7.33
63,-1.18,1.34,1.77,1.53,-0.72,-0.09,4.29,-2.76,-7.23
64,-1.5,1.75,2.1,1.51,-0.32,0.64,4.32,-2.77,-7.17
65,-1.38,1.55,1.98,1.22,-0.31,1.66,4.27,-2.71,-6.97
66,-0.39,0.75,1.52,0.77,-0.39,2.38,4.39,-2.55,-7.08
67,0.16,-1.52,1.31,0.01,-1.21,3.24,4.41,-2.67,-6.99
68,0.07,-0.29,1.91,-0.07,-0.69,2.69,4.24,-2.7,-7.06
69,-0.52,-1.05,1.68,-0.85,0.17,1.19,4.11,-2.55,-7.12
70,-0.32,-1.27,1.84,-0.76,-0.35,0.62,4.03,-2.4,-7.15
71,-0.44,-0.91,1.62,-0.39,-0.27,-0.6,3.93,-2.28,-7.15
72,-0.75,-1.32,0.32,0.42,-0.19,-1.31,3.84,-2.4,-7.15
73,-0.87,-0.88,-0.06,0.9,-0.37,-1.09,3.84,-2.44,-7.11
74,-0.31,0.78,0.49,0.8,-0.7,-0.81,3.76,-2.35,-7.17
75,-0.1,0.07,-0.14,0.88,-0.11,-0.61,3.78,-2.43,-7.02
76,0.27,0.11,-1.02,1.09,-0.16,0.1,3.87,-2.32,-7.08
77,0.95,0.08,-0.58,1.1,-0.71,0.21,3.85,-2.43,-7.09
78,0.84,-0.88,-0.86,0.84,-0.33,1.17,3.9,-2.47,-7.08
79,0.93,-1.32,-1.0,-0.13,-0.01,1.98,3.84,-2.5,-6.93
80,0.04,-2.93,-2.69,0.01,-0.35,3.95,3.87,-2.49,-7.14
81,0.25,0.45,-1.58,-0.25,-0.03,2.29,3.88,-2.64,-7.15
82,0.04,-1.26,-1.93,-0.38,-0.33,1.1,3.87,-2.56,-7.17
83,0.29,-0.96,-2.27,-0.02,-0.59,0.96,3.88,-2.56,-7.09
84,2.07,-0.35,-1.31,-0.07,-0.16,-0.5,3.94,-2.59,-7.08
85,1.25,-2.7,-2.4,-0.19,0.06,-1.02,3.91,-2.53,-7.18
86,2.03,-0.57,-3.24,1.12,-0.21,-0.94,3.78,-2.58,-7.32
87,2.31,0.81,-1.76,1.12,0.05,-1.43,3.58,-2.49,-7.33
88,0.63,-0.22,-1.75,1.33,0.31,-1.12,3.72,-2.53,-7.3
89,0.0,0.63,-0.7,1.64,0.47,-0.37,3.52,-2.55,-7.27
90,-0.33,1.02,-0.07,1.57,0.78,0.33,3.67,-2.47,-7.24
91,-0.35,1.23,0.87,0.8,0.88,1.02,3.69,-2.47,-7.32
92,-0.38,0.66,0.67,0.59,1.43,2.43,3.67,-2.49,-7.24
93,-0.28,-2.24,0.58,-0.14,1.37,2.44,3.67,-2.43,-7.29
94,0.37,0.53,2.02,0.57,0.67,2.23,3.61,-2.43,-7.23
95,-0.41,1.1,2.51,-0.21,2.11,0.83,3.58,-2.28,-7.12
96,-0.91,-0.41,1.44,-0.67,1.31,0.71,3.58,-2.08,-7.33
97,-0.61,-0.22,0.66,0.06,0.64,-0.33,3.46,-2.13,-7.3
98,-0.79,-1.75,0.65,0.82,0.6,-0.75,3.48,-2.22,-7.26
99,-0.59,-0.14,0.82,1.3,0.31,-0.77,3.51,-2.22,-7.32
100,-0.49,0.04,1.21,0.9,0.54,-0.76,3.45,-2.14,-7.3
101,-0.84,0.05,0.26,1.31,1.05,-0.3,3.49,-2.16,-7.3
102,-0.98,0.57,-0.62,1.43,0.81,-0.16,3.51,-2.14,-7.27
103,-1.14,0.03,-0.81,1.75,0.29,0.44,3.51,-2.13,-7.3
104,-0.44,0.53,-0.34,0.94,0.39,1.81,3.66,-1.99,-7.3
105,0.34,-1.73,-0.18,-0.26,0.2,1.65,3.58,-2.08,-7.27
106,-1.27,-4.24,-2.35,1.62,-0.09,3.89,3.64,-2.17,-7.36
107,0.5,1.26,0.37,0.07,0.68,2.27,3.57,-2.22,-7.32
108,-0.34,-1.44,-0.51,-0.59,0.05,0.97,3.52,-2.17,-7.32
109,-0.69,0.49,-0.34,0.21,0.05,0.85,3.63,-2.2,-7.35
110,-0.53,0.07,0.47,-0.29,-0.01,-0.63,3.64,-2.23,-7.41
111,-0.67,-1.42,-0.2,0.44,-0.07,-0.89,3.64,-2.2,-7.45
112,-0.39,-0.08,-0.1,1.05,-0.17,-1.22,3.6,-2.17,-7.38
113,-0.14,0.93,0.58,0.9,-0.28,-0.91,3.66,-2.16,-7.48
114,-0.23,0.33,1.02,0.92,-0.34,-0.51,3.72,-2.14,-7.44
115,-0.38,-0.42,1.15,1.28,-0.26,0.1,3.7,-2.1,-7.53
116,-0.74,-0.35,1.19,1.45,-0.3,0.37,3.67,-2.05,-7.44
117,-1.07,-0.42,0.74,1.46,-0.13,0.87,3.64,-2.01,-7.39
118,-0.7,0.02,1.12,1.17,0.18,2.13,3.72,-2.1,-7.39
119,-0.37,-1.01,0.96,0.45,0.01,3.81,3.76,-2.13,-7.45
120,-0.37,0.03,1.96,0.0,0.84,2.04,3.82,-2.17,-7.57
121,-1.13,-0.25,0.31,-0.12,0.7,1.7,3.72,-2.19,-7.5
122,-0.56,0.7,2.14,-0.15,-0.17,0.74,3.6,-2.05,-7.41
123,-0.95,-1.73,1.08,-0.11,0.0,-0.8,3.69,-1.98,-7.51
124,-1.07,-1.86,0.24,1.21,-0.12,-1.2,3.67,-2.1,-7.54
125,-0.48,0.32,0.54,1.33,-0.77,-1.57,3.63,-2.04,-7.5
126,0.18,0.1,0.17,1.36,-0.07,-1.29,3.72,-2.07,-7.45
127,1.01,0.3,-1.0,1.54,0.28,-0.69,3.69,-2.04,-7.5
128,1.5,0.49,-1.22,1.62,0.06,0.01,3.73,-1.99,-7.5
129,1.1,0.22,-2.07,1.4,0.79,0.68,3.61,-2.02,-7.54
130,1.12,-0.01,-0.9,0.69,0.27,2.19,3.58,-1.96,-7.74
131,-1.24,-3.7,-2.63,1.01,0.47,4.35,3.51,-1.9,-7.57
132,0.09,1.9,-1.86,1.12,0.19,3.92,3.51,-2.01,-7.63
133,0.18,1.19,0.99,-0.74,-0.34,1.73,3.48,-1.72,-7.66
134,1.0,-0.74,-0.23,-0.39,-0.03,1.81,3.42,-1.63,-7.59
135,1.61,-0.74,0.65,-0.03,0.13,-0.4,3.25,-1.47,-7.6
136,0.47,-1.91,-0.16,0.62,0.19,-1.17,3.09,-1.51,-7.54
137,-0.32,-0.78,0.18,0.77,0.32,-1.53,3.1,-1.5,-7.51
138,-0.53,0.57,1.77,0.13,-0.95,-1.36,3.0,-1.45,-7.53
139,-1.12,0.31,1.51,0.81,0.13,-1.2,3.06,-1.33,-7.5
140,-1.34,0.92,1.9,1.24,-0.43,-0.56,3.1,-1.17,-7.47
141,-1.12,1.08,1.89,1.42,-0.36,0.17,3.03,-1.17,-7.33
142,-0.94,1.0,1.83,1.23,-0.18,1.09,3.12,-1.05,-7.24
143,-0.9,0.8,1.26,0.93,0.13,3.68,3.09,-0.99,-7.18
144,-1.03,-1.37,1.44,-0.35,-0.96,4.03,3.07,-0.96,-7.27
145,-0.67,0.81,2.46,0.21,0.04,3.48,3.12,-0.84,-7.26
146,-0.57,0.23,1.4,-0.94,1.24,1.13,3.09,-0.7,-7.08
147,0.22,-0.67,1.68,-0.66,0.37,0.35,3.04,-0.75,-7.23
148,-0.02,-2.27,2.52,-0.85,-0.82,-1.59,3.04,-0.54,-7.21
149,-0.93,-2.38,0.72,1.4,0.07,-2.46,2.94,-0.54,-7.33
150,-0.38,0.35,1.04,1.5,-0.59,-1.8,2.83,-0.55,-7.27
151,-0.58,0.93,0.39,1.07,-0.46,-1.31,2.98,-0.54,-7.29
152,-0.57,0.77,-0.76,1.19,-0.1,-0.19,3.0,-0.52,-7.35
153,-0.3,0.3,-1.89,1.46,-0.35,0.51,2.97,-0.51,-7.35
154,0.16,-0.27,-1.95,1.77,-0.78,1.17,3.1,-0.55,-7.32
155,0.3,-0.7,-1.57,0.87,-0.24,2.24,3.21,-0.46,-7.45
156,-0.93,-2.47,-1.99,0.78,-0.8,3.66,3.25,-0.64,-7.54
157,-0.24,2.27,0.0,-0.58,-0.43,4.74,3.19,-0.63,-7.5
158,-0.7,-1.33,1.52,-1.13,0.06,1.43,3.4,-0.54,-7.6
159,-1.14,-3.03,-1.28,0.71,-0.78,1.5,3.25,-0.6,-7.63
160,1.26,0.46,0.86,0.1,-0.44,-0.46,3.27,-0.73,-7.69
161,1.75,-1.89,0.02,-0.43,-0.23,-1.79,3.34,-0.61,-7.72
162,1.24,-2.39,-0.73,0.81,-0.47,-1.52,3.22,-0.87,-7.9
163,1.73,0.36,0.28,0.75,-0.35,-1.42,3.19,-0.84,-7.95
164,0.74,0.54,0.6,0.5,-0.5,-1.34,3.19,-0.84,-7.89
165,-0.66,0.57,0.76,1.05,-0.46,-0.56,3.13,-0.85,-7.75
166,-1.44,1.05,0.71,1.2,-0.56,-0.1,3.15,-0.84,-7.9
167,-1.38,1.36,0.74,0.96,-0.63,1.35,3.13,-0.9,-7.78
168,-0.87,-0.42,-0.27,1.12,-0.03,3.2,3.09,-0.88,-7.77
169,-0.21,-2.98,-1.48,0.95,-0.29,4.4,3.19,-0.97,-7.86
170,2.66,1.7,0.73,0.19,0.41,2.99,3.19,-1.12,-7.81
171,1.09,-0.49,0.14,-0.02,1.18,1.24,3.15,-0.99,-7.86
172,0.65,-0.43,-0.03,-0.98,1.18,0.33,3.0,-0.9,-7.9
173,-1.31,-2.46,-0.12,0.28,0.48,-1.19,2.94,-1.08,-7.86
174,-2.82,-1.49,0.0,1.7,0.26,-1.87,2.95,-0.96,-7.9
175,-2.96,1.38,1.37,1.14,-0.46,-1.93,3.0,-1.08,-7.86
176,-2.45,1.21,0.7,1.21,-0.31,-1.16,3.03,-0.96,-7.75
177,-1.56,0.62,-0.28,1.08,-0.2,-0.32,3.24,-1.02,-7.72
178,-0.51,0.09,-0.91,1.4,-1.0,0.33,3.24,-0.96,-7.75
179,-0.19,-0.51,-1.82,2.01,-0.7,0.89,3.24,-0.99,-7.72
180,0.45,-0.37,-0.5,1.65,-0.93,1.62,3.31,-1.14,-7.81
181,0.96,-0.93,0.39,1.2,-0.17,2.89,3.34,-1.06,-7.75
182,1.89,0.71,0.53,-0.26,-0.49,4.85,3.28,-1.2,-7.9
183,1.95,-0.58,2.06,-1.37,0.25,1.75,3.31,-1.14,-7.77
184,0.38,-2.69,0.2,-0.35,0.11,1.54,3.21,-1.14,-7.86
185,0.16,-0.19,1.12,-0.45,-0.6,-0.2,3.13,-1.17,-7.78
186,-0.57,-1.3,0.37,-0.18,0.11,-0.87,3.1,-1.12,-7.87
187,-0.91,-1.03,-0.01,0.6,-0.47,-1.23,3.1,-1.2,-7.8
188,-0.56,0.14,1.03,0.79,-0.79,-1.25,3.16,-1.26,-7.74
189,-0.28,0.28,0.95,0.99,-0.58,-1.56,3.19,-1.2,-7.81
190,0.74,1.38,1.28,1.36,-0.56,-0.89,3.22,-1.2,-7.83
191,0.2,0.24,1.61,1.05,-1.05,-0.02,3.19,-1.15,-7.84
192,-0.73,0.24,0.86,2.05,-0.66,1.44,3.13,-1.18,-7.71
193,-0.41,1.01,1.53,1.18,-0.85,1.95,3.13,-1.08,-7.81
194,-0.92,-2.78,-0.55,0.81,-0.18,3.45,3.18,-1.14,-7.71
195,-0.42,-0.27,0.51,1.94,-1.35,4.79,3.21,-1.2,-7.81
196,-0.39,0.08,1.85,-0.2,0.69,1.58,3.25,-1.12,-7.78
197,-0.38,-1.93,0.63,-0.56,0.92,1.21,3.22,-1.14,-7.81
198,0.02,-2.17,2.98,-0.52,-0.73,-0.7,3.15,-1.12,-7.8
199,-0.63,-2.27,1.52,0.39,-0.52,-2.12,3.27,-1.09,-7.8
200,-0.76,0.08,1.19,1.41,-0.04,-2.57,3.15,-1.03,-7.84
201,-0.34,2.12,1.41,0.96,-0.72,-2.07,3.16,-0.94,-7.89
202,-0.31,1.33,0.17,0.94,-0.47,-0.96,3.1,-0.9,-7.71
203,0.2,1.19,-0.63,1.56,-0.66,0.19,3.16,-0.96,-7.81
204,0.46,0.85,-0.93,1.82,-0.55,0.64,3.19,-0.87,-7.74
205,0.28,-0.57,-1.92,1.93,-0.8,2.01,3.13,-0.81,-7.69
206,0.44,-1.47,-1.43,1.11,-0.28,2.77,3.13,-0.87,-7.74
207,-0.46,-3.38,-3.29,1.31,-0.32,3.88,3.22,-0.99,-7.8
208,1.39,0.62,-0.42,-0.06,-0.38,3.7,3.21,-1.09,-7.78
209,0.49,-1.74,0.59,-0.4,0.16,0.51,3.3,-0.99,-7.86
210,-0.21,-2.03,-0.65,0.14,-0.74,0.83,3.28,-0.91,-7.9
211,0.21,0.7,0.94,-0.27,-0.59,-0.61,3.12,-0.9,-7.78
212,-0.08,-0.57,-0.04,0.43,-0.38,-1.08,3.1,-0.99,-7.96
213,-0.19,-0.77,-0.74,0.91,-0.56,-1.62,3.07,-0.96,-7.84
214,0.32,0.89,0.39,1.2,-1.35,-1.21,3.15,-0.97,-7.93
215,-0.1,0.75,1.0,0.82,-0.74,-1.16,3.12,-0.91,-7.87
216,-0.66,0.87,1.19,1.73,-0.64,0.01,3.1,-0.96,-7.8
217,-0.68,1.19,1.69,1.66,-0.79,0.51,3.1,-0.84,-7.81
218,-1.23,0.11,1.22,1.08,-0.91,1.32,3.13,-0.87,-7.71
219,-1.31,-0.61,-0.07,1.69,-0.8,2.9,3.15,-0.84,-7.74
220,-0.31,-1.69,0.15,0.58,-1.27,3.12,3.18,-0.93,-7.68
221,0.95,0.25,1.53,0.54,-0.39,2.75,3.09,-0.85,-7.84
222,-0.05,-0.92,0.97,-0.26,0.91,1.0,3.15,-0.88,-7.81
223,-0.2,-0.92,0.67,0.3,0.63,0.66,3.06,-0.82,-7.81
224,-0.39,-1.16,1.77,-0.23,-1.09,-1.09,3.09,-0.88,-7.74
225,-1.07,-1.28,0.64,1.34,-0.22,-1.75,3.09,-0.93,-7.75
226,-1.47,0.07,0.02,1.42,-0.71,-1.97,3.03,-0.88,-7.84
227,-0.79,1.03,-0.3,1.31,-0.68,-1.35,3.07,-0.91,-7.84
228,0.21,1.32,-0.02,1.21,-0.81,-0.41,3.19,-0.85,-7.68
229,0.51,0.71,-0.72,1.76,-0.14,0.34,3.13,-0.79,-7.71
230,0.72,0.39,-0.62,2.03,-0.84,0.57,3.13,-0.67,-7.68
231,0.42,0.24,-0.53,1.92,-0.33,1.46,3.06,-0.72,-7.66
232,0.18,-0.6,0.05,0.73,-0.52,2.05,3.19,-0.61,-7.59
233,-1.14,-2.46,-2.15,1.74,-0.88,3.64,3.03,-0.73,-7.56
234,0.32,1.5,0.74,-0.51,-0.11,3.32,3.01,-0.7,-7.69
235,-0.39,-1.93,1.55,-0.94,-0.4,1.41,3.15,-0.63,-7.6
236,0.51,-0.56,0.44,0.24,-0.75,1.18,2.97,-0.67,-7.78
237,0.93,-0.3,-0.43,-0.11,-0.38,-0.5,2.92,-0.67,-7.74
238,0.33,-1.86,-1.53,0.55,-0.4,-1.03,2.79,-0.67,-7.66
239,1.17,-0.36,-1.29,0.9,-0.63,-1.34,2.91,-0.66,-7.8
240,0.98,0.28,-0.16,0.93,-1.05,-1.1,2.74,-0.75,-7.66
241,-0.95,-0.35,0.18,1.44,-0.37,-0.71,2.86,-0.64,-7.69
242,-1.02,1.28,1.25,1.6,-0.37,0.09,2.74,-0.67,-7.74
243,-2.06,0.86,2.12,1.25,-0.32,0.64,2.65,-0.57,-7.53
244,-2.5,-0.35,1.7,1.31,-0.5,1.15,2.67,-0.49,-7.56
245,-1.28,0.18,1.51,1.16,-0.42,2.39,2.67,-0.43,-7.51
246,-0.78,-2.21,-0.64,0.81,-1.25,3.86,2.68,-0.48,-7.44
247,1.63,2.28,1.7,0.58,-0.62,2.18,2.74,-0.52,-7.53
248,0.53,0.42,0.67,-0.94,1.17,0.95,2.56,-0.37,-7.56
249,0.72,-0.81,0.89,-0.19,-0.52,0.87,2.44,-0.39,-7.5
250,0.12,-1.49,0.73,0.27,-0.32,-0.74,2.46,-0.43,-7.45
251,-1.79,-1.43,0.15,1.48,-0.25,-1.53,2.43,-0.42,-7.51
252,-1.12,1.17,0.88,1.21,-0.54,-1.32,2.34,-0.4,-7.48
253,-2.12,1.17,0.39,1.43,-0.28,-1.07,2.38,-0.39,-7.42
254,-1.92,0.79,-0.47,1.64,-0.59,-0.58,2.43,-0.3,-7.33
255,-0.82,0.6,-0.58,1.82,-0.95,-0.07,2.49,-0.3,-7.23
256,1.01,0.43,-0.42,1.8,-1.18,0.85,2.52,-0.28,-7.33
257,2.14,-0.38,-0.46,1.23,-0.74,2.13,2.59,-0.24,-7.36
258,2.77,-1.79,-0.57,0.18,-0.29,2.32,2.52,-0.25,-7.39
259,0.07,-3.01,-2.87,2.1,-0.2,3.5,2.37,-0.33,-7.39
260,1.49,3.53,0.69,0.25,-0.11,3.06,2.5,-0.3,-7.45
261,-1.0,-0.35,0.0,-0.72,-0.6,0.98,2.37,-0.09,-7.36
262,0.23,-0.79,0.04,-0.16,-1.16,1.24,2.38,-0.1,-7.2
263,1.26,-1.35,0.51,-0.33,-0.55,-0.46,2.32,-0.09,-7.3
264,-0.16,-2.86,-0.57,0.65,-0.64,-1.19,2.32,-0.1,-7.32
265,0.4,-0.78,-0.42,1.1,-0.62,-1.28,2.28,-0.12,-7.42
266,0.15,-0.36,-0.31,1.01,-0.51,-1.19,2.16,-0.19,-7.44
267,0.02,-0.7,0.06,1.48,-0.88,-0.8,2.25,-0.12,-7.32
268,0.42,-0.24,0.53,1.85,-0.93,-0.35,2.25,-0.19,-7.32
269,0.6,0.16,1.0,1.48,-0.38,0.47,2.28,-0.15,-7.32
270,0.01,0.1,0.77,1.32,-0.3,1.44,2.23,-0.07,-7.17
271,-0.02,-0.26,0.35,0.64,0.19,2.28,2.2,-0.06,-7.21
272,0.13,0.32,0.66,0.51,-0.78,3.33,2.17,-0.09,-7.18
273,0.37,2.4,1.07,0.25,0.73,1.76,2.14,0.01,-7.14
274,-0.21,0.37,0.06,-0.4,0.43,1.41,2.16,0.12,-7.14
275,-0.21,-0.42,1.17,0.07,-0.06,0.64,2.14,0.13,-7.03
276,-1.24,-0.7,0.91,1.03,0.34,-0.66,2.16,0.15,-7.03
277,-2.41,-0.66,0.39,1.18,-0.48,-1.47,2.13,0.12,-7.12
278,-2.4,-0.22,0.5,1.36,-0.76,-1.33,2.13,0.09,-7.05
279,-1.62,0.22,0.57,1.36,-0.75,-1.31,2.23,0.15,-7.0
280,-1.03,-0.11,-0.13,1.43,-0.77,-0.64,2.35,0.1,-7.08
281,-0.11,-0.13,-0.94,1.86,-0.74,0.24,2.46,-0.06,-7.05
282,0.99,-0.2,-0.79,1.61,-0.89,0.95,2.38,0.0,-7.06
283,1.04,-1.11,-1.22,1.3,-0.61,2.28,2.47,0.07,-7.05
284,1.4,-0.81,-0.57,1.29,-0.91,3.39,2.52,-0.09,-7.08
285,2.01,1.44,0.64,-0.49,-0.4,3.77,2.47,-0.06,-7.09
286,0.53,-0.95,0.44,-1.09,0.43,1.49,2.53,-0.01,-7.08
287,-0.63,-1.27,-0.8,0.37,-0.83,0.65,2.4,-0.01,-7.2
288,0.27,0.32,0.63,-0.1,-0.61,-0.45,2.38,-0.09,-7.18
289,-0.06,-1.28,-0.27,0.09,-0.19,-0.91,2.44,-0.09,-7.26
290,-0.27,-1.33,-0.9,0.75,-0.56,-0.94,2.47,-0.12,-7.38
291,0.02,-0.25,0.21,0.66,-0.75,-1.05,2.46,-0.13,-7.33
292,-0.37,-0.07,0.39,1.52,-0.44,-1.21,2.58,-0.18,-7.32
293,-0.61,0.35,0.58,1.9,-0.49,-0.61,2.5,-0.15,-7.32
294,-0.72,0.95,1.23,1.36,-0.74,0.11,2.59,-0.19,-7.38
295,-1.07,0.65,0.91,1.17,-0.48,1.23,2.62,-0.22,-7.47
296,-0.5,-0.14,0.21,0.98,-0.52,3.12,2.64,-0.19,-7.38
297,0.33,-1.98,-0.58,0.57,-0.83,4.52,2.73,-0.31,-7.6
298,1.47,0.44,0.68,0.32,0.13,2.47,2.74,-0.24,-7.5
299,0.43,-1.09,0.09,-0.08,0.61,1.41,2.73,-0.36,-7.48
300,0.76,-0.06,1.49,0.24,-0.08,0.16,2.7,-0.42,-7.57
301,0.0,-0.72,1.36,0.45,0.43,-1.51,2.74,-0.3,-7.68
302,-1.61,-1.36,0.18,1.28,0.06,-1.87,2.61,-0.4,-7.66
303,-1.86,-0.29,0.67,1.28,-0.72,-1.84,2.76,-0.43,-7.74
304,-1.65,0.53,0.83,1.36,-0.6,-1.11,2.71,-0.4,-7.75
305,-1.4,0.6,-0.21,1.44,-0.72,-0.42,2.82,-0.3,-7.72
306,-0.28,1.03,-0.58,1.67,-0.55,0.53,2.92,-0.37,-7.72
307,0.24,-0.86,-2.05,1.76,-0.54,1.18,2.97,-0.37,-7.74
308,1.44,-0.1,-1.39,1.7,-0.49,2.26,2.94,-0.39,-7.78
309,1.45,-1.46,-1.36,1.24,-0.77,2.1,3.0,-0.48,-7.81
310,1.79,0.7,-1.5,0.89,-0.34,4.08,2.94,-0.55,-7.95
311,1.22,0.78,-0.94,-0.45,0.07,1.6,2.91,-0.45,-7.92
312,-0.11,-1.09,-0.85,0.24,-0.73,1.81,2.95,-0.52,-7.83
313,0.41,0.61,0.56,-0.29,-0.06,0.4,2.98,-0.55,-7.87
314,-0.77,-1.58,0.01,0.05,-0.07,-0.81,2.97,-0.46,-7.95
315,-1.74,-1.65,-0.66,0.85,-0.43,-1.42,2.88,-0.58,-7.95
316,-0.28,0.37,0.16,0.72,-0.37,-1.53,2.97,-0.61,-7.98
317,0.07,0.0,0.63,1.3,-0.9,-1.13,3.13,-0.6,-7.95
318,0.02,0.23,1.31,1.41,-0.5,-0.41,3.03,-0.51,-8.04
319,-0.58,0.89,1.26,2.14,-0.73,0.93,3.04,-0.51,-7.98
320,-1.35,1.43,1.33,1.3,-0.42,1.53,3.0,-0.52,-7.93
321,-2.25,-0.88,-0.21,1.5,-0.95,2.56,3.03,-0.49,-7.92
322,-0.46,-0.93,0.71,0.95,-1.57,3.43,3.06,-0.51,-7.87
323,1.32,0.76,2.03,0.1,-0.34,1.95,3.1,-0.43,-7.84
324,0.04,-1.75,0.72,-0.79,0.92,0.96,3.04,-0.33,-7.98
325,-0.16,-1.84,-0.52,-0.28,0.18,0.93,2.91,-0.39,-8.1
326,-0.16,-1.48,0.91,-0.15,-0.35,-0.78,3.03,-0.45,-8.04
327,-1.21,-0.96,0.49,1.24,-0.18,-1.67,2.94,-0.43,-8.16
328,-1.31,0.66,0.49,1.24,-0.4,-2.02,2.97,-0.49,-8.08
329,-1.14,1.21,0.31,1.42,-0.66,-1.5,3.04,-0.36,-8.11
330,-0.44,1.87,0.12,1.49,-0.48,-0.95,2.98,-0.31,-7.99
331,-0.09,1.45,-0.47,1.41,-0.41,-0.23,3.12,-0.33,-7.98
332,-0.71,-0.02,-1.79,1.67,-0.76,0.84,3.09,-0.27,-8.02
333,-0.45,0.56,-1.07,1.92,-0.92,1.97,3.07,-0.22,-7.84
334,0.07,-0.67,-0.58,1.03,-0.56,2.5,3.24,-0.27,-7.98
335,1.21,-0.9,-0.44,0.72,-1.2,4.63,3.22,-0.34,-8.08
336,2.71,0.14,1.23,-1.05,-0.09,2.85,3.22,-0.33,-8.04
337,0.49,-3.74,-0.11,-0.32,-0.07,0.79,3.12,-0.19,-8.11
338,-0.66,-0.84,-0.74,0.73,-0.88,0.22,3.06,-0.39,-8.14
339,-0.94,0.28,0.14,-0.17,-1.09,-0.7,3.09,-0.37,-8.22
340,-1.07,-0.81,-0.09,0.12,-0.83,-1.16,3.04,-0.42,-8.17
341,-0.72,-0.65,-0.41,0.78,-1.09,-1.28,3.18,-0.49,-8.2
342,0.09,0.4,0.48,0.74,-1.08,-1.37,3.13,-0.46,-8.14
343,0.35,0.15,0.37,1.34,-0.84,-0.87,3.19,-0.45,-8.14
344,0.34,-0.09,0.41,1.58,-0.84,-0.35,3.19,-0.37,-8.1
345,0.28,-0.35,0.13,1.78,-1.04,0.54,3.19,-0.42,-8.19
346,0.21,-0.63,-0.05,1.45,-0.42,1.23,3.25,-0.43,-8.22
347,0.67,-0.75,-0.16,1.3,-0.73,2.61,3.16,-0.48,-8.16
348,1.33,1.62,1.56,0.64,-0.6,3.6,3.09,-0.42,-8.2
349,0.16,1.67,1.22,-0.05,0.91,2.23,3.13,-0.4,-8.28
350,-1.2,-0.97,-1.03,-0.15,0.96,1.57,3.03,-0.33,-8.2
351,-1.26,-1.41,1.0,-0.27,-0.77,0.22,3.21,-0.36,-8.16
352,-2.03,-1.44,0.72,0.94,-0.06,-0.91,3.07,-0.33,-8.17
353,-2.0,-0.42,0.49,1.15,-0.35,-1.62,3.16,-0.42,-8.08
354,-1.68,-0.08,0.77,1.02,-0.83,-1.47,3.18,-0.39,-8.11
355,-0.86,0.64,0.67,1.14,-0.48,-1.09,3.33,-0.39,-8.1
356,-0.2,0.49,-0.56,1.36,-0.35,-0.7,3.21,-0.37,-8.22
357,0.23,0.26,-1.26,1.68,-0.8,0.1,3.33,-0.27,-8.1
358,0.44,0.21,-0.6,2.04,-1.04,0.84,3.34,-0.34,-8.05
359,0.39,-0.39,-0.46,1.41,-0.74,1.7,3.37,-0.34,-7.99
360,0.02,-1.3,-0.38,1.12,-0.77,2.18,3.31,-0.36,-8.04
361,0.39,0.25,0.32,0.47,-1.4,3.82,3.33,-0.46,-8.01
362,0.36,1.25,1.85,-0.61,-0.5,2.06,3.34,-0.25,-8.04
363,-0.61,-0.81,-0.23,0.07,-1.25,1.58,3.36,-0.24,-8.02
364,0.78,1.08,0.32,-0.11,-0.74,0.68,3.19,-0.12,-7.98
365,0.69,-1.19,-0.19,-0.24,-0.45,-0.56,3.16,-0.16,-7.92
366,0.02,-2.0,-0.81,0.66,-0.88,-1.04,3.24,-0.22,-8.05
367,-0.49,-0.53,-0.81,1.03,-0.96,-1.35,3.13,-0.24,-8.02
368,-0.88,0.28,0.29,1.09,-0.91,-0.99,3.16,-0.22,-7.98
369,-1.47,-0.15,0.82,1.41,-1.21,-0.38,3.19,-0.18,-7.93
370,-0.94,0.15,1.25,1.57,-1.47,0.26,3.24,0.01,-7.9
371,-0.22,-0.25,1.26,1.37,-1.24,0.67,3.12,-0.09,-7.92
372,0.08,-1.56,0.37,1.5,-1.28,1.46,3.13,-0.18,-7.87
373,1.05,-1.79,0.61,0.47,-0.58,2.32,3.19,-0.07,-7.92
374,1.49,-0.91,1.58,0.13,-0.67,2.7,3.12,-0.13,-7.84
375,0.26,-0.56,1.57,0.45,0.31,1.02,2.98,-0.04,-7.9
376,-0.79,0.73,0.25,0.43,0.19,1.07,2.97,0.06,-7.89
377,-0.96,1.7,1.65,-0.21,-0.48,-0.23,2.92,0.04,-7.8
378,-2.26,0.16,0.93,0.91,-0.48,-1.04,2.86,0.09,-7.87
379,-2.02,0.74,0.93,0.98,-0.83,-1.53,2.85,0.16,-7.71
380,-1.29,0.53,1.11,0.92,-1.31,-1.2,2.95,0.25,-7.71
381,-0.21,-0.11,0.49,1.31,-1.13,-0.53,2.77,0.25,-7.78
382,0.75,-0.47,-0.45,1.24,-1.03,0.19,2.79,0.18,-7.71
383,1.28,-0.93,-0.6,1.66,-1.09,0.69,2.83,0.18,-7.74
384,1.27,-1.42,-1.45,1.73,-0.93,1.28,2.74,0.13,-7.81
385,0.91,-1.77,-1.23,1.46,-0.55,1.88,2.7,0.07,-7.78
386,-0.02,-2.8,-1.7,1.39,-0.69,1.53,2.7,0.0,-7.9
387,-0.3,-0.7,-2.17,2.36,-1.35,3.08,2.7,-0.15,-7.99
388,-0.04,0.74,0.54,-0.44,-0.3,1.24,2.59,-0.09,-7.83
389,-0.74,-0.24,-0.09,0.38,-1.22,1.36,2.67,-0.21,-7.75
390,0.7,1.1,0.91,-0.14,-0.89,0.57,2.64,-0.13,-7.92
391,0.52,-0.65,0.48,0.22,-0.83,-0.98,2.65,-0.1,-7.77
392,-0.23,-1.0,-0.93,0.99,-1.01,-1.23,2.55,-0.24,-7.89
393,0.3,0.25,0.46,0.91,-1.08,-1.13,2.61,-0.18,-7.9
394,-0.04,-0.61,0.53,1.3,-1.19,-0.85,2.56,-0.25,-7.84
395,-0.1,-0.04,0.6,1.79,-1.06,-0.63,2.53,-0.24,-7.74
396,-0.45,-0.08,0.91,1.85,-1.31,-0.29,2.58,-0.37,-7.77
397,-0.78,0.11,0.84,1.61,-1.12,0.94,2.53,-0.28,-7.68
398,-0.58,0.13,0.47,1.37,-0.64,2.33,2.41,-0.33,-7.71
399,-0.39,-1.3,0.09,0.28,-0.99,3.37,2.35,-0.34,-7.81
400,0.73,0.21,-0.04,1.11,0.2,2.96,2.32,-0.31,-7.89
401,0.4,-0.24,0.37,0.04,-0.15,1.79,2.37,-0.34,-7.87
402,0.63,0.23,0.76,0.07,0.1,0.89,2.34,-0.33,-7.92
403,-0.51,-0.74,0.45,0.54,-0.08,-0.39,2.23,-0.18,-7.92
404,-1.44,-0.55,0.35,0.83,-0.4,-1.66,2.28,-0.24,-7.96
405,-1.51,-0.04,0.7,1.21,-0.87,-1.67,2.28,-0.25,-7.81
406,-0.45,0.91,1.42,1.02,-0.54,-1.34,2.47,-0.12,-7.92
407,0.15,0.33,0.43,1.08,-0.47,-0.66,2.4,-0.07,-7.99
408,0.88,0.34,-0.32,1.24,-0.47,-0.08,2.34,-0.18,-7.87
409,0.79,-0.27,-1.55,1.69,-0.75,0.77,2.37,-0.06,-7.89
410,0.76,-0.09,-1.16,1.64,-0.72,1.47,2.32,-0.01,-7.95
411,0.92,-0.28,-0.84,1.1,-0.61,1.96,2.43,-0.06,-8.01
412,0.91,0.61,-0.35,0.1,-0.98,4.05,2.35,-0.12,-7.87
413,1.3,1.88,1.17,-1.08,0.29,2.81,2.41,0.01,-7.95
414,-0.51,-1.52,-0.9,-0.63,-0.49,1.69,2.41,0.0,-8.05
415,0.0,-0.02,-0.45,-0.17,-0.26,0.59,2.37,0.1,-8.08
416,-0.61,-0.54,-0.46,-0.15,-0.07,-0.6,2.43,0.12,-8.01
417,-1.75,-1.05,-0.78,0.58,-0.56,-1.26,2.44,0.13,-8.11
418,-1.44,0.16,-0.44,0.7,-0.7,-1.17,2.43,0.06,-8.04
419,-1.13,0.17,0.25,0.74,-1.0,-1.11,2.55,0.0,-7.95
420,-0.9,0.46,0.83,1.23,-1.05,-0.52,2.58,0.13,-8.07
421,-0.87,0.21,0.83,1.31,-1.16,0.17,2.74,0.18,-8.04
422,-0.59,-0.28,0.68,0.99,-1.29,1.31,2.67,0.12,-7.96
423,0.04,-1.19,0.65,1.12,-1.29,1.92,2.65,0.15,-8.05
424,0.63,-2.47,-0.04,0.77,-0.92,2.47,2.62,0.09,-8.05
425,2.03,-0.05,1.47,0.41,-0.52,2.53,2.59,-0.06,-8.16
426,0.56,-1.33,1.34,0.14,0.76,1.35,2.7,0.07,-7.99
427,0.23,-0.49,0.06,-0.14,0.35,1.3,2.5,0.04,-8.1
428,-0.28,0.32,1.94,-0.31,0.25,-0.02,2.53,0.1,-8.13
429,-1.68,-0.13,0.87,0.75,0.04,-1.21,2.49,0.1,-8.14
430,-1.73,0.25,0.74,0.94,-0.43,-1.38,2.59,0.07,-8.07
431,-1.0,0.0,1.17,1.1,-0.71,-1.27,2.65,0.06,-8.13
432,0.25,0.01,0.76,1.53,-0.5,-0.78,2.58,0.09,-8.04
433,0.95,-0.76,-0.68,1.49,-0.45,-0.22,2.49,0.01,-8.07
434,1.66,-0.51,-1.16,1.71,-0.51,0.29,2.43,0.1,-8.13
435,1.36,-0.98,-1.96,1.6,-0.2,1.06,2.59,-0.04,-8.19
436,1.37,-1.12,-1.68,0.69,0.2,1.69,2.46,-0.1,-8.11
437,-0.65,-2.4,-3.35,1.88,-0.45,3.06,2.56,-0.22,-8.13
438,2.04,3.37,0.34,-0.38,0.4,4.11,2.56,-0.27,-8.11
439,-1.21,-2.47,-0.04,-0.9,0.11,0.94,2.56,-0.07,-8.14
440,-2.21,-1.23,-1.26,0.86,-0.6,0.69,2.41,-0.3,-8.23
441,-1.17,1.2,0.93,-0.07,-0.86,-0.91,2.53,-0.22,-8.16
442,-2.03,-0.87,-0.18,0.45,-0.59,-1.43,2.7,-0.21,-8.02
443,-1.23,-0.23,-0.32,0.96,-1.15,-0.96,2.71,-0.21,-8.11
444,0.13,0.25,0.46,0.79,-1.14,-1.09,2.67,-0.21,-8.1
445,0.27,-0.32,0.67,1.17,-1.22,-0.35,2.64,-0.21,-8.05
446,0.58,-0.28,0.65,1.33,-1.28,0.03,2.68,-0.21,-7.96
447,0.18,-0.82,0.64,1.54,-1.36,0.45,2.68,-0.22,-8.07
448,0.18,-0.11,0.46,1.76,-1.12,1.18,2.62,-0.28,-8.05
449,-0.03,-1.16,-0.08,1.16,-0.41,2.14,2.64,-0.24,-8.01
450,0.65,-0.41,0.07,1.17,-0.76,4.47,2.62,-0.31,-8.02
451,1.16,0.82,1.37,-0.22,0.97,2.0,2.65,-0.21,-8.1
452,-0.95,-2.39,-0.6,-0.09,0.91,1.05,2.59,-0.25,-8.05
453,-0.98,-0.56,0.86,0.41,0.25,-0.19,2.55,-0.24,-8.16
454,-2.0,-0.04,1.22,0.6,0.25,-1.73,2.59,-0.28,-8.08
455,-2.61,-0.35,0.04,1.12,-0.35,-1.47,2.56,-0.19,-7.86
456,-1.38,0.74,0.33,1.13,-1.36,-1.16,2.68,-0.18,-7.99
457,-0.07,1.12,0.88,1.09,-0.68,-0.79,2.76,-0.16,-7.98
458,0.42,0.42,0.19,1.39,-0.53,-0.29,2.7,-0.19,-7.95
459,0.27,0.42,-0.82,1.93,-0.52,0.22,2.67,-0.1,-7.87
460,-0.48,-0.07,-1.26,2.65,-1.11,0.54,2.71,-0.21,-7.89
461,-0.04,0.38,-0.34,1.54,-0.82,1.59,2.64,-0.19,-7.87
462,-0.58,-1.82,-1.24,1.42,-0.78,2.02,2.67,-0.16,-7.84
463,1.19,0.21,-0.74,0.86,-1.59,5.26,2.65,-0.24,-7.93
464,1.64,-0.43,1.65,-1.02,0.33,1.92,2.68,-0.18,-7.89
465,-0.67,-3.7,-0.22,-0.58,-0.68,1.34,2.56,-0.15,-7.86
466,0.25,-0.26,0.53,-0.21,-0.62,0.19,2.5,-0.1,-7.86
467,-0.56,-0.88,0.51,-0.46,-1.2,-1.52,2.55,-0.15,-7.92
468,-1.21,-0.54,-0.84,1.02,-0.94,-1.71,2.55,-0.25,-7.98
469,0.02,1.38,0.37,0.46,-1.08,-1.61,2.62,-0.12,-7.92
470,0.19,0.56,0.44,0.71,-0.81,-0.96,2.53,-0.13,-7.84
471,0.18,-0.04,0.65,1.13,-1.06,-0.36,2.52,-0.15,-7.83
472,-0.09,0.33,0.93,1.68,-1.0,-0.05,2.46,-0.1,-7.87
473,-0.6,0.12,0.74,1.77,-1.25,0.89,2.49,-0.01,-7.8
474,-0.93,-0.27,-0.03,1.81,-1.42,1.73,2.46,-0.03,-7.8
475,-0.39,-0.67,-0.38,0.72,-1.37,4.47,2.47,-0.07,-7.72
476,1.64,2.13,1.8,-0.12,0.26,3.5,2.61,-0.03,-7.8
477,-0.41,-2.3,-0.02,-0.44,1.22,1.32,2.46,-0.06,-7.71
478,-0.49,-1.77,0.19,0.44,0.11,0.66,2.46,-0.03,-7.77
479,-0.28,0.31,1.88,0.47,0.12,-1.19,2.37,-0.07,-7.77
480,-1.79,-0.21,0.35,1.03,0.19,-1.71,2.37,-0.03,-7.8
481,-1.26,0.67,0.77,0.96,-0.78,-1.29,2.31,-0.04,-7.72
482,-0.42,0.8,1.06,1.23,-0.68,-0.87,2.43,-0.01,-7.66
483,0.0,0.55,0.02,1.42,-0.67,-0.22,2.43,0.03,-7.68
484,0.51,0.37,-0.65,1.41,-0.74,0.28,2.43,0.03,-7.62
485,0.35,-0.46,-1.48,2.03,-0.66,0.66,2.29,0.01,-7.63
486,0.17,-1.0,-1.77,1.71,-0.53,1.67,2.32,-0.03,-7.6
487,-1.01,-3.22,-2.87,1.17,-0.58,2.21,2.43,-0.09,-7.57
488,0.95,1.56,-2.12,1.8,-2.35,5.4,2.43,-0.19,-7.59
489,1.86,2.31,1.57,-1.55,0.54,1.66,2.55,0.06,-7.6
490,-1.33,-4.19,-1.26,-0.3,-0.88,0.93,2.35,-0.03,-7.63
491,0.4,0.26,-0.32,0.01,-0.91,-0.5,2.37,-0.03,-7.68
492,0.16,-0.88,-0.26,0.0,-0.3,-1.67,2.37,0.13,-7.62
493,-0.32,-1.27,-0.63,0.88,-0.77,-1.36,2.34,0.07,-7.69
494,0.69,1.16,-0.07,1.09,-0.99,-1.23,2.26,0.09,-7.77
495,0.59,0.3,0.49,0.85,-0.64,-1.14,2.25,0.06,-7.66
496,0.2,-0.2,0.39,1.64,-1.16,-0.35,2.19,0.09,-7.63
497,-0.07,0.59,0.62,1.55,-1.14,0.13,2.17,0.06,-7.66
498,-0.55,0.88,0.56,1.27,-1.14,1.09,2.26,0.13,-7.56
499,-0.64,-0.23,-0.24,0.95,-0.74,2.74,2.22,0.18,-7.62
500,-0.7,-2.89,-1.17,0.83,-0.81,4.26,2.16,0.16,-7.6
501,2.92,2.29,0.6,0.13,-0.46,3.33,2.17,0.19,-7.72
502,1.38,-1.89,0.03,-0.8,1.23,0.54,2.22,0.21,-7.59
503,0.72,-1.76,-1.09,0.24,0.03,0.71,2.19,0.15,-7.71
504,0.14,-1.04,0.89,0.26,0.14,-0.86,2.14,0.15,-7.74
505,-2.45,-0.88,0.04,1.33,0.01,-1.46,2.1,0.12,-7.72
506,-3.2,1.14,-0.53,1.39,-0.22,-1.56,2.11,0.13,-7.62
507,-2.78,2.14,-0.25,1.4,-0.68,-0.99,2.08,0.15,-7.6
508,-2.26,1.3,-0.49,1.29,-0.58,-0.63,2.22,0.33,-7.56
509,-1.22,1.0,-1.2,1.59,-0.78,0.0,2.19,0.27,-7.6
510,0.23,-0.07,-1.13,1.78,-1.13,0.93,2.29,0.31,-7.41
511,1.0,-1.12,-1.34,1.39,-0.74,1.85,2.4,0.21,-7.6
512,0.34,-3.47,-2.38,0.95,-0.64,2.21,2.4,0.22,-7.59
513,0.79,-1.17,-2.03,0.53,-1.64,4.88,2.43,0.04,-7.71
514,1.28,0.79,1.09,-1.35,-0.1,1.78,2.46,0.16,-7.65
515,-1.14,-1.8,-0.62,0.63,-0.56,1.01,2.46,0.22,-7.71
516,-0.05,0.98,0.47,0.04,-0.6,-0.17,2.43,0.13,-7.62
517,-0.32,-0.69,0.45,-0.02,-0.32,-1.26,2.35,0.21,-7.66
518,-0.51,-0.95,-0.04,1.05,-0.56,-1.48,2.32,0.12,-7.66
519,0.12,0.64,0.85,0.89,-1.01,-1.49,2.29,0.24,-7.63
520,0.42,0.9,1.3,1.35,-0.99,-1.14,2.32,0.3,-7.59
521,0.6,1.21,1.23,1.47,-1.25,-0.45,2.35,0.43,-7.69
522,0.72,0.75,1.34,1.37,-1.38,0.41,2.26,0.4,-7.48
523,0.45,-0.18,0.46,1.62,-1.37,1.18,2.1,0.52,-7.54
524,0.32,-0.81,-0.08,1.49,-1.29,1.89,2.14,0.52,-7.54
525,-0.27,-2.4,-0.7,1.17,-1.02,4.05,2.17,0.54,-7.57
526,1.58,1.12,0.85,0.29,-0.1,2.99,2.14,0.48,-7.59
527,-0.49,-1.12,0.53,-0.47,0.68,1.39,2.19,0.51,-7.51
528,-1.02,0.16,-0.2,0.0,0.35,1.24,2.04,0.63,-7.57
529,-1.29,-0.07,0.49,-0.12,-0.01,-0.3,2.1,0.79,-7.5
530,-2.07,-1.09,0.0,0.9,-0.28,-1.45,2.07,0.76,-7.53
531,-1.83,-0.04,-0.53,1.34,-0.77,-1.82,2.05,0.7,-7.56
532,-0.69,1.21,0.21,1.17,-0.6,-1.4,2.19,0.84,-7.51
533,-0.44,1.54,0.03,1.33,-0.28,-0.78,2.07,0.84,-7.5
534,-0.83,1.28,-1.2,1.39,0.43,0.08,2.1,1.05,-7.35
535,-0.1,0.76,-1.61,1.47,-1.57,0.51,2.13,1.0,-7.51
536,0.46,0.69,-0.77,1.64,-0.99,1.48,2.37,1.02,-7.47
537,-0.25,-0.94,-0.55,0.77,-0.71,2.35,2.34,1.14,-7.51
538,-0.96,-2.38,-2.01,1.67,-1.0,3.34,2.28,0.93,-7.5
539,1.87,2.07,0.97,-0.61,-0.39,3.81,2.46,0.99,-7.59
540,-0.08,-3.64,2.41,-1.55,0.3,1.34,2.44,1.08,-7.8
541,-0.23,-1.89,-0.11,0.41,-0.67,1.09,2.37,1.05,-7.72
542,0.28,-0.22,0.02,-0.44,-0.26,-0.34,2.49,0.97,-7.89
543,-0.23,-1.67,0.76,0.12,-0.31,-1.05,2.47,0.99,-7.89
544,0.37,-0.74,0.68,0.64,-0.43,-1.66,2.44,0.94,-8.01
545,0.32,-0.22,0.69,1.03,-0.75,-1.71,2.49,0.93,-8.11
546,0.63,0.94,1.47,1.52,-0.97,-1.22,2.41,0.87,-7.99
547,0.58,0.67,1.14,1.77,-1.2,-0.39,2.49,0.9,-7.98
548,0.43,0.45,0.98,1.88,-1.14,1.01,2.52,0.87,-7.96
549,0.74,-0.05,0.87,0.91,-0.84,2.09,2.38,0.78,-8.02
550,-0.24,-3.15,-0.82,1.12,-0.63,2.71,2.41,0.7,-8.13
551,3.71,4.71,1.64,-0.02,0.04,3.62,2.49,0.7,-8.04
552,0.18,-1.81,0.84,-1.24,2.17,0.93,2.41,0.7,-8.04
553,-0.81,-2.15,-0.62,0.15,-0.2,1.43,2.22,0.64,-8.19
554,0.02,0.69,1.99,-0.33,0.62,-0.9,2.41,0.63,-8.16
555,-1.98,-0.93,0.81,0.49,0.52,-1.33,2.38,0.57,-8.2
556,-2.22,0.04,-0.21,0.78,-0.24,-1.6,2.37,0.6,-8.14
557,-1.4,0.65,0.78,0.81,-0.37,-1.56,2.49,0.6,-8.11
558,-0.68,0.66,0.5,1.37,-0.32,-1.12,2.55,0.63,-8.26
559,0.36,1.0,0.16,1.35,-0.39,-0.48,2.56,0.73,-8.26
560,0.76,0.42,0.16,1.66,-0.22,0.16,2.67,0.54,-8.07
561,0.75,-0.18,0.06,1.72,-0.25,1.51,2.56,0.48,-8.04
562,1.35,-1.02,0.11,0.6,-0.04,1.93,2.58,0.52,-8.13
563,0.06,-2.82,-0.35,0.61,-1.0,3.57,2.53,0.42,-8.1
564,1.82,2.44,0.67,-1.14,0.42,3.44,2.47,0.49,-8.1
565,-0.41,-0.87,1.26,-1.13,0.25,1.45,2.43,0.49,-8.04
566,-0.44,0.39,0.98,0.37,-0.63,1.17,2.47,0.46,-8.08
567,0.37,1.31,0.98,-0.18,-0.08,-0.28,2.49,0.51,-8.02
568,0.2,-0.6,0.57,0.0,-0.1,-0.83,2.46,0.49,-8.05
569,0.68,-0.71,0.04,0.31,-0.36,-0.87,2.34,0.46,-8.1
570,0.79,-0.43,0.49,0.36,-0.41,-1.15,2.46,0.45,-8.17
571,-0.21,-0.44,0.74,1.03,-0.52,-0.8,2.28,0.37,-8.07
572,-0.79,0.11,0.78,1.06,-0.66,-0.3,2.46,0.34,-8.1
573,-1.61,-0.24,1.22,1.25,-0.73,0.58,2.37,0.43,-8.08
574,-1.86,-0.58,0.45,1.17,-0.64,1.38,2.43,0.42,-8.05
575,-1.53,-1.5,-0.62,0.68,-0.48,2.59,2.34,0.36,-7.92
576,1.43,2.78,1.58,-0.31,0.37,4.02,2.56,0.45,-8.07
577,-0.84,-1.65,0.3,-1.7,1.68,1.57,2.49,0.49,-8.02
578,-1.51,-2.34,0.47,-0.01,0.28,1.53,2.38,0.34,-8.02
579,-0.46,0.49,1.89,-0.12,0.39,-0.39,2.46,0.4,-8.02
580,-1.91,-1.16,1.39,0.17,0.27,-1.46,2.4,0.43,-8.01
581,-1.61,-0.27,0.0,1.07,-0.52,-1.62,2.46,0.37,-8.1
582,-0.42,0.56,0.7,0.67,-0.52,-1.66,2.59,0.39,-8.01
583,0.19,0.01,0.44,1.08,-0.5,-1.44,2.5,0.43,-8.02
584,0.55,-0.13,-0.9,1.44,-0.65,-1.02,2.55,0.46,-7.96
585,1.63,1.16,-0.79,1.78,-0.95,0.22,2.58,0.45,-7.87
586,2.07,0.28,-1.3,1.09,0.67,1.66,2.56,0.42,-7.96
587,0.58,-2.96,-2.64,0.98,-0.1,2.79,2.46,0.34,-7.95
588,0.0,-2.45,-2.45,1.8,-0.57,3.17,2.52,0.34,-8.08
589,1.3,1.51,-0.42,-0.37,0.02,3.64,2.61,0.31,-8.01
590,-0.17,-1.0,0.09,-1.17,0.69,1.44,2.55,0.37,-8.02
591,-1.11,-1.42,-0.66,-0.13,-0.66,1.06,2.58,0.36,-8.13
592,-0.09,0.67,-0.65,-0.18,-0.28,-0.33,2.58,0.33,-8.07
593,-0.01,-0.16,-0.63,0.15,-0.17,-0.93,2.49,0.37,-8.02
594,0.68,-0.05,-0.88,0.39,-0.48,-1.08,2.5,0.3,-8.1
595,1.1,0.1,-0.83,0.38,-0.27,-1.21,2.5,0.25,-8.02
596,0.93,-0.23,-1.04,0.95,-0.55,-0.99,2.47,0.36,-8.08
597,1.16,0.44,-0.93,1.28,-0.58,-0.66,2.43,0.25,-8.05
598,0.67,0.46,-0.97,1.64,-0.5,-0.03,2.44,0.39,-8.05
599,0.37,0.63,-0.8,1.15,-0.04,1.03,2.43,0.4,-8.05
600,-0.86,-1.03,-0.67,1.14,0.39,2.21,2.44,0.31,-8.07
601,-0.21,0.84,0.28,0.69,0.04,4.51,2.52,0.3,-8.1
602,0.79,3.3,1.2,-1.06,2.03,2.73,2.46,0.37,-7.93
603,-2.87,-1.97,1.02,-1.4,1.44,1.5,2.35,0.6,-8.01
604,-2.45,0.09,0.75,-0.36,0.4,1.25,2.47,0.52,-8.02
605,-2.56,-0.08,0.72,-0.44,0.5,-0.6,2.44,0.49,-7.89
606,-3.4,-1.61,0.46,0.56,-0.22,-1.04,2.43,0.45,-7.95
607,-2.2,0.4,0.49,0.7,-0.46,-1.56,2.52,0.45,-7.86
608,-1.56,0.54,0.13,0.74,-0.69,-1.5,2.67,0.52,-7.96
609,-0.67,0.61,-0.81,1.07,-0.71,-0.96,2.65,0.55,-7.81
610,0.74,0.7,-1.47,1.05,-0.87,-0.03,2.7,0.51,-7.83
611,1.66,-0.29,-1.75,1.32,-0.77,0.65,2.74,0.52,-7.86
612,1.86,-0.77,-1.65,1.24,-0.52,1.17,2.61,0.52,-7.72
613,1.26,-1.12,-1.5,1.08,0.02,1.88,2.71,0.51,-7.81
614,0.0,-1.88,-1.57,0.96,-0.53,2.93,2.64,0.43,-7.95
615,1.93,2.76,0.78,-0.92,-0.25,3.17,2.62,0.49,-7.81
616,0.16,-0.33,1.34,-1.67,0.61,1.79,2.68,0.55,-7.71
617,-0.2,-0.37,-0.11,-1.21,-0.71,1.73,2.67,0.78,-7.77
618,-0.6,-0.67,-0.14,-0.96,0.06,-0.06,2.56,0.64,-7.69
619,-2.21,-1.81,-0.59,-0.06,-0.46,-0.84,2.52,0.7,-7.78
620,-1.93,0.1,-0.53,0.21,-0.71,-1.48,2.64,0.79,-7.75
621,-1.67,0.3,-0.13,0.21,-0.81,-1.76,2.67,0.72,-7.75
622,-0.65,0.27,0.18,1.01,-1.35,-1.01,2.73,0.73,-7.66
623,0.39,0.25,0.25,1.19,-1.67,-0.3,2.74,0.81,-7.62
624,1.14,-0.08,0.69,0.9,-1.12,0.72,2.76,0.81,-7.57
625,1.0,-1.95,0.46,0.58,-0.61,1.59,2.76,0.82,-7.66
626,0.93,-3.32,-0.67,0.55,-0.38,2.81,2.67,0.81,-7.63
627,3.12,-0.64,1.07,0.16,-0.06,4.07,2.65,0.7,-7.75
628,1.27,-1.76,0.14,-0.76,1.6,1.1,2.61,0.82,-7.78
629,-1.22,-1.45,-0.7,-0.01,0.26,1.26,2.52,0.72,-7.71
630,-1.17,1.61,1.04,-0.37,0.26,-0.3,2.55,0.91,-7.8
631,-2.94,0.35,1.26,0.01,0.12,-1.25,2.56,0.87,-7.65
632,-3.21,1.09,-0.5,0.78,-0.53,-1.6,2.61,0.88,-7.45
633,-1.95,1.75,-0.65,0.71,-0.78,-1.39,2.58,0.94,-7.5
634,0.25,0.7,-0.46,0.67,-0.59,-1.26,2.71,1.05,-7.45
635,0.7,0.19,-1.51,1.08,-0.51,-0.59,2.73,1.12,-7.44
636,1.02,0.5,-1.96,1.34,-0.52,0.14,2.82,1.09,-7.38
637,1.0,0.35,-1.91,1.84,-0.52,0.99,2.68,1.15,-7.39
638,0.57,-0.51,-1.73,1.45,-0.18,2.16,2.65,1.14,-7.5
639,0.5,-1.0,-1.71,1.21,-0.01,2.5,2.65,1.15,-7.5
640,-0.64,-1.53,-2.98,0.91,-0.93,4.03,2.64,1.11,-7.65
641,0.63,1.39,0.18,-1.29,0.2,2.56,2.67,1.15,-7.54
642,-2.34,-1.98,0.63,-1.18,-0.33,1.11,2.68,1.2,-7.54
643,-0.45,0.16,-0.1,-0.86,-0.96,0.25,2.62,1.17,-7.47
644,1.72,-0.56,-0.32,-0.82,0.17,-0.88,2.59,1.21,-7.57
645,-0.6,-0.74,-0.04,-0.04,0.04,-1.44,2.47,1.23,-7.66
646,0.18,-0.13,0.09,0.66,-0.56,-1.41,2.44,1.29,-7.68
647,-0.18,1.36,0.88,1.12,-0.61,-1.07,2.41,1.24,-7.51
648,-0.7,0.73,1.02,1.11,-0.91,-0.3,2.28,1.23,-7.59
649,-0.7,0.63,0.77,1.65,-1.18,0.43,2.29,1.24,-7.53
650,-0.4,-0.07,0.87,1.51,-1.01,1.45,2.2,1.27,-7.59
651,-0.57,-2.05,-0.04,1.14,-0.81,2.2,2.14,1.2,-7.59
652,-0.3,-3.63,-1.44,1.45,-1.3,2.77,2.02,1.05,-7.56
653,1.4,-3.38,-0.86,1.08,-1.22,4.01,2.13,0.84,-7.71
654,2.0,-0.18,-0.09,-0.88,-0.07,2.14,2.02,0.88,-7.65
655,-0.93,-2.52,0.14,-1.07,0.14,1.15,1.99,0.79,-7.69
656,-0.16,-1.4,1.31,0.06,-0.13,0.09,1.96,0.7,-7.62
657,-0.05,-0.01,1.7,0.16,0.32,-1.57,1.99,0.79,-7.57
658,-0.75,-0.67,0.77,0.88,0.24,-2.24,1.87,0.84,-7.56
659,-0.26,0.39,0.27,1.87,-0.18,-2.06,1.84,0.66,-7.53
660,-0.02,2.27,-0.03,1.38,-0.18,-1.23,1.95,0.82,-7.45
661,-0.34,1.61,-0.72,1.24,0.11,-0.74,1.83,0.87,-7.45
662,-0.18,0.31,-0.75,1.93,-0.49,0.22,1.96,0.85,-7.3
663,0.61,1.04,-0.36,1.4,-0.12,1.09,2.02,0.84,-7.42
664,0.29,-0.28,-0.28,0.35,0.58,2.44,1.95,0.96,-7.32
665,-2.31,-4.22,-2.41,1.28,0.15,2.76,1.99,0.91,-7.33
666,0.44,-2.82,-3.11,2.9,-1.89,3.11,2.14,0.54,-7.47
667,1.4,2.1,0.81,-1.2,-0.03,1.31,2.2,0.66,-7.45
668,-2.35,-0.18,1.14,0.25,-0.52,1.69,2.16,0.78,-7.45
669,1.01,1.51,0.66,-0.16,-0.19,0.82,2.2,0.78,-7.47
670,0.44,-0.91,0.52,-0.23,0.4,-1.17,2.17,0.67,-7.62
671,-0.49,-0.87,0.52,1.16,-0.45,-1.73,2.16,0.7,-7.66
672,1.09,0.86,0.71,0.88,-0.24,-2.13,2.25,0.69,-7.68
673,0.67,1.18,1.11,1.34,-0.65,-1.35,2.16,0.63,-7.6
674,0.49,1.91,0.91,1.7,-0.65,-0.49,2.17,0.76,-7.68
675,-0.55,0.95,0.25,1.24,-0.37,0.88,2.13,0.72,-7.68
676,-0.79,-0.69,-0.07,1.04,-0.13,2.24,2.19,0.79,-7.75
677,0.52,-0.89,0.15,1.21,-0.28,4.01,2.22,0.79,-7.8
678,1.75,-1.26,-0.7,0.49,0.63,4.35,2.16,0.64,-7.87
679,2.26,0.0,0.38,-0.91,0.86,2.02,2.17,0.63,-7.87
680,0.05,-1.55,1.16,-1.09,0.95,0.99,2.22,0.66,-7.96
681,-0.16,0.44,0.59,-0.26,0.52,0.4,2.16,0.69,-8.05
682,-1.64,0.12,1.26,-0.4,0.61,-0.87,2.25,0.72,-8.11
683,-3.37,-0.04,0.4,0.86,0.16,-1.54,2.26,0.64,-8.1
684,-2.75,1.32,0.03,0.91,-0.21,-1.84,2.28,0.66,-8.16
685,-2.22,0.77,-0.04,1.02,-0.52,-1.59,2.38,0.69,-8.02
686,-0.16,1.24,-0.3,1.21,-0.3,-0.83,2.47,0.76,-8.02
687,0.75,-0.18,-0.77,1.3,-0.42,-0.03,2.53,0.73,-8.02
688,1.14,-2.1,-0.98,1.39,-0.43,1.73,2.62,0.79,-8.17
689,1.21,-2.59,-1.45,1.13,-0.47,3.27,2.58,0.6,-8.14
690,-0.51,-3.2,-1.82,1.57,-0.67,2.95,2.67,0.52,-8.2
691,0.93,2.08,-0.81,-0.08,-0.21,4.22,2.71,0.52,-8.28
692,-0.32,0.43,1.52,-1.4,0.52,1.05,2.77,0.55,-8.22
693,-0.67,0.11,-0.18,0.24,-0.41,0.92,2.68,0.57,-8.28
694,0.77,0.54,-0.21,-0.83,0.31,-0.34,2.64,0.6,-8.31
695,-0.02,-2.47,0.31,-0.11,0.3,-1.3,2.68,0.6,-8.35
696,-0.23,-1.04,0.25,0.85,-0.06,-1.46,2.65,0.49,-8.37
697,-0.77,0.56,1.01,0.7,0.12,-1.68,2.7,0.6,-8.41
698,-1.7,0.26,1.47,1.1,-0.28,-0.92,2.79,0.39,-8.32
699,-1.81,0.58,1.95,1.3,-0.64,-0.17,2.74,0.48,-8.25
700,-1.15,0.47,2.14,0.71,-0.55,0.97,2.83,0.52,-8.29
701,-0.56,-1.14,1.28,0.48,-0.34,2.84,2.77,0.46,-8.28
702,-0.2,-2.64,0.07,0.53,-1.3,5.11,2.8,0.42,-8.31
703,3.19,1.99,3.1,-1.05,0.73,2.14,2.79,0.46,-8.32
704,-0.75,-3.09,1.63,0.26,0.48,0.52,2.76,0.39,-8.47
705,0.22,1.28,1.71,0.74,-0.24,0.24,2.77,0.49,-8.47
706,0.14,1.71,2.41,-0.1,0.4,-1.35,2.76,0.49,-8.41
707,-1.91,-1.37,1.44,0.8,0.01,-1.47,2.65,0.46,-8.26
708,-0.42,0.47,0.28,0.93,-0.54,-1.56,2.73,0.48,-8.29
709,0.34,0.37,0.69,0.89,-0.02,-1.4,2.64,0.49,-8.2
710,0.51,-0.46,-0.48,1.26,0.05,-0.78,2.73,0.49,-8.25
711,1.14,-0.3,-0.69,1.49,-0.1,0.21,2.64,0.45,-8.25
712,1.8,-0.22,-0.31,1.39,0.24,1.21,2.76,0.37,-8.29
713,0.88,-2.12,-1.0,0.84,0.64,2.91,2.76,0.48,-8.31
714,-0.04,-2.89,-1.34,1.8,0.28,2.95,2.62,0.42,-8.34
715,1.3,0.61,-0.58,0.18,-0.13,3.66,2.68,0.33,-8.34
716,0.98,-0.36,0.93,-0.76,0.58,1.29,2.68,0.34,-8.41
717,0.07,-1.72,0.17,0.08,-0.39,1.33,2.58,0.21,-8.38
718,1.18,0.66,0.57,-0.36,0.2,0.44,2.59,0.28,-8.38
719,-0.14,-0.82,0.56,-0.19,0.38,-0.74,2.59,0.25,-8.34
720,-1.79,-0.78,0.49,0.78,-0.2,-1.2,2.68,0.18,-8.41
721,-1.93,1.29,0.51,0.79,-0.26,-1.85,2.56,0.33,-8.32
722,-2.48,0.93,1.06,1.28,-0.9,-1.61,2.68,0.39,-8.4
723,-2.12,0.8,1.54,1.44,-1.01,-0.82,2.73,0.36,-8.37
724,-0.71,1.66,2.36,0.88,-1.08,0.71,2.7,0.31,-8.22
725,0.06,-0.28,1.49,0.6,-1.0,2.01,2.79,0.49,-8.23
726,-0.08,-2.74,-0.72,0.77,-0.46,2.73,2.74,0.3,-8.29
727,0.16,-1.59,-2.1,1.71,-1.59,4.61,2.76,0.31,-8.32
728,1.44,2.62,1.36,-0.76,0.55,1.83,2.85,0.34,-8.26
729,-2.14,-1.77,0.15,-0.86,0.25,1.41,2.71,0.31,-8.29
730,-1.2,0.14,0.86,-0.24,-0.13,0.41,2.74,0.24,-8.25
731,-1.42,-0.51,1.28,-0.22,0.17,-1.24,2.85,0.36,-8.17
732,-2.07,-1.22,0.97,0.6,-0.37,-1.8,2.82,0.28,-8.25
733,-1.28,0.75,0.41,1.18,-0.56,-2.02,2.92,0.3,-8.2
734,-0.27,1.32,0.72,1.12,-0.72,-1.42,2.97,0.31,-8.14
735,0.75,0.81,0.53,1.12,-0.33,-0.86,2.95,0.31,-8.14
736,1.09,-0.13,-0.21,1.65,-0.58,0.0,2.91,0.34,-8.01
737,1.3,-0.44,-1.28,1.66,-0.71,1.63,3.01,0.33,-8.19
738,1.25,-2.39,-1.43,0.83,-0.29,2.74,3.01,0.15,-8.19
739,0.81,-2.87,-2.77,1.79,-0.61,4.17,2.92,0.22,-8.19
740,3.14,2.05,0.7,-1.14,0.08,3.66,2.86,0.18,-8.14
741,-0.02,-1.77,2.0,-1.49,0.61,1.51,2.85,0.24,-8.19
742,-0.74,-1.34,-0.67,0.13,-0.74,1.48,2.85,0.39,-8.11
743,0.31,-0.18,-0.09,-0.61,-0.09,-0.55,2.77,0.24,-8.1
744,-1.41,-2.2,-0.2,-0.01,-0.05,-1.54,2.91,0.24,-8.04
745,-1.96,-1.25,-0.92,0.84,-0.47,-1.94,2.82,0.24,-8.05
746,-1.21,0.77,-0.49,0.77,-0.43,-1.85,2.89,0.27,-7.96
747,-1.19,0.63,0.35,1.5,-0.69,-1.17,2.97,0.21,-7.96
748,-0.39,0.44,0.16,1.32,-0.48,-0.1,3.07,0.25,-7.93
749,-0.08,0.26,-0.81,1.68,-0.78,1.27,3.06,0.24,-7.84
750,0.0,-0.37,0.52,1.46,-0.65,1.38,3.13,0.22,-7.87
751,-0.09,-1.33,-0.59,1.49,-0.64,2.71,3.12,0.25,-7.86
752,1.61,0.21,0.6,0.44,-0.86,3.63,3.27,0.24,-7.87
753,1.09,0.25,1.72,-0.49,0.46,1.63,3.18,0.34,-7.8
754,-1.25,-0.86,0.74,-0.25,0.12,1.13,3.09,0.4,-7.81
755,-0.7,0.6,1.45,0.05,-0.08,0.1,3.15,0.49,-7.77
756,-1.35,-0.16,1.65,0.33,0.0,-1.1,3.07,0.6,-7.83
757,-1.63,0.12,0.26,0.88,-0.31,-1.25,3.15,0.72,-7.66
758,-0.91,0.91,0.09,0.96,-0.53,-1.54,3.18,0.72,-7.71
759,0.44,0.74,-0.11,1.16,-0.37,-0.83,3.16,0.93,-7.74
760,1.67,0.43,-0.43,0.87,-0.14,-0.5,3.27,1.03,-7.86
761,1.82,-0.52,-0.88,1.27,-0.35,0.15,3.1,1.08,-7.74
762,1.53,-0.53,-1.23,1.5,-0.49,0.96,3.03,1.06,-7.83
763,1.61,0.1,-1.11,0.44,-0.17,2.45,2.92,1.18,-7.95
764,-0.3,-1.76,-1.07,1.03,-0.68,3.96,2.74,1.2,-8.02
765,1.45,2.71,0.8,-0.27,-0.34,3.77,2.74,1.27,-7.92
766,-0.99,-1.18,0.0,-1.5,0.69,1.68,2.61,1.41,-8.19
767,-1.54,-1.68,-0.77,0.16,-0.72,1.28,2.41,1.26,-8.16
768,0.2,0.37,-0.17,-0.14,-0.29,-0.27,2.32,1.32,-8.2
769,-0.11,-1.56,-0.27,-0.22,-0.1,-1.26,2.32,1.29,-8.29
770,-0.28,-1.7,-0.42,0.7,-0.32,-1.21,2.2,1.17,-8.46
771,-0.07,-0.81,-0.71,0.62,-0.4,-1.42,2.07,1.02,-8.46
772,-0.53,-0.91,-0.46,1.08,-0.55,-0.98,2.05,1.12,-8.61
773,-0.58,-0.45,-0.25,1.47,-0.77,-0.52,1.99,0.97,-8.53
774,-0.44,0.22,0.46,1.17,-0.44,0.51,1.84,0.96,-8.55
775,-0.5,-0.16,0.88,0.92,-0.2,1.01,1.72,0.87,-8.64
776,-0.93,-0.8,0.27,1.26,-0.4,1.96,1.65,0.76,-8.68
777,0.66,2.29,1.38,0.53,-0.21,3.63,1.69,0.75,-8.53
778,0.67,2.64,1.07,-0.12,1.3,2.41,1.66,0.64,-8.5
779,-1.97,-1.47,-0.07,-0.54,0.42,1.85,1.62,0.37,-8.55
780,-0.56,0.57,0.91,0.12,0.41,0.9,1.68,0.48,-8.53
781,-1.38,-0.93,0.86,-0.09,0.46,-0.74,1.84,0.36,-8.5
782,-2.07,-1.77,0.77,0.71,0.0,-1.31,2.01,0.28,-8.52
783,-1.48,-0.35,0.88,1.07,-0.36,-1.78,2.17,0.18,-8.44
784,-0.79,0.18,0.82,1.03,-0.37,-1.27,2.35,0.31,-8.34
785,-0.28,0.09,0.49,1.23,-0.58,-0.18,2.55,0.28,-8.38
786,-0.42,-0.75,-0.26,1.67,-0.54,0.52,2.65,0.34,-8.29
787,0.35,-0.23,-0.79,1.57,-0.71,0.88,2.68,0.37,-8.35
788,1.09,-0.44,-0.49,0.92,-0.77,2.63,2.73,0.46,-8.28
789,0.15,-2.8,-0.82,1.04,-0.57,3.12,2.82,0.51,-8.29
790,1.58,1.67,0.28,-0.18,-0.28,3.3,2.67,0.57,-8.32
791,-0.43,-0.67,0.01,-0.79,0.27,1.07,2.74,0.7,-8.25
792,-1.92,-1.36,-1.04,0.47,-0.88,0.76,2.65,0.67,-8.17
793,-0.17,1.02,-0.25,-0.04,-0.77,0.01,2.73,0.64,-8.05
794,0.16,-1.05,0.48,-0.1,-0.49,-0.82,2.88,0.66,-8.04
795,0.23,-1.67,-0.02,0.69,-0.48,-1.21,2.8,0.55,-7.99
796,-0.14,-1.3,-0.7,0.98,-0.85,-1.29,2.89,0.45,-8.01
797,0.15,0.31,0.7,1.38,-0.69,-1.27,2.91,0.39,-7.98
798,-0.16,0.75,2.2,1.39,-1.06,-0.53,2.88,0.28,-7.77
799,-0.76,0.64,1.73,1.83,-0.44,0.67,2.77,0.27,-7.81
800,-0.31,-0.28,1.28,0.96,-0.42,1.33,2.73,0.22,-7.77
801,-0.76,-2.25,-0.72,1.71,-1.14,2.39,2.56,0.24,-7.78
802,1.31,0.59,-0.16,1.33,-2.36,4.11,2.58,0.3,-7.75
803,1.83,1.44,2.02,-0.48,1.01,2.31,2.49,0.34,-7.8
804,-1.02,-2.49,-0.56,-0.13,0.24,1.26,2.35,0.48,-7.84
805,-0.11,0.18,1.33,0.52,0.14,-0.06,2.43,0.39,-7.89
806,-0.72,0.16,1.65,0.56,0.18,-1.25,2.38,0.51,-7.87
807,-1.14,0.23,1.44,1.05,-0.18,-1.3,2.46,0.51,-7.8
808,-0.65,0.94,1.2,0.79,-0.18,-1.52,2.34,0.57,-7.87
809,-0.75,0.02,0.93,1.02,-0.5,-1.1,2.43,0.58,-7.81
810,0.07,0.53,0.38,1.44,-0.83,-0.22,2.4,0.55,-7.75
811,0.67,0.14,-0.56,1.41,-0.81,0.59,2.37,0.54,-7.77
812,0.98,-1.57,-1.33,1.5,-1.08,2.24,2.31,0.54,-7.69
813,1.98,-2.47,-1.52,0.78,-0.37,2.74,2.35,0.55,-7.84
814,0.84,-3.29,-2.03,1.09,-0.91,3.84,2.22,0.45,-7.93
815,2.26,1.42,-0.65,-0.77,0.41,2.53,2.25,0.49,-7.87
816,-0.94,-1.89,-1.09,-0.31,0.31,0.5,2.11,0.52,-7.87
817,-2.05,-0.3,-1.04,0.94,-0.54,0.16,2.14,0.37,-7.93
818,-1.35,1.96,-0.6,0.42,-0.2,-0.83,2.14,0.57,-7.9
819,-1.48,0.69,-0.16,0.59,-0.41,-1.15,2.22,0.55,-7.75
820,-1.07,0.95,-0.14,0.68,-0.6,-1.15,2.28,0.57,-7.78
821,-0.85,0.6,-0.21,0.7,-1.0,-1.01,2.34,0.63,-7.65
822,-0.27,0.23,-0.11,1.45,-1.19,-0.29,2.31,0.58,-7.68
823,0.5,-0.7,-0.39,1.79,-1.11,0.36,2.31,0.63,-7.74
824,1.61,-1.27,-0.23,1.61,-0.93,1.12,2.35,0.64,-7.84
825,1.12,-2.1,-0.49,1.6,-0.35,1.98,2.31,0.55,-7.87
826,0.44,-2.36,-0.81,0.9,-0.14,2.87,2.26,0.52,-7.83
827,0.86,-0.05,0.28,0.34,-0.02,2.74,2.29,0.42,-7.86
828,-0.86,0.01,1.06,-0.06,0.41,1.02,2.2,0.49,-7.9
829,-2.01,0.63,0.93,0.27,0.12,0.87,2.26,0.55,-7.92
830,-1.07,2.39,2.05,0.13,-0.05,0.13,2.19,0.54,-7.89
831,-1.75,0.09,0.9,0.43,0.0,-0.74,2.28,0.66,-7.8
832,-1.79,-0.6,-0.23,1.09,-0.6,-1.23,2.26,0.61,-7.77
833,-0.79,-0.09,-0.53,1.22,-0.65,-1.65,2.26,0.57,-7.81
834,0.0,-0.21,-0.07,1.36,-0.62,-1.26,2.37,0.63,-7.74
835,1.13,-0.04,-0.64,1.49,-0.31,-0.57,2.46,0.54,-7.69
836,1.3,-0.51,-1.06,1.33,-1.55,0.25,2.38,0.58,-7.81
837,0.83,-1.28,-1.47,2.02,-0.08,1.62,2.38,0.52,-7.75
838,0.44,-1.1,-1.01,1.26,-0.04,3.06,2.26,0.55,-7.84
839,-0.32,-1.32,-1.05,1.62,-0.39,3.39,2.23,0.46,-7.89
840,0.32,0.84,0.44,-0.55,-0.05,2.38,2.31,0.51,-7.89
841,-1.53,-0.82,0.26,0.12,-0.35,1.2,2.28,0.45,-7.83
842,-1.16,0.45,-0.08,0.41,-0.84,0.8,2.28,0.49,-7.87
843,0.0,0.57,0.75,0.02,-0.57,-0.08,2.38,0.49,-7.75
844,0.26,-0.6,1.31,0.38,-0.41,-0.92,2.26,0.45,-7.71
845,-0.35,-0.14,0.37,1.05,-0.56,-1.12,2.32,0.49,-7.84
846,-1.4,0.42,0.19,1.51,-1.16,-0.75,2.35,0.45,-7.74
847,-1.75,0.26,0.31,1.8,-1.22,-0.27,2.32,0.51,-7.75
848,-0.91,-0.58,0.86,1.29,-1.29,0.21,2.35,0.39,-7.86
849,-0.18,-1.94,1.14,1.07,-0.99,0.65,2.31,0.39,-7.74
850,0.02,-2.13,0.08,1.17,-0.72,1.55,2.26,0.33,-7.86
851,0.72,-1.69,-0.47,0.4,-0.78,2.22,2.28,0.39,-7.86
852,1.98,1.3,0.91,0.75,-0.53,2.69,2.22,0.24,-7.87
853,-0.59,0.17,-0.81,-0.3,0.73,2.03,2.17,0.28,-7.8
854,-1.36,-0.52,-0.69,0.11,0.09,2.07,2.11,0.3,-7.89
855,-1.02,0.03,1.05,0.57,0.36,-0.48,2.16,0.3,-7.83
856,-0.66,-1.12,0.18,0.97,-0.36,-1.79,2.14,0.27,-7.84
857,-0.48,-0.42,-0.54,1.77,-0.34,-2.31,2.22,0.24,-7.81
858,-0.88,1.67,-0.09,1.62,-0.35,-1.57,2.22,0.25,-7.8
859,-0.81,1.31,-0.59,1.38,-0.44,-0.96,2.13,0.33,-7.84
860,1.0,-0.51,-0.72,1.46,-0.45,0.03,2.16,0.37,-7.83
861,1.54,-0.64,-1.56,1.89,-0.36,0.95,2.17,0.39,-7.84
862,1.54,-0.3,-1.63,1.34,-0.09,2.2,2.13,0.36,-7.86
863,1.13,0.02,-1.72,0.96,-0.27,2.98,2.11,0.37,-7.81
864,0.92,0.84,-1.91,-0.62,-0.28,4.01,2.19,0.4,-7.84
865,0.53,-1.49,-0.76,-0.42,-0.12,1.45,2.11,0.45,-7.86
866,0.71,-2.7,-1.4,0.58,-0.16,0.8,2.07,0.36,-7.83
867,0.5,0.46,-0.44,0.53,-0.01,0.07,2.04,0.33,-7.86
868,-1.09,0.98,0.18,-0.08,0.18,-0.97,2.11,0.42,-7.92
869,-1.91,-0.16,0.3,0.42,-0.05,-1.16,2.05,0.43,-7.8
870,-0.55,-0.73,0.07,1.31,-0.32,-1.67,2.11,0.42,-7.93
871,-0.32,0.31,0.67,1.13,-0.71,-0.82,2.08,0.36,-7.89
872,-1.78,0.29,0.36,1.76,-0.32,-0.56,2.1,0.36,-7.9
873,-0.14,0.63,1.18,1.8,-0.81,0.11,2.1,0.46,-7.87
874,0.88,0.39,2.14,1.15,-0.5,0.97,2.13,0.45,-7.87
875,0.04,-1.58,0.68,0.51,-0.3,2.58,2.05,0.4,-7.92
876,1.7,1.72,1.98,0.29,-0.61,4.32,2.05,0.46,-7.92
877,1.15,1.65,2.1,-0.66,0.9,1.99,1.96,0.6,-7.95
878,-0.72,-0.48,-0.03,-0.13,0.19,1.65,1.98,0.61,-8.04
879,0.31,1.65,0.31,-0.02,0.17,0.55,1.96,0.61,-7.99
880,-1.18,-0.74,0.86,-0.07,0.2,-0.98,1.87,0.69,-7.98
881,-2.24,-1.74,0.33,0.98,-0.28,-1.09,1.87,0.64,-8.01
882,-1.37,0.19,0.37,1.21,-0.47,-1.23,1.95,0.7,-8.04
883,-0.67,0.21,0.71,0.96,-0.33,-0.96,1.96,0.75,-7.99
884,-0.11,-0.3,0.09,1.15,-0.25,-0.47,1.95,0.82,-8.08
885,0.77,-0.05,-1.27,1.13,-0.33,0.56,1.89,0.87,-8.11
886,0.82,-1.35,-1.66,0.77,-0.29,1.96,1.87,0.88,-8.1
887,1.03,-2.73,-1.62,0.38,-0.08,2.57,1.84,0.79,-8.19
888,1.04,-1.7,-1.72,1.12,-0.81,3.77,1.86,0.73,-8.2
889,1.65,1.08,-0.44,-0.74,0.42,2.56,1.83,0.73,-8.2
890,-0.95,-2.07,-1.3,-0.19,-0.09,1.31,1.72,0.87,-8.37
891,0.11,0.56,-0.41,0.09,-0.66,1.06,1.68,0.73,-8.23
892,0.04,0.44,0.68,-0.28,0.21,-0.59,1.75,0.75,-8.19
893,-1.34,-0.85,-0.12,0.46,-0.25,-1.1,1.6,0.78,-8.32
894,-1.44,0.88,-0.2,0.73,-0.56,-1.27,1.6,0.81,-8.38
895,-1.44,1.01,0.1,0.6,-0.69,-1.27,1.6,0.78,-8.26
896,-1.44,-0.18,0.49,1.31,-0.95,-0.96,1.57,0.84,-8.22
897,-0.84,0.22,0.57,1.65,-1.1,-0.27,1.63,0.78,-8.4
898,-0.39,0.51,0.76,1.31,-0.72,0.45,1.5,0.78,-8.26
899,-0.01,-0.3,0.74,0.65,-0.44,1.57,1.53,0.73,-8.2
900,-0.11,-1.89,-0.6,0.44,-0.47,3.51,1.5,0.7,-8.34
901,1.54,0.82,1.61,-0.79,0.33,3.35,1.36,0.69,-8.32
902,-0.26,-0.39,-0.16,-0.67,0.66,2.3,1.35,0.72,-8.16
903,-0.43,0.1,0.07,-0.7,0.32,1.35,1.38,0.7,-8.19
904,-0.47,0.3,1.7,-0.21,0.38,-0.34,1.36,0.73,-8.08
905,-1.41,-0.28,1.36,0.49,-0.06,-1.09,1.47,0.75,-8.14
906,-1.18,0.18,0.49,0.72,-0.31,-1.36,1.5,0.73,-8.05
907,-0.8,-0.68,-0.09,0.98,-0.64,-1.41,1.48,0.67,-7.96
908,0.51,-0.33,-0.16,1.22,-0.53,-1.06,1.57,0.69,-7.89
909,0.74,-1.15,-0.3,1.33,-0.32,-0.67,1.72,0.7,-7.83
910,0.77,-0.91,-1.46,1.7,-0.42,0.29,1.74,0.6,-7.87
911,0.7,-1.12,-0.63,1.5,-0.19,1.1,1.69,0.64,-7.69
912,0.09,-1.8,-1.24,0.88,0.14,2.24,1.6,0.6,-7.65
913,-0.71,-1.73,-1.46,0.77,-0.92,4.34,1.68,0.58,-7.65
914,0.48,1.21,0.78,-0.78,0.56,2.67,1.86,0.6,-7.45
915,-1.72,-2.21,-0.86,0.02,-0.12,1.52,1.68,0.63,-7.44
916,-0.1,0.79,0.6,0.25,-0.68,0.71,1.87,0.64,-7.48
917,0.81,1.05,1.35,-0.39,-0.13,-0.15,1.86,0.7,-7.44
918,0.1,-0.6,0.28,0.31,-0.18,-0.46,1.83,0.72,-7.33
919,-0.21,-0.08,0.21,0.74,-0.39,-1.19,1.74,0.7,-7.12
920,-0.44,0.7,0.25,1.13,-0.61,-1.3,1.81,0.73,-7.2
921,-0.54,1.34,1.5,1.26,-0.87,-0.64,1.69,0.69,-6.99
922,-0.95,0.16,1.33,1.65,-1.0,-0.16,1.71,0.78,-6.85
923,-0.36,0.21,2.09,1.4,-0.96,0.73,1.71,0.64,-6.73
924,-0.65,-1.68,1.59,0.88,-0.39,1.49,1.81,0.72,-6.67
925,0.05,-2.34,1.18,0.03,-0.59,3.05,1.69,0.69,-6.63
926,1.94,2.03,2.52,-0.03,0.18,2.9,1.72,0.69,-6.46
927,-0.63,-0.46,0.0,-1.17,0.68,0.92,1.77,0.66,-6.52
928,-0.89,0.38,0.49,-0.35,-0.4,0.73,1.6,0.72,-6.45
929,-0.63,2.46,1.74,0.04,0.05,-0.44,1.63,0.73,-6.4
930,-1.47,1.01,0.42,-0.04,-0.16,-0.69,1.56,0.66,-6.24
931,-0.68,0.24,0.53,0.38,-0.68,-0.89,1.69,0.75,-6.31
932,0.41,-0.01,0.67,0.5,-0.5,-0.82,1.66,0.69,-6.27
933,0.7,-0.7,0.02,0.89,-0.31,-0.57,1.66,0.67,-6.31
934,0.95,-0.42,-0.62,1.23,-0.23,-0.74,1.69,0.6,-6.3
935,0.97,-0.23,-1.05,1.38,-0.2,0.07,1.77,0.66,-6.31
936,1.32,0.21,-0.58,0.9,-0.3,1.36,1.8,0.64,-6.39
937,0.72,-0.86,-0.51,0.36,-0.09,2.87,1.87,0.6,-6.36
938,-0.99,-3.4,-2.3,0.37,-1.01,4.32,1.93,0.6,-6.42
939,1.15,0.37,-0.15,-0.73,-0.17,2.9,1.9,0.51,-6.61
940,-0.21,-2.21,-1.53,-0.28,0.01,1.56,1.99,0.57,-6.61
941,-0.31,-0.33,-0.01,0.18,-0.43,0.61,2.14,0.51,-6.76
942,-0.56,0.63,0.16,-0.01,0.0,-0.32,2.13,0.45,-6.66
943,-1.26,-0.52,-0.24,-0.16,-0.08,-0.82,2.13,0.57,-6.72
944,-1.56,-0.91,-0.39,0.47,-0.46,-1.1,2.25,0.46,-6.76
945,-1.22,0.0,-0.1,0.74,-0.73,-1.25,2.26,0.46,-6.81
946,-1.35,-0.33,0.53,1.53,-0.97,-1.2,2.34,0.49,-6.82
947,-1.11,-0.37,1.02,2.03,-1.42,-0.33,2.41,0.58,-6.84
948,-0.23,0.0,2.04,1.16,-1.06,1.08,2.62,0.66,-6.9
949,-0.1,-1.16,1.89,0.5,-0.58,1.85,2.64,0.7,-6.97
950,-0.19,-1.96,0.67,0.67,-0.14,2.8,2.61,0.78,-7.14
951,2.89,2.69,1.7,-0.89,0.54,3.03,2.56,0.91,-7.11
952,-0.37,-1.93,0.25,-1.1,0.96,1.46,2.55,1.0,-7.17
953,-0.4,-0.34,0.09,-0.04,0.02,1.38,2.5,0.93,-7.15
954,0.12,1.46,1.72,-0.22,0.73,-0.46,2.47,1.09,-7.14
955,-1.75,-0.65,1.75,0.41,0.38,-1.39,2.29,1.14,-7.24
956,-2.21,-0.6,1.28,0.98,-0.29,-1.46,2.43,1.14,-7.24
957,-1.02,0.33,2.12,1.04,-0.82,-1.28,2.4,1.18,-7.2
958,-0.34,-0.03,2.2,0.95,-0.53,-0.85,2.38,1.2,-7.29
959,0.43,-0.56,1.56,1.15,-0.44,-0.37,2.29,1.18,-7.3
960,0.61,-0.68,0.49,1.47,-0.53,0.25,2.08,1.21,-7.42
961,0.53,-0.09,-0.42,1.44,-0.44,1.47,2.01,1.27,-7.32
962,-0.77,-1.49,-1.09,0.95,-0.04,2.03,2.02,1.24,-7.47
963,-1.85,-2.11,-0.66,1.18,-0.74,2.85,2.01,1.14,-7.44
964,0.96,2.41,1.68,-0.33,-0.2,3.52,2.1,1.2,-7.5
965,-0.13,-1.34,2.28,-1.24,0.1,1.69,1.96,1.17,-7.5
966,0.15,-1.29,2.94,0.06,-0.87,1.97,2.01,1.15,-7.59
967,1.02,-0.41,3.02,-0.64,0.04,0.27,1.92,1.09,-7.56
968,-0.32,-2.48,2.64,-0.19,0.01,-0.81,1.8,1.18,-7.65
969,-1.33,-1.72,2.37,0.76,-0.53,-1.51,1.75,0.99,-7.66
970,-1.22,0.26,2.65,1.15,-0.79,-1.71,1.72,1.02,-7.69
971,-0.98,0.25,3.78,1.18,-0.99,-1.45,1.65,1.11,-7.77
972,0.14,-0.16,4.24,1.26,-1.31,-0.13,1.53,1.12,-7.63
973,0.16,-0.54,5.26,0.65,-1.03,0.86,1.44,1.09,-7.71
974,-1.07,-1.37,3.29,1.08,-0.9,1.45,1.42,1.11,-7.72
975,-1.44,-1.82,2.31,0.51,-0.54,1.83,1.45,0.99,-7.83
976,0.41,1.01,4.12,1.54,-2.17,3.04,1.35,0.88,-7.65
977,0.96,1.44,4.45,-0.89,1.48,1.31,1.33,1.03,-7.78
978,-0.08,-1.93,3.13,-0.56,-0.22,1.18,1.09,1.09,-7.71
979,0.97,0.22,4.89,0.17,-0.05,0.08,1.15,1.06,-7.77
980,0.04,0.25,4.63,-0.04,0.65,-0.85,1.09,1.0,-7.71
981,-0.65,-0.42,3.62,0.51,-0.05,-0.81,0.91,1.02,-7.71
982,0.04,-0.5,3.9,0.87,-0.26,-0.88,0.9,0.96,-7.74
983,0.44,-0.42,3.88,1.33,-0.44,-0.54,0.93,0.96,-7.69
984,1.21,-0.07,3.4,1.22,-0.38,0.09,0.82,0.99,-7.71
985,1.65,-0.72,2.94,1.35,-0.37,0.71,0.67,0.91,-7.75
986,1.77,-1.48,2.29,1.29,-0.07,1.51,0.57,0.91,-7.78
987,1.56,-2.01,1.68,0.94,0.34,2.22,0.45,0.93,-7.68
988,0.44,-3.01,1.93,1.21,-0.06,2.8,0.36,0.79,-7.87
989,2.18,1.22,3.64,-0.01,0.21,3.24,0.34,0.85,-7.81
990,0.51,-0.77,3.36,-0.71,0.75,1.39,0.22,0.76,-7.74
991,-0.5,-1.14,3.29,0.26,-0.33,1.19,0.13,0.66,-7.84
992,-0.07,0.25,4.21,-0.14,-0.27,0.18,0.0,0.72,-7.84
993,-0.56,-0.93,3.59,0.01,-0.23,-0.52,0.03,0.72,-7.84
994,-0.75,-0.79,3.33,0.59,-0.78,-1.02,-0.06,0.64,-7.87
995,-0.65,0.0,4.09,0.71,-0.49,-1.09,-0.1,0.6,-7.98
996,-0.61,-0.32,2.9,1.13,-0.81,-0.92,-0.15,0.57,-7.95
997,0.03,-0.57,3.09,1.64,-1.15,-0.4,-0.25,0.54,-8.01
998,0.91,-0.4,3.49,1.61,-1.02,0.28,-0.34,0.55,-7.93
999,0.89,-0.84,3.58,1.32,-0.68,0.83,-0.45,0.42,-8.04
1000,0.14,-1.38,2.89,1.14,-0.49,1.52,-0.54,0.39,-7.98
1001,-0.45,-1.51,2.28,0.63,-0.68,2.45,-0.58,0.28,-8.08
1002,0.59,1.72,4.46,0.05,0.33,1.99,-0.6,0.27,-8.01
1003,-1.53,-0.57,2.91,-0.2,0.26,1.78,-0.76,0.18,-8.1
1004,-0.57,0.6,3.55,-0.44,-0.17,1.44,-0.69,0.16,-8.16
1005,-0.57,-0.11,4.03,-0.13,0.12,0.4,-0.7,0.07,-8.04
1006,-1.11,-0.95,1.62,0.24,-0.23,-0.45,-0.94,-0.03,-8.16
1007,-1.05,-1.57,0.97,0.53,-0.7,-1.36,-0.76,-0.03,-8.13
1008,-0.09,-0.6,1.91,1.27,-0.91,-1.2,-0.87,-0.09,-8.25
1009,-0.08,0.1,1.91,1.12,-0.44,-1.16,-0.79,-0.22,-8.23
1010,-0.19,-0.59,1.26,1.8,-0.65,-0.59,-0.94,-0.15,-8.2
1011,0.28,-0.68,0.6,2.06,-0.83,0.46,-0.84,-0.34,-8.26
1012,1.18,-0.51,-0.04,1.87,-0.63,1.35,-0.91,-0.21,-8.17
1013,1.37,-1.07,0.0,1.39,-0.31,2.04,-0.96,-0.3,-8.31
1014,0.25,-2.9,0.37,1.36,-0.68,1.95,-1.05,-0.39,-8.17
1015,1.28,0.82,0.95,0.91,-0.61,2.95,-1.06,-0.48,-8.19
1016,0.27,0.25,0.81,-0.64,-0.12,1.39,-1.09,-0.43,-8.23
1017,-0.27,-0.33,1.26,0.24,-0.78,1.29,-1.17,-0.54,-8.23
1018,0.95,0.72,1.79,-0.05,-0.59,0.34,-1.17,-0.46,-8.19
1019,0.41,-0.88,1.54,-0.06,-0.31,-0.63,-1.18,-0.52,-8.11
1020,-0.59,-1.54,0.51,0.76,-0.64,-1.26,-1.23,-0.54,-8.2
1021,-0.21,0.23,0.89,0.93,-0.93,-1.44,-1.21,-0.67,-8.22
1022,-0.29,-0.24,1.02,1.05,-0.82,-1.44,-1.21,-0.66,-8.17
1023,0.28,-0.25,0.71,1.82,-1.54,-0.52,-1.2,-0.69,-8.13
1024,1.0,0.23,1.45,1.57,-1.09,-0.08,-1.23,-0.73,-8.19
1025,1.24,0.3,1.33,1.31,-0.76,1.11,-1.2,-0.76,-8.1
1026,0.71,-0.84,0.47,1.18,-0.2,2.41,-1.3,-0.85,-8.08
1027,0.05,-2.59,0.65,0.52,0.03,3.01,-1.26,-0.84,-8.07
1028,2.17,1.84,2.95,0.53,0.51,2.57,-1.32,-0.99,-8.1
1029,-1.26,-0.97,1.33,-0.82,1.74,1.2,-1.33,-0.96,-8.11
1030,-0.91,0.82,0.72,0.13,-0.03,1.46,-1.35,-0.94,-8.17
1031,-0.02,1.65,2.89,-0.39,0.12,-0.36,-1.24,-0.93,-8.07
1032,-1.26,-0.92,1.42,0.39,0.17,-1.31,-1.21,-0.99,-8.16
1033,-1.28,-0.4,0.43,0.99,-0.4,-1.94,-1.09,-1.02,-8.28
1034,-0.36,0.84,1.03,1.27,-0.66,-1.18,-1.18,-0.94,-8.23
1035,0.12,0.55,0.44,1.29,-0.36,-0.79,-1.09,-1.0,-8.31
1036,0.51,0.01,0.0,1.46,-0.24,0.22,-1.14,-0.99,-8.41
1037,0.91,-0.19,-0.86,1.81,-0.62,1.17,-1.15,-0.94,-8.26
1038,1.16,-0.98,-0.73,1.67,-0.18,1.78,-1.18,-1.03,-8.35
1039,0.18,-2.31,-0.85,1.39,0.2,2.16,-1.18,-0.93,-8.34
1040,-2.08,-3.33,-1.63,1.98,-0.48,1.64,-1.24,-0.96,-8.4
1041,-0.64,1.62,-0.58,0.94,-0.29,3.91,-1.18,-0.97,-8.46
1042,-0.59,0.39,0.04,-1.39,0.41,1.56,-1.08,-0.91,-8.5
1043,-0.44,-2.32,0.85,0.0,-1.03,1.39,-1.18,-1.08,-8.43
1044,2.05,0.28,1.44,-0.34,0.04,-0.13,-1.03,-0.96,-8.55
1045,1.09,-1.46,0.8,-0.4,0.46,-1.44,-1.15,-0.94,-8.52
1046,-0.01,-1.16,0.93,0.51,0.03,-2.01,-1.15,-1.09,-8.41
1047,-0.36,0.92,0.81,0.98,-0.14,-2.29,-1.2,-1.11,-8.44
1048,-0.37,1.98,1.67,1.07,-0.8,-1.67,-1.14,-1.03,-8.41
1049,0.03,1.79,1.73,1.65,-0.96,-0.64,-1.23,-1.06,-8.49
1050,0.32,1.12,1.44,1.99,-1.16,0.87,-1.08,-1.05,-8.35
1051,0.23,0.06,0.85,1.35,-1.18,2.53,-1.08,-1.06,-8.43
1052,-0.57,-1.85,0.65,1.37,-0.84,3.23,-1.29,-1.14,-8.43
1053,2.14,3.39,1.37,1.19,-1.02,5.6,-1.11,-1.14,-8.37
1054,1.31,1.61,1.25,-1.59,1.96,2.36,-1.17,-1.08,-8.28
1055,-2.44,-5.53,0.4,-1.55,0.82,1.44,-1.21,-1.03,-8.31
1056,-1.05,-2.32,1.12,0.06,0.15,-0.4,-1.21,-1.17,-8.43
1057,-1.57,-0.93,1.61,0.37,0.24,-1.74,-1.12,-1.23,-8.4
1058,-0.39,-1.37,0.38,0.36,-0.31,-2.04,-1.06,-1.3,-8.5
1059,0.0,-0.25,0.54,0.88,-0.43,-1.11,-1.03,-1.33,-8.52
1060,-0.35,0.6,0.55,0.76,-0.09,-1.2,-0.99,-1.38,-8.41
1061,-1.31,0.29,-0.53,1.32,-0.39,-0.47,-0.91,-1.29,-8.44
1062,-1.23,0.53,-0.98,1.42,-0.61,-0.13,-0.93,-1.3,-8.49
1063,-0.41,0.77,-0.39,1.77,-0.73,0.56,-0.79,-1.23,-8.47
1064,0.46,1.14,-0.47,1.54,-0.51,1.52,-0.81,-1.32,-8.46
1065,0.25,-0.81,-0.21,1.25,-0.42,1.7,-0.75,-1.35,-8.34
1066,1.88,0.91,2.24,-0.19,-0.97,4.72,-0.81,-1.32,-8.22
1067,0.98,0.18,3.03,-1.17,1.11,2.05,-0.73,-1.3,-8.28
1068,-2.22,-2.87,-0.28,0.1,-0.71,1.6,-0.81,-1.35,-8.26
1069,-0.04,0.5,0.64,-0.09,-0.55,0.66,-0.72,-1.21,-8.32
1070,0.74,-0.63,1.35,-0.72,-0.42,0.2,-0.63,-1.29,-8.25
1071,0.64,-2.1,2.05,-0.06,-0.12,-0.35,-0.69,-1.32,-8.22
1072,0.18,-1.73,2.03,0.45,-0.07,-0.95,-0.72,-1.44,-8.14
1073,-0.83,-0.43,2.53,0.98,-0.21,-1.1,-0.73,-1.56,-8.11
1074,-0.93,0.88,4.2,1.08,-0.61,-0.67,-0.66,-1.57,-8.17
1075,-1.45,-0.01,4.93,1.16,-0.19,0.0,-0.55,-1.63,-8.25
1076,-1.05,-0.23,5.16,0.96,-0.69,0.94,-0.55,-1.69,-8.28
1077,-0.64,-0.98,6.04,0.45,-0.54,1.5,-0.43,-1.81,-8.32
1078,-0.14,-2.15,6.44,0.35,-1.12,3.66,-0.37,-1.92,-8.22
1079,2.16,0.11,8.05,-0.51,0.46,1.99,-0.34,-2.14,-8.1
1080,-0.32,-2.94,5.13,0.27,1.02,1.19,-0.34,-2.14,-8.14
1081,0.55,-0.68,5.57,0.23,-0.19,0.92,-0.27,-2.28,-8.25
1082,1.21,0.31,7.02,-0.02,0.62,0.18,-0.16,-2.31,-8.2
1083,-0.72,-1.42,6.01,0.51,0.52,-0.23,-0.16,-2.41,-8.26
1084,-0.88,-1.49,5.34,0.7,0.02,-0.71,-0.1,-2.64,-8.19
1085,0.16,-1.17,6.16,0.82,-0.17,-0.8,-0.09,-2.74,-8.14
1086,0.37,-0.44,6.56,1.42,-0.18,-0.45,0.1,-2.82,-8.16
1087,0.87,0.53,5.64,1.31,-0.13,0.16,0.15,-2.95,-8.14
1088,0.58,-1.02,5.99,1.44,-0.22,0.65,0.18,-3.0,-8.07
1089,0.44,-1.71,5.88,1.76,-0.24,0.92,0.3,-3.01,-8.05
1090,0.4,-1.85,5.7,1.47,0.07,1.31,0.27,-3.16,-8.02
1091,-0.04,-2.93,5.9,1.0,0.19,1.36,0.3,-3.39,-7.93
1092,-0.42,-2.65,6.53,1.75,-0.39,2.69,0.37,-3.51,-7.86
1093,1.79,0.64,7.75,-0.58,0.46,2.2,0.46,-3.51,-7.78
1094,-0.32,-4.59,7.71,-0.64,0.31,0.71,0.64,-3.72,-7.83
1095,0.46,-3.95,7.31,0.3,-0.64,0.54,0.78,-3.87,-7.69
1096,1.94,-2.31,7.56,-0.28,-0.53,0.25,0.91,-4.05,-7.6
1097,3.08,-2.36,8.91,-0.64,-0.57,0.53,1.09,-4.06,-7.47
1098,3.4,-2.27,9.21,-0.12,-0.4,0.17,1.14,-4.18,-7.41
1099,2.52,-1.1,8.39,0.62,-0.82,-0.04,1.38,-4.33,-7.41
1100,1.84,0.16,8.42,1.12,-1.02,-0.41,1.5,-4.32,-7.38
1101,1.6,0.71,8.58,1.29,-1.1,-0.25,1.68,-4.35,-7.39
1102,1.35,0.57,8.58,1.57,-1.37,0.04,1.93,-4.29,-7.41
1103,1.39,0.11,8.52,1.69,-1.34,0.1,2.11,-4.33,-7.48
1104,0.86,-0.87,8.07,2.06,-1.38,0.41,2.28,-4.27,-7.38
1105,0.56,-0.56,8.04,1.82,-1.32,0.59,2.46,-4.27,-7.36
1106,0.24,-0.58,8.44,1.56,-1.31,0.61,2.7,-4.33,-7.33
1107,-0.15,-0.93,8.37,1.78,-1.16,1.16,2.89,-4.23,-7.39
1108,0.06,-1.53,8.48,0.92,-1.26,1.45,3.15,-4.21,-7.35
1109,1.44,0.39,9.84,0.92,-0.71,1.76,3.25,-4.05,-7.33
1110,0.23,-0.56,7.59,0.45,0.22,0.83,3.55,-3.88,-7.41
1111,-0.14,-2.19,7.32,0.23,-0.48,0.62,3.78,-3.93,-7.26
1112,1.82,-1.12,9.48,0.01,-0.35,0.32,3.96,-3.81,-7.27
1113,1.66,-1.87,8.55,0.15,0.43,-0.04,4.15,-3.6,-7.29
1114,1.19,-1.82,7.32,0.62,-0.34,-0.15,4.33,-3.54,-7.23
1115,1.37,-0.93,7.7,1.06,-0.5,-0.17,4.35,-3.39,-7.3
1116,1.44,-0.3,8.32,1.13,-0.58,-0.04,4.53,-3.22,-7.36
1117,1.17,-0.13,7.59,1.39,-0.52,0.41,4.65,-3.0,-7.48
1118,0.63,-0.51,6.74,1.3,-0.61,0.51,4.69,-2.8,-7.48
1119,-0.04,-0.91,5.39,1.67,-0.88,0.42,4.8,-2.77,-7.44
1120,-0.39,-1.21,4.5,1.75,-1.08,0.55,4.93,-2.68,-7.45
1121,0.09,-1.68,4.17,1.2,-0.97,0.8,5.04,-2.53,-7.45
1122,0.12,-3.05,4.03,1.13,-1.25,1.29,4.96,-2.4,-7.48
1123,2.4,0.37,4.36,0.31,-1.3,2.95,5.07,-2.41,-7.48
1124,1.37,-2.1,4.27,-0.69,-0.05,0.84,5.1,-2.23,-7.6
1125,0.06,-3.34,3.71,0.42,-0.95,0.78,5.11,-2.19,-7.48
1126,0.25,-0.82,3.89,0.52,-0.87,0.26,5.02,-2.16,-7.59
1127,0.25,-0.44,4.08,0.13,-1.04,0.6,5.11,-1.99,-7.57
1128,0.69,-0.65,4.69,0.14,-1.06,0.46,5.02,-1.98,-7.48
1129,0.6,-0.73,3.99,0.57,-1.12,0.25,5.1,-1.86,-7.53
1130,0.73,-0.34,3.84,0.65,-1.26,0.29,5.08,-1.8,-7.62
1131,0.87,-0.34,4.25,0.76,-1.24,0.33,5.08,-1.66,-7.65
1132,0.96,-0.25,4.29,0.91,-1.15,0.33,5.13,-1.54,-7.63
1133,0.9,0.05,4.66,0.9,-1.17,0.29,5.08,-1.32,-7.74
1134,0.81,0.36,4.99,0.87,-1.28,0.66,4.95,-1.26,-7.72
1135,1.15,0.44,4.94,0.8,-1.05,0.87,5.05,-1.12,-7.8
1136,1.51,0.13,5.23,0.62,-1.08,1.14,4.95,-1.0,-7.83
1137,0.7,-0.47,5.53,0.76,-0.78,0.95,4.95,-0.75,-7.72
1138,-0.23,0.0,4.85,0.83,-0.78,0.74,4.89,-0.69,-7.87
1139,-1.19,-0.23,4.62,0.76,-0.72,0.58,4.99,-0.51,-7.8
1140,-1.09,-0.64,4.5,0.64,-0.86,0.59,4.83,-0.34,-7.89
1141,-0.39,-0.81,4.76,0.75,-0.93,0.54,4.86,-0.3,-7.72
1142,0.35,-0.63,4.63,0.79,-0.7,0.41,4.78,-0.22,-7.72
1143,0.63,-0.64,3.22,1.01,-0.73,0.5,4.72,-0.18,-7.78
1144,0.79,0.08,2.37,1.05,-0.74,0.42,4.69,-0.1,-7.72
1145,0.61,0.18,1.54,1.15,-0.67,0.46,4.66,-0.06,-7.8
1146,0.67,0.21,0.79,1.05,-0.76,0.54,4.6,-0.04,-7.75
1147,0.68,-0.6,0.37,0.84,-0.68,0.58,4.59,-0.01,-7.84
1148,1.1,-0.62,0.2,0.79,-0.57,0.83,4.57,0.0,-7.87
1149,0.58,-1.1,0.17,0.88,-0.38,0.43,4.5,-0.09,-7.77
1150,0.04,-0.84,0.31,1.07,-0.49,0.37,4.53,-0.07,-7.92
1151,-0.43,-0.52,0.55,1.21,-0.57,0.48,4.45,-0.06,-7.96
1152,-0.41,0.07,0.64,0.96,-0.51,0.5,4.5,-0.04,-7.89
1153,-0.6,-0.28,0.54,1.01,-0.61,0.63,4.47,0.01,-7.89
1154,-0.74,-0.74,0.27,1.08,-0.75,0.44,4.41,-0.07,-7.92
1155,-0.28,-0.06,0.5,1.1,-0.79,0.4,4.48,-0.07,-7.87
1156,-0.59,-0.04,0.33,0.84,-0.86,0.46,4.56,-0.04,-7.86
1157,-0.8,-0.09,-0.04,1.02,-0.99,0.67,4.6,0.01,-7.92
1158,-0.25,0.01,-0.25,0.79,-0.96,0.52,4.44,0.03,-7.83
1159,0.0,-0.51,-0.09,0.87,-0.92,0.59,4.57,-0.01,-7.89
1160,0.22,-0.56,-0.23,0.91,-0.79,0.56,4.56,-0.01,-7.8
1161,0.07,-0.56,0.0,0.88,-0.75,0.5,4.62,-0.03,-7.78
1162,-0.14,-0.42,0.0,1.0,-0.79,0.48,4.48,-0.15,-7.93
1163,-0.14,-0.07,0.0,0.86,-0.8,0.41,4.51,-0.03,-7.84
1164,-0.29,0.05,0.14,1.03,-0.82,0.53,4.54,-0.03,-7.87
1165,-0.15,0.14,-0.09,0.86,-0.8,0.58,4.57,-0.01,-7.83
1166,0.04,-0.23,-0.02,0.88,-0.81,0.65,4.48,-0.04,-7.77
1167,0.21,-0.46,-0.07,0.89,-0.78,0.54,4.45,0.03,-7.84
1168,0.09,-0.52,-0.07,0.97,-0.8,0.53,4.5,-0.07,-7.81
1169,-0.1,-0.24,0.12,1.05,-0.77,0.52,4.48,-0.09,-7.84
1170,-0.33,-0.07,-0.01,0.92,-0.79,0.47,4.57,-0.06,-7.95
