,Gyroscope X (deg/s),Gyroscope Y (deg/s),Gyroscope Z (deg/s),Accelerometer X (g),Accelerometer Y (g),Accelerometer Z (g),Magnetometer X (G),Magnetometer Y (G),Magnetometer Z (G)
1,-1.6,-2.3,1.1,5,-9,1035,-51,-169,-1032
2,-1.6,-2.3,1.0,5,-10,1034,-36,-172,-1026
3,-1.6,-2.3,1.1,5,-10,1036,-37,-174,-1029
4,-1.6,-2.2,1.0,5,-9,1036,-43,-165,-1036
5,-1.6,-2.3,1.1,5,-10,1035,-48,-174,-1033
6,-1.5,-2.3,1.1,5,-10,1037,-45,-172,-1024
7,-1.6,-2.3,1.0,4,-10,1037,-52,-171,-1038
8,-1.6,-2.3,1.1,5,-10,1036,-48,-171,-1024
9,-1.6,-2.2,1.1,5,-9,1034,-43,-172,-1029
10,-1.6,-2.3,1.1,4,-10,1037,-45,-172,-1033
11,-1.6,-2.3,1.0,5,-10,1034,-42,-166,-1030
12,-1.6,-2.3,1.1,4,-10,1034,-45,-169,-1036
13,-1.6,-2.2,1.0,4,-9,1034,-42,-169,-1024
14,-1.6,-2.3,1.0,5,-10,1033,-36,-169,-1029
15,-1.6,-2.3,1.1,4,-11,1033,-43,-172,-1027
16,-1.6,-2.3,1.0,4,-10,1032,-42,-166,-1020
17,-1.6,-2.3,1.0,4,-10,1032,-49,-166,-1029
18,-1.6,-2.3,1.1,2,-16,1038,-33,-169,-1021
19,-1.6,-2.3,1.0,6,-12,1034,-52,-162,-1020
20,-1.5,-2.3,1.0,5,-8,1035,-40,-171,-1030
21,-1.6,-2.3,0.6,27,31,1033,-45,-172,-1020
22,-1.1,-2.5,13.5,-388,-154,989,-45,-163,-1030
23,-2.0,-2.0,-3.7,-7,109,1036,-42,-172,-1032
24,8.6,-1.6,5.4,6,-40,1047,-51,-165,-1029
25,31.9,-20.4,-28.0,-49,-92,1071,-42,-165,-1023
26,93.0,-17.1,-62.6,-181,-101,1142,-43,-166,-1020
27,-83.6,86.8,-45.8,46,149,1403,-69,-153,-1012
28,-48.6,68.4,-66.5,-266,41,1330,-100,-103,-1048
29,-198.5,164.7,-37.1,13,-21,1595,-87,-55,-1081
30,-225.3,29.8,-28.7,-5,-33,1575,-82,-12,-1125
31,-297.9,66.6,18.8,-249,63,938,1,10,-1126
32,-275.5,-72.3,-34.0,-190,-194,999,124,-12,-1080
33,-347.5,-45.8,40.1,-51,56,350,240,-27,-1002
34,-218.4,-145.3,60.2,-242,-227,-113,337,-30,-910
35,-106.3,-184.1,88.8,-217,-634,352,412,-33,-852
36,-189.4,-173.1,228.4,-607,-499,35,444,6,-777
37,-73.0,-210.6,151.4,-1117,-661,-148,480,67,-714
38,-96.5,-161.7,115.9,-1005,-1142,210,492,124,-685
39,-35.0,-153.6,31.5,-1203,-840,-240,495,153,-666
40,1.5,-126.7,17.4,-987,-935,-25,493,150,-681
41,106.9,-88.7,-36.3,-946,-720,-133,481,153,-718
42,152.4,-75.2,-53.0,-660,-598,318,477,121,-780
43,176.6,-134.4,-107.5,-702,-424,291,462,73,-841
44,237.0,-231.0,-146.0,-109,-152,545,441,-9,-904
45,183.0,-234.7,-166.3,-185,-96,791,415,-108,-946
46,166.8,-133.5,-229.3,-298,114,1082,355,-223,-958
47,81.6,-36.7,-233.7,312,427,1478,289,-297,-981
48,-30.1,-31.9,-298.9,-410,595,1124,190,-322,-991
49,-124.6,168.9,-248.0,564,753,1219,124,-315,-1030
50,-107.5,68.7,-273.9,394,740,1083,73,-303,-1116
51,-204.9,211.5,-92.5,320,278,1133,42,-183,-1215
52,-43.5,56.5,-138.5,244,104,1234,52,-85,-1204
53,-120.2,133.6,-8.3,127,-191,1275,52,-42,-1159
54,-109.7,72.1,-44.8,103,-324,1260,54,-28,-1132
55,-220.0,-5.9,11.0,568,-508,1513,82,-40,-1104
56,-370.1,-213.9,113.6,698,-499,1376,156,-64,-1036
57,-300.3,-437.3,240.5,20,79,528,282,-106,-936
58,-190.3,-445.0,488.8,-1998,593,-827,367,-25,-784
59,197.4,-409.4,-96.6,-1998,-1389,-544,457,27,-786
60,296.3,-7.0,-339.7,-997,62,877,483,-84,-885
61,147.8,191.3,-348.3,-896,13,1998,421,-189,-1011
62,-96.8,367.6,-448.9,793,436,1998,300,-178,-1084
63,-208.9,292.6,-7.4,1583,-411,1454,199,-72,-1096
64,-54.0,-114.3,70.9,364,-216,1221,220,-46,-1098
65,-164.7,49.7,267.4,-242,0,-185,229,-27,-1053
66,178.7,-50.6,161.0,-1197,-250,-448,298,36,-1068
67,348.1,-154.0,-104.3,-1468,-318,1015,297,21,-1126
68,286.7,-77.7,-237.0,-60,-451,1998,166,-40,-1098
69,-37.3,150.2,-106.8,116,-53,1663,18,-25,-1101
70,-52.2,115.9,-59.6,-76,-101,1620,-27,22,-1122
71,-183.8,-52.9,-82.8,-135,-402,1913,6,33,-1129
72,-410.5,-52.0,-25.1,-409,-79,1011,58,4,-1114
73,-396.2,-187.3,-143.3,-672,-132,493,192,-63,-1002
74,-400.9,-8.7,33.9,-3,128,-354,334,-105,-868
75,-200.6,4.5,15.5,-274,-566,-397,403,-81,-787
76,-7.1,-11.2,36.0,-100,-634,-1069,438,-73,-751
77,369.8,-177.3,16.2,-313,-389,-547,441,-66,-826
78,594.0,-132.2,-45.9,-560,22,716,441,-105,-990
79,432.9,-22.5,-81.8,-139,-494,1998,351,-96,-1117
80,171.2,91.7,34.7,314,-156,1759,160,-94,-1126
81,3.4,34.7,-53.9,-379,-555,1998,39,-64,-1114
82,-302.6,41.3,-38.1,-143,-321,1784,10,-67,-1134
83,-429.3,66.8,-76.0,-286,-7,958,103,-75,-1062
84,-390.0,-29.4,-109.2,-36,-240,515,255,-103,-966
85,-308.9,5.0,-43.6,52,-454,-357,348,-124,-853
86,-164.8,-27.9,-12.0,146,-582,-706,396,-130,-787
87,55.3,-38.8,46.1,145,-697,-629,409,-120,-768
88,254.7,-74.6,89.3,49,-406,-596,415,-105,-825
89,493.5,-114.0,104.1,-386,-266,243,415,-87,-969
90,496.7,-50.8,56.2,-537,-252,1297,360,-72,-1095
91,357.7,-99.1,-22.6,-103,-215,1650,219,-82,-1108
92,87.5,25.3,-89.4,-123,-253,1998,39,-87,-1066
93,-143.9,71.5,-48.5,-34,3,1653,-36,-60,-1080
94,-258.6,-12.1,-88.4,55,-275,1852,-21,-70,-1125
95,-373.6,-1.1,-49.9,-201,-131,1083,63,-82,-1089
96,-327.4,-61.5,-91.4,-103,-339,748,216,-136,-999
97,-333.6,-25.4,-21.0,-61,-248,-241,307,-142,-882
98,-165.6,-45.0,-17.2,-32,-609,-530,378,-157,-811
99,-18.0,-1.5,20.7,159,-713,-574,393,-163,-784
100,180.0,-46.5,90.7,292,-373,-786,403,-135,-823
101,502.4,-106.8,35.2,-684,-471,14,408,-136,-918
102,457.3,36.4,13.7,-284,-203,1137,370,-135,-1051
103,380.3,24.4,-16.8,-101,35,1393,241,-94,-1108
104,231.0,-50.3,-5.7,235,-44,1998,63,-88,-1065
105,54.1,17.7,23.5,-137,118,1204,-67,-91,-1021
106,41.5,-9.7,-12.3,-76,122,1152,-90,-100,-993
107,14.7,-4.8,-2.4,-72,126,1113,-93,-96,-993
108,-3.9,2.2,2.8,-68,101,1112,-99,-109,-987
109,-14.1,-8.3,4.8,-88,78,1026,-100,-106,-996
110,-7.9,-6.7,1.6,-91,89,989,-97,-109,-988
111,-8.4,4.0,-0.4,-80,64,1066,-93,-108,-991
112,-3.2,-3.9,3.7,-112,69,1032,-91,-111,-993
113,-2.7,5.4,-1.1,-94,43,1081,-79,-111,-997
114,-7.2,-4.6,-1.7,-89,71,1055,-81,-103,-1002
115,-4.2,-5.1,-1.3,-112,44,1015,-90,-99,-994
116,0.1,-6.0,-4.2,-133,83,1022,-88,-102,-994
117,4.6,-16.5,-22.5,-189,49,1012,-99,-108,-1005
118,30.0,-47.1,-84.8,-460,76,880,-84,-109,-1005
119,35.2,-40.3,-187.0,-152,114,1073,-91,-115,-1002
120,-18.9,-16.9,-215.1,-57,142,1311,-123,-105,-1015
121,-100.4,72.0,-109.2,462,415,1238,-154,-78,-1042
122,-65.9,25.2,119.2,788,450,1212,-144,-55,-1074
123,-60.3,37.9,357.2,401,493,922,-129,-36,-1077
124,-118.3,41.5,513.0,-59,560,1035,-96,-31,-1132
125,-100.2,-113.5,640.1,-955,801,1157,-43,-105,-1152
126,-85.1,-221.9,88.4,-1677,273,-383,90,-121,-1098
127,71.5,-41.9,-106.8,-649,0,1503,207,-202,-1078
128,51.9,-223.8,-518.9,-1267,492,792,141,-250,-1054
129,4.4,-59.9,-733.0,-172,986,1163,-21,-150,-957
130,-242.7,102.0,-318.2,882,1235,966,-154,-96,-1009
131,-92.6,121.3,-136.0,123,582,750,-181,-54,-1038
132,-56.7,44.7,51.3,813,510,1491,-171,-28,-1053
133,-91.9,38.9,262.4,301,476,1174,-174,-30,-1066
134,-140.5,2.5,402.5,533,374,1222,-139,-30,-1095
135,-136.4,-74.9,469.2,-603,532,697,-73,-73,-1140
136,-123.9,-90.7,459.8,-1438,270,627,4,-114,-1110
137,75.8,-140.4,-86.3,-1373,75,336,171,-132,-1104
138,87.9,-85.6,-340.4,-1173,144,914,201,-187,-1104
139,84.0,-166.8,-695.7,-498,718,1085,75,-166,-1033
140,-101.7,154.6,-343.9,876,819,1520,-109,-117,-1024
141,-25.0,97.7,-194.3,220,479,990,-171,-66,-1053
142,-92.3,70.0,14.9,888,458,1554,-163,-33,-1071
143,-113.2,-0.7,170.4,394,171,1408,-162,-33,-1087
144,-236.8,37.1,344.1,632,365,1240,-118,-28,-1102
145,-149.9,-128.2,398.2,-353,331,827,-30,-42,-1123
146,-66.7,-99.3,353.0,-1053,304,390,76,-55,-1122
147,199.0,-352.5,-81.8,-1457,36,55,169,-127,-1102
148,198.9,-134.7,-477.4,-1014,-241,1728,169,-232,-1057
149,-74.0,94.7,-398.8,811,437,1844,-7,-147,-1027
150,-201.8,153.6,-81.0,357,731,314,-147,-76,-1071
151,43.4,29.3,-0.5,512,287,1180,-117,-58,-1065
152,-17.5,54.8,114.1,-156,155,1078,-118,-51,-1069
153,23.3,-12.6,38.0,-100,9,1153,-112,-51,-1062
154,-3.1,-12.9,57.6,-88,-20,1023,-100,-66,-1050
155,13.4,-24.0,37.5,-293,-38,930,-103,-75,-1056
156,-4.1,-8.8,-7.7,-194,-66,1163,-103,-69,-1059
157,-27.2,2.4,-0.9,-80,119,892,-100,-73,-1071
158,10.2,-1.8,2.1,-164,-3,1089,-106,-69,-1062
159,-3.0,3.7,5.7,-143,49,1040,-94,-72,-1059
160,9.6,-11.4,-3.2,-114,46,988,-102,-64,-1059
161,7.3,-15.1,14.7,-127,33,1082,-111,-73,-1054
162,18.9,-54.6,44.3,-57,109,1057,-100,-81,-1054
163,43.4,-14.9,6.4,-291,11,945,-106,-87,-1050
164,46.6,2.9,-38.0,-38,96,1162,-114,-94,-1042
165,-34.7,-0.7,2.9,-14,250,961,-135,-93,-1041
166,-5.3,-52.0,9.7,-92,100,996,-132,-99,-1047
167,-53.0,-33.1,42.9,60,89,1102,-120,-121,-1047
168,-55.1,0.7,66.2,-36,39,970,-115,-126,-1054
169,-94.7,-11.2,29.6,-73,23,1041,-84,-132,-1063
170,-35.0,-12.2,29.2,-52,-103,1015,-57,-130,-1063
171,-9.6,-21.7,-21.6,-119,-93,1007,-30,-141,-1071
172,77.7,-108.1,-239.5,-133,43,935,-28,-156,-1032
173,59.9,-62.5,-333.6,300,177,984,-63,-153,-1011
174,130.5,-63.3,-414.8,-43,346,930,-132,-103,-978
175,210.6,33.1,-415.1,300,-44,1208,-231,10,-918
176,-63.9,24.7,-236.8,-340,947,909,-318,102,-915
177,-81.6,55.2,-117.6,126,764,1074,-333,181,-934
178,-89.0,-8.6,44.4,-19,729,1017,-300,190,-939
179,-61.5,-42.4,213.8,184,280,856,-271,141,-963
180,-120.4,-120.2,499.8,110,128,874,-256,1,-997
181,-233.3,-129.7,730.8,133,352,990,-246,-150,-1033
182,-25.6,-92.7,438.1,99,-76,846,-90,-199,-1026
183,17.6,-115.4,398.7,54,-797,865,43,-201,-1000
184,45.8,42.2,174.0,-92,-148,930,138,-184,-1009
185,-17.5,96.3,49.7,-270,-112,930,201,-138,-1035
186,42.7,6.5,-273.9,-360,-151,1004,214,-157,-1030
187,28.9,62.8,-479.1,-308,-228,1164,190,-184,-1048
188,114.5,94.3,-443.5,473,189,1171,85,-151,-1053
189,68.0,43.4,-167.3,100,70,1102,-39,-105,-1042
190,-8.1,24.1,15.4,416,46,1147,-126,-87,-1039
191,-94.2,10.8,291.6,194,76,1114,-153,-102,-1057
192,-14.4,31.4,233.8,-104,87,855,-117,-115,-1069
193,43.2,-2.0,77.0,-247,-430,1171,-49,-132,-1069
194,2.5,19.5,55.5,-74,-116,832,-48,-120,-1066
195,62.3,12.7,16.9,18,21,1030,-40,-120,-1065
196,64.4,-4.0,25.6,-105,85,942,-54,-121,-1066
197,36.6,-21.2,18.4,-60,120,1073,-78,-121,-1053
198,-9.6,-9.3,17.0,-95,122,1076,-94,-112,-1050
199,-12.5,-21.9,-6.0,-42,124,1071,-88,-132,-1039
200,-11.1,-13.8,-8.8,-1,84,1097,-84,-132,-1036
201,-7.1,-3.9,-8.5,-20,101,1041,-87,-138,-1029
202,15.6,-35.7,-49.4,48,124,1052,-78,-135,-1029
203,14.8,-31.2,-41.7,-64,113,982,-93,-136,-1035
204,3.2,-19.2,-35.5,133,162,1041,-103,-147,-1017
205,-3.9,-16.3,-19.8,20,164,997,-115,-148,-1018
206,-11.4,-4.0,-3.0,36,112,1049,-108,-141,-1018
207,-17.7,4.8,13.1,57,140,1040,-118,-154,-1018
208,-18.6,8.3,15.1,80,117,1023,-112,-148,-1030
209,-22.0,6.6,6.4,67,66,1036,-90,-144,-1038
210,13.7,-12.4,-40.7,55,84,1002,-91,-145,-1033
211,22.8,-10.2,-9.5,65,116,1031,-108,-142,-1024
212,-2.0,-2.7,1.1,32,91,1015,-109,-144,-1036
213,24.3,-6.8,-7.4,55,148,981,-114,-151,-1024
214,17.5,-7.0,-1.6,43,133,1021,-124,-150,-1018
215,5.6,-5.1,-2.5,68,175,1012,-129,-147,-1023
216,27.0,-16.1,-6.5,71,176,1021,-129,-144,-1015
217,36.3,-21.8,10.2,100,203,1024,-142,-151,-1015
218,60.5,-34.5,-2.9,118,203,1037,-139,-159,-984
219,9.5,-26.0,-9.3,132,243,1002,-150,-160,-985
220,24.9,-20.0,-11.7,130,275,970,-163,-162,-975
221,13.0,-10.1,-4.9,155,297,1010,-177,-172,-969
222,-17.9,-22.6,-2.3,182,316,999,-181,-169,-967
223,-42.2,-58.3,-15.1,99,352,1055,-175,-181,-955
224,-71.7,-35.2,30.3,144,194,823,-165,-202,-964
225,-6.3,-17.9,-100.8,508,293,1083,-139,-199,-966
226,14.0,-93.8,-31.0,333,196,1118,-153,-199,-955
227,-31.0,-75.4,20.5,496,276,1054,-162,-211,-943
228,35.9,56.0,-30.8,317,225,911,-162,-211,-948
229,14.0,310.4,-1.5,178,252,1099,-169,-175,-972
230,40.0,710.0,-14.1,-469,255,1039,-184,-52,-1044
231,41.5,755.7,-150.7,-544,285,775,-196,201,-1000
232,-31.5,675.4,-63.0,-719,192,325,-216,352,-855
233,-40.2,400.4,-98.2,-767,175,-480,-199,406,-700
234,-64.3,135.8,38.5,-713,129,-509,-169,379,-612
235,-86.2,-110.8,80.2,-1245,46,-748,-163,370,-627
236,-14.8,-502.8,17.6,-1009,56,-376,-193,372,-730
237,-38.4,-1083.3,33.3,-1531,289,81,-213,271,-937
238,-48.3,-633.1,-174.9,607,90,753,-196,15,-1063
239,61.4,-441.9,-117.4,43,409,47,-156,-75,-1059
240,246.6,-281.1,-23.4,78,98,1125,-139,-154,-969
241,-31.0,-110.6,71.6,415,386,1243,-220,-205,-918
242,-58.5,149.7,94.3,483,350,728,-220,-210,-930
243,-142.6,425.4,188.7,233,226,1400,-193,-154,-1021
244,-220.5,682.5,187.6,-149,199,629,-132,6,-1116
245,192.9,786.0,261.5,-1284,309,-28,-55,255,-1039
246,504.5,580.5,115.7,-1458,-605,1574,-67,360,-751
247,-65.2,-72.0,30.0,-976,455,-1092,-228,364,-768
248,4.2,-84.0,-3.7,-1219,296,194,-210,343,-789
249,-18.6,-408.7,26.8,-980,10,151,-226,330,-852
250,-52.0,-1014.8,-28.0,-949,840,271,-220,153,-1023
251,143.2,-641.6,-81.6,-179,288,1106,-193,-58,-1008
252,31.0,-291.9,-41.5,207,406,1134,-223,-139,-957
253,46.9,-158.6,18.5,293,488,416,-237,-175,-925
254,-40.8,20.5,53.6,654,407,1239,-231,-196,-913
255,-66.2,221.5,103.6,378,429,889,-225,-192,-952
256,-137.2,505.0,110.3,-36,339,1080,-202,-102,-1048
257,-161.4,695.3,67.9,-291,185,594,-159,96,-1089
258,181.3,606.1,122.7,-751,369,-41,-112,289,-979
259,-149.7,215.0,-48.7,-763,214,-164,-159,370,-864
260,25.9,-9.3,38.4,-954,283,-211,-189,363,-855
261,38.9,-74.2,41.0,-1371,313,-21,-192,345,-868
262,-15.7,-275.3,-19.9,-927,131,-223,-208,310,-900
263,26.2,-813.1,-40.8,-1070,366,605,-192,162,-1027
264,62.0,-636.7,-190.4,213,485,845,-183,-57,-1032
265,118.0,-227.3,-70.1,314,312,1330,-183,-124,-970
266,-36.6,3.7,23.3,189,467,670,-226,-144,-969
267,-8.8,22.8,26.8,171,367,1043,-219,-138,-976
268,-32.6,67.3,32.7,122,301,983,-217,-139,-990
269,-27.5,39.9,26.0,32,253,972,-198,-124,-1008
270,-12.7,25.8,27.0,19,282,937,-196,-118,-1024
271,-88.2,22.4,18.5,-123,140,1040,-187,-115,-1032
272,-59.0,-30.8,2.6,-10,223,957,-163,-123,-1045
273,-48.6,30.8,0.7,-40,85,1064,-145,-115,-1050
274,40.8,-9.1,13.5,-87,26,969,-127,-115,-1047
275,16.3,-26.6,0.8,26,128,1137,-115,-118,-1044
276,-9.6,-25.1,-16.9,-41,74,965,-130,-139,-1030
277,4.7,-8.8,-0.4,80,154,1078,-142,-129,-1032
278,34.5,-11.9,5.6,-54,156,984,-138,-138,-1023
279,10.1,-28.9,0.2,166,182,966,-142,-141,-1017
280,26.8,-33.3,-4.2,23,157,915,-145,-150,-1018
281,16.1,8.6,-7.7,-1,143,1118,-156,-156,-1009
282,-6.1,11.9,8.6,106,234,950,-160,-156,-1005
283,22.7,-13.3,1.6,92,189,1134,-159,-157,-996
284,-21.5,-14.2,10.9,111,273,1003,-157,-162,-988
285,6.0,-5.6,0.0,132,194,1089,-156,-166,-996
286,-14.7,-1.7,-2.7,91,217,984,-153,-169,-990
287,4.9,-3.1,3.7,130,255,960,-150,-163,-997
288,11.2,-13.9,0.8,64,208,1006,-145,-166,-985
289,-28.2,17.3,7.2,140,196,1016,-139,-175,-993
290,-0.1,4.9,5.1,64,192,1021,-138,-168,-997
291,-8.0,0.9,3.1,120,175,1086,-136,-166,-996
292,-3.1,-6.8,0.7,95,214,975,-136,-159,-1000
293,0.2,-5.2,-7.0,96,200,1000,-129,-160,-990
294,3.6,-6.1,-11.6,55,200,956,-139,-171,-993
295,1.9,-4.0,-6.1,71,187,1051,-144,-171,-993
296,-4.5,-4.2,-5.8,123,208,995,-148,-174,-1002
297,2.3,-15.6,-5.6,92,198,1040,-142,-169,-991
298,-9.9,-0.5,1.1,120,233,999,-154,-168,-994
299,-8.8,4.3,5.1,106,210,1018,-142,-166,-994
300,-8.8,3.6,2.7,78,216,976,-141,-178,-994
301,-6.1,3.0,2.1,97,188,982,-142,-171,-999
302,4.9,-6.3,4.5,77,217,937,-141,-166,-991
303,6.1,-12.8,3.9,111,200,1011,-138,-178,-990
304,11.1,-13.0,5.1,73,229,998,-138,-193,-982
305,13.9,-19.9,2.3,114,203,1017,-138,-186,-991
306,-9.4,8.9,1.6,147,212,1062,-147,-184,-981
307,7.0,9.3,-4.2,106,244,943,-154,-190,-972
308,7.4,-12.6,-2.1,101,256,943,-127,-180,-988
309,-51.7,9.6,2.9,134,222,1013,-144,-193,-997
310,-35.0,-1.6,2.5,101,170,1015,-129,-181,-1002
311,-43.8,-3.7,2.2,99,131,1008,-118,-186,-1014
312,-43.4,12.8,12.4,28,84,1005,-106,-190,-1011
313,-53.2,12.1,5.3,102,50,1045,-96,-186,-1018
314,-61.5,3.5,0.9,57,20,1021,-81,-174,-1023
315,-1.9,4.9,-3.2,44,-8,1030,-64,-171,-1030
316,-1.6,-2.5,0.6,27,-14,1040,-57,-174,-1023
317,-1.6,15.9,6.5,102,11,762,-55,-172,-1029
318,-5.0,4.2,-3.4,-74,-35,1022,-57,-165,-1032
319,-1.6,-2.3,1.1,5,-11,1037,-58,-168,-1039
320,-1.6,-2.3,1.1,4,-11,1039,-61,-165,-1039
321,-1.6,-2.3,1.0,5,-10,1039,-60,-168,-1042
322,-1.5,-2.3,1.1,5,-10,1039,-52,-160,-1044
323,-1.6,-2.3,1.1,5,-11,1040,-51,-163,-1042
324,-1.5,-2.3,1.0,5,-10,1039,-51,-157,-1038
325,-1.6,-2.3,1.0,4,-10,1040,-58,-162,-1038
326,-1.6,-2.3,1.1,5,-10,1040,-48,-163,-1029
327,-1.6,-2.3,1.1,4,-11,1039,-58,-168,-1036
328,-1.6,-2.3,1.1,5,-11,1039,-46,-163,-1039
329,-1.5,-2.3,1.0,4,-10,1040,-51,-159,-1036
330,-1.6,-2.3,1.0,5,-10,1039,-55,-171,-1042
331,-1.6,-2.3,1.0,4,-10,1041,-57,-157,-1044
332,-1.6,-2.3,1.0,5,-10,1041,-48,-168,-1027
333,-1.5,-2.4,1.1,5,-10,1040,-51,-156,-1036
334,-1.6,-2.3,1.1,5,-9,1040,-49,-162,-1036
335,-1.6,-2.3,1.1,5,-10,1039,-52,-171,-1039
336,-1.6,-2.3,1.0,4,-10,1038,-54,-163,-1036
337,-1.6,-2.3,1.0,4,-10,1037,-52,-165,-1035
338,-1.6,-2.3,1.0,4,-10,1038,-54,-157,-1039
339,-1.6,-2.3,1.0,5,-10,1037,-57,-159,-1045
340,-1.6,-2.3,1.1,5,-10,1037,-51,-165,-1035
341,-1.6,-2.3,1.1,5,-11,1036,-58,-160,-1038
342,-1.6,-2.3,1.1,5,-10,1035,-40,-153,-1030
343,-1.6,-2.3,1.0,4,-10,1035,-52,-160,-1041
344,-1.6,-2.3,1.0,4,-10,1035,-54,-169,-1033
345,-1.6,-2.3,1.0,4,-10,1035,-46,-159,-1041
346,-1.5,-2.3,1.1,5,-10,1036,-51,-165,-1042
347,-1.6,-2.3,1.0,5,-10,1036,-55,-166,-1032
348,-1.6,-2.3,1.0,5,-11,1035,-52,-169,-1039
349,-1.6,-2.3,1.1,4,-9,1035,-61,-168,-1039
350,-1.6,-2.3,1.0,4,-10,1035,-57,-171,-1044
351,-1.6,-2.3,1.0,5,-10,1035,-58,-168,-1042
352,-1.5,-2.3,1.0,4,-10,1035,-54,-171,-1036
353,-1.5,-2.3,1.0,5,-10,1035,-60,-159,-1032
354,-1.6,-2.3,1.0,4,-10,1035,-52,-163,-1038
355,-1.6,-2.3,1.1,5,-10,1036,-66,-168,-1039
356,-1.6,-2.3,1.1,4,-10,1037,-51,-168,-1038
357,-1.5,-2.3,1.1,4,-10,1036,-55,-162,-1035
358,-1.6,-2.3,1.1,5,-10,1034,-54,-157,-1041
359,-1.6,-2.3,1.1,4,-10,1036,-55,-169,-1045
360,-1.6,-2.3,1.1,5,-9,1035,-61,-171,-1039
361,-1.5,-2.3,1.1,5,-11,1036,-51,-168,-1045
362,-1.5,-2.3,1.0,4,-10,1036,-51,-160,-1047
363,-1.6,-2.3,1.1,5,-10,1037,-58,-159,-1047
364,-1.6,-2.3,1.1,5,-10,1036,-55,-172,-1032
365,-1.6,-2.3,1.0,4,-10,1037,-60,-165,-1044
366,-1.5,-2.3,1.0,5,-11,1037,-58,-160,-1039
367,-1.5,-2.3,1.0,5,-10,1037,-60,-154,-1050
368,-1.6,-2.3,1.1,4,-10,1037,-57,-168,-1042
369,-1.6,-2.3,1.1,4,-10,1037,-51,-169,-1039
370,-1.6,-2.3,1.0,5,-11,1038,-55,-165,-1032
371,-1.6,-2.3,1.1,5,-10,1036,-55,-165,-1038
372,-1.6,-2.3,1.1,4,-9,1038,-55,-163,-1035
373,-1.6,-2.3,1.1,5,-11,1037,-57,-157,-1039
374,-1.6,-2.3,1.0,5,-10,1036,-48,-165,-1035
375,-1.6,-2.3,1.0,4,-10,1036,-54,-153,-1041
376,-1.5,-2.3,1.0,5,-10,1036,-60,-160,-1042
377,-1.6,-2.3,1.1,4,-10,1035,-55,-166,-1045
