,Gyroscope X (deg/s),Gyroscope Y (deg/s),Gyroscope Z (deg/s),Accelerometer X (g),Accelerometer Y (g),Accelerometer Z (g),Magnetometer X (G),Magnetometer Y (G),Magnetometer Z (G)
0,2.0,0.0,-9.0,-9,2,-11,312.0,267.0,162.0
1,2.0,0.0,-9.0,-9,2,-11,312.0,267.0,162.0
2,2.0,-1.0,-9.0,-8,3,-10,319.0,258.0,135.0
3,2.0,-2.0,-9.0,-9,2,-9,318.0,243.0,156.0
4,2.0,-2.0,-9.0,-10,2,-9,334.0,262.0,151.0
5,4.0,-1.0,-9.0,-9,2,-9,334.0,262.0,151.0
6,3.0,-2.0,-9.0,-8,1,-10,324.0,258.0,154.0
7,2.0,-1.0,-9.0,-6,2,-11,309.0,247.0,135.0
8,2.0,-1.0,-9.0,-8,2,-10,327.0,273.0,151.0
9,2.0,-2.0,-10.0,-9,0,-10,307.0,286.0,150.0
10,3.0,-2.0,-10.0,-9,0,-10,300.0,276.0,151.0
11,3.0,-3.0,-9.0,-8,0,-11,297.0,282.0,165.0
12,2.0,0.0,-10.0,-8,0,-11,315.0,259.0,165.0
13,2.0,-2.0,-9.0,-8,2,-11,315.0,259.0,165.0
14,2.0,-2.0,-9.0,-10,1,-11,307.0,255.0,153.0
15,2.0,-2.0,-9.0,-10,2,-10,327.0,256.0,148.0
16,2.0,-1.0,-9.0,-9,4,-8,310.0,249.0,151.0
17,2.0,0.0,-10.0,-8,3,-8,309.0,277.0,160.0
18,2.0,0.0,-10.0,-7,2,-9,295.0,270.0,138.0
19,2.0,0.0,-9.0,-7,2,-9,307.0,261.0,154.0
20,2.0,0.0,-9.0,-9,1,-9,307.0,261.0,154.0
21,3.0,-1.0,-10.0,-9,1,-10,319.0,243.0,144.0
22,2.0,0.0,-9.0,-8,3,-9,334.0,267.0,159.0
23,2.0,0.0,-9.0,-7,2,-9,312.0,246.0,163.0
24,2.0,-1.0,-9.0,-9,1,-9,316.0,261.0,189.0
25,3.0,-1.0,-10.0,-9,1,-8,328.0,261.0,145.0
26,2.0,-2.0,-9.0,-7,0,-8,325.0,247.0,163.0
27,2.0,-2.0,-9.0,-9,2,-8,313.0,261.0,147.0
28,3.0,0.0,-9.0,-9,2,-8,304.0,258.0,157.0
29,2.0,-1.0,-9.0,-8,1,-10,330.0,264.0,171.0
30,2.0,-2.0,-9.0,-8,1,-9,330.0,264.0,171.0
31,2.0,-2.0,-9.0,-9,2,-8,315.0,283.0,154.0
32,2.0,1.0,-10.0,-8,2,-10,313.0,271.0,163.0
33,2.0,-2.0,-9.0,-8,0,-11,316.0,271.0,142.0
34,3.0,-2.0,-9.0,-8,-2,-9,315.0,267.0,151.0
35,2.0,-2.0,-9.0,-8,0,-8,313.0,258.0,163.0
36,2.0,-1.0,-9.0,-8,2,-9,324.0,256.0,136.0
37,2.0,0.0,-10.0,-8,0,-9,316.0,252.0,150.0
38,2.0,0.0,-10.0,-9,1,-9,321.0,268.0,162.0
39,3.0,0.0,-10.0,-9,2,-9,316.0,264.0,172.0
40,2.0,-1.0,-9.0,-10,2,-10,316.0,264.0,172.0
41,2.0,-1.0,-9.0,-9,1,-9,321.0,259.0,159.0
42,2.0,-1.0,-9.0,-7,1,-7,309.0,267.0,154.0
43,2.0,0.0,-9.0,-9,2,-8,313.0,258.0,139.0
44,2.0,-1.0,-9.0,-10,2,-8,300.0,249.0,159.0
45,2.0,-1.0,-9.0,-8,2,-10,318.0,267.0,139.0
46,2.0,-1.0,-9.0,-7,1,-12,322.0,246.0,154.0
47,2.0,-1.0,-10.0,-7,1,-12,322.0,246.0,154.0
48,2.0,0.0,-11.0,-9,0,-10,316.0,270.0,157.0
49,2.0,0.0,-10.0,-8,1,-7,315.0,259.0,162.0
50,2.0,-1.0,-9.0,-8,3,-8,322.0,261.0,157.0
51,2.0,0.0,-9.0,-8,2,-9,328.0,262.0,151.0
52,2.0,0.0,-9.0,-6,2,-11,313.0,258.0,160.0
53,3.0,-1.0,-9.0,-7,2,-11,319.0,270.0,172.0
54,2.0,-1.0,-9.0,-10,1,-8,309.0,276.0,153.0
55,2.0,0.0,-9.0,-9,1,-9,313.0,261.0,150.0
56,2.0,-1.0,-9.0,-8,1,-9,325.0,258.0,147.0
57,4.0,-2.0,-9.0,-8,1,-8,325.0,258.0,147.0
58,2.0,0.0,-10.0,-8,1,-8,307.0,255.0,145.0
59,2.0,0.0,-10.0,-9,0,-8,318.0,268.0,172.0
60,3.0,0.0,-9.0,-9,0,-11,301.0,271.0,138.0
61,2.0,0.0,-9.0,-8,2,-9,313.0,256.0,141.0
62,2.0,-2.0,-9.0,-6,1,-9,309.0,258.0,162.0
63,2.0,-1.0,-10.0,-7,0,-10,328.0,258.0,156.0
64,2.0,-1.0,-10.0,-10,1,-9,322.0,268.0,162.0
65,2.0,0.0,-9.0,-10,1,-9,303.0,252.0,153.0
66,2.0,-2.0,-9.0,-9,0,-10,303.0,252.0,153.0
67,2.0,0.0,-9.0,-6,2,-9,306.0,258.0,151.0
68,2.0,2.0,-10.0,-8,3,-10,304.0,256.0,162.0
69,2.0,0.0,-9.0,-9,1,-8,300.0,261.0,162.0
70,2.0,0.0,-9.0,-6,1,-6,318.0,265.0,163.0
71,2.0,-2.0,-9.0,-7,1,-7,312.0,264.0,162.0
72,3.0,-2.0,-10.0,-10,3,-8,313.0,250.0,150.0
73,2.0,-2.0,-10.0,-10,2,-9,306.0,249.0,169.0
74,2.0,-2.0,-10.0,-10,2,-10,300.0,261.0,174.0
75,2.0,-1.0,-9.0,-11,1,-10,322.0,274.0,174.0
76,2.0,-2.0,-9.0,-7,0,-9,319.0,262.0,151.0
77,2.0,0.0,-9.0,-7,1,-7,319.0,262.0,151.0
78,2.0,0.0,-9.0,-9,1,-7,306.0,268.0,153.0
79,2.0,0.0,-9.0,-7,0,-9,312.0,261.0,156.0
80,2.0,-1.0,-9.0,-7,0,-10,294.0,265.0,154.0
81,2.0,-1.0,-9.0,-7,0,-9,315.0,273.0,172.0
82,2.0,-1.0,-9.0,-7,0,-9,315.0,247.0,171.0
83,2.0,-1.0,-9.0,-9,0,-12,324.0,270.0,147.0
84,2.0,0.0,-9.0,-9,0,-12,322.0,265.0,150.0
85,2.0,0.0,-10.0,-9,1,-11,322.0,265.0,150.0
86,2.0,-1.0,-9.0,-8,1,-9,319.0,259.0,157.0
87,2.0,0.0,-10.0,-7,0,-10,289.0,259.0,166.0
88,2.0,-2.0,-9.0,-6,0,-10,322.0,271.0,166.0
89,2.0,0.0,-9.0,-7,0,-9,312.0,273.0,153.0
90,2.0,0.0,-9.0,-7,1,-7,306.0,265.0,156.0
91,1.0,0.0,-9.0,-9,2,-7,313.0,276.0,154.0
92,2.0,0.0,-9.0,-11,2,-8,324.0,268.0,135.0
93,3.0,-1.0,-9.0,-7,4,-9,316.0,277.0,150.0
94,2.0,0.0,-9.0,-5,1,-8,310.0,250.0,159.0
95,2.0,0.0,-9.0,-7,1,-9,310.0,250.0,159.0
96,2.0,-2.0,-9.0,-9,2,-10,289.0,253.0,147.0
97,2.0,-1.0,-9.0,-7,2,-9,325.0,268.0,159.0
98,2.0,-2.0,-9.0,-7,2,-10,324.0,264.0,141.0
99,2.0,-1.0,-9.0,-10,1,-8,313.0,253.0,154.0
100,2.0,0.0,-9.0,-10,0,-5,313.0,262.0,159.0
101,2.0,0.0,-9.0,-9,0,-4,304.0,262.0,165.0
102,2.0,0.0,-10.0,-9,2,-4,330.0,258.0,162.0
103,2.0,-2.0,-10.0,-10,2,-5,316.0,270.0,160.0
104,2.0,-1.0,-10.0,-8,2,-8,316.0,270.0,160.0
105,1.0,-2.0,-9.0,-8,1,-9,330.0,252.0,166.0
106,3.0,-6.0,-9.0,-8,0,-11,343.0,261.0,144.0
107,2.0,-2.0,-9.0,-7,0,-13,313.0,247.0,150.0
108,1.0,-1.0,-9.0,-9,0,-11,309.0,262.0,156.0
109,2.0,-1.0,-9.0,-9,1,-10,315.0,273.0,156.0
110,3.0,0.0,-9.0,-7,2,-10,297.0,282.0,157.0
111,2.0,0.0,-10.0,-9,4,-10,330.0,258.0,133.0
112,2.0,-1.0,-9.0,-8,3,-9,330.0,258.0,133.0
113,2.0,0.0,-9.0,-7,3,-8,310.0,265.0,147.0
114,2.0,-1.0,-9.0,-8,3,-9,307.0,258.0,148.0
115,2.0,-1.0,-9.0,-8,2,-11,301.0,279.0,151.0
116,2.0,-2.0,-9.0,-7,2,-9,316.0,261.0,156.0
117,2.0,-1.0,-9.0,-7,0,-10,312.0,240.0,157.0
118,3.0,0.0,-9.0,-10,-2,-10,307.0,262.0,156.0
119,2.0,-3.0,-9.0,-9,-2,-10,322.0,256.0,157.0
120,2.0,-3.0,-9.0,-9,0,-10,322.0,246.0,156.0
121,2.0,-1.0,-9.0,-9,0,-10,322.0,246.0,156.0
122,2.0,-1.0,-9.0,-10,0,-10,309.0,261.0,165.0
123,2.0,-1.0,-9.0,-7,2,-7,316.0,261.0,150.0
124,2.0,-1.0,-10.0,-7,2,-7,318.0,276.0,165.0
125,2.0,0.0,-10.0,-8,2,-9,307.0,265.0,153.0
126,2.0,-1.0,-9.0,-7,2,-10,303.0,264.0,159.0
127,3.0,0.0,-9.0,-8,0,-11,322.0,249.0,153.0
128,3.0,2.0,-10.0,-10,1,-9,316.0,273.0,148.0
129,2.0,0.0,-10.0,-9,2,-8,327.0,261.0,160.0
130,2.0,-1.0,-10.0,-8,0,-10,318.0,258.0,151.0
131,1.0,-2.0,-9.0,-8,-1,-9,324.0,271.0,163.0
132,2.0,-1.0,-9.0,-10,2,-7,324.0,271.0,163.0
133,2.0,0.0,-9.0,-10,2,-7,318.0,268.0,157.0
134,3.0,-2.0,-9.0,-8,0,-8,318.0,265.0,136.0
135,2.0,-2.0,-9.0,-9,0,-10,310.0,271.0,157.0
136,3.0,-1.0,-9.0,-9,-1,-11,315.0,264.0,163.0
137,3.0,0.0,-9.0,-7,0,-8,312.0,256.0,160.0
138,3.0,0.0,-9.0,-8,2,-7,300.0,265.0,156.0
139,3.0,-1.0,-10.0,-10,2,-10,321.0,255.0,153.0
140,2.0,-1.0,-9.0,-10,2,-10,321.0,255.0,153.0
141,2.0,-1.0,-9.0,-8,0,-11,306.0,262.0,156.0
142,2.0,-2.0,-9.0,-8,0,-8,321.0,261.0,156.0
143,2.0,-2.0,-9.0,-9,0,-9,321.0,261.0,145.0
144,1.0,-3.0,-10.0,-7,-1,-9,331.0,261.0,151.0
145,2.0,-2.0,-9.0,-6,0,-10,321.0,279.0,150.0
146,2.0,-1.0,-9.0,-6,2,-9,316.0,256.0,162.0
147,2.0,0.0,-10.0,-5,2,-8,321.0,250.0,160.0
148,2.0,0.0,-11.0,-6,2,-10,321.0,285.0,156.0
149,2.0,-1.0,-10.0,-9,1,-11,321.0,259.0,147.0
150,2.0,0.0,-9.0,-10,0,-10,321.0,259.0,147.0
151,2.0,0.0,-9.0,-9,0,-9,324.0,244.0,156.0
152,2.0,-1.0,-10.0,-8,1,-8,334.0,274.0,151.0
153,2.0,0.0,-11.0,-8,1,-8,322.0,262.0,163.0
154,2.0,-1.0,-10.0,-8,0,-7,304.0,271.0,154.0
155,3.0,0.0,-9.0,-7,0,-7,318.0,273.0,142.0
156,2.0,0.0,-9.0,-6,1,-8,312.0,265.0,166.0
157,2.0,0.0,-9.0,-8,3,-10,322.0,268.0,151.0
158,1.0,-1.0,-10.0,-8,3,-10,318.0,261.0,157.0
159,1.0,-2.0,-9.0,-9,2,-13,318.0,261.0,157.0
160,2.0,-2.0,-9.0,-7,1,-9,318.0,270.0,147.0
161,2.0,-2.0,-9.0,-9,2,-9,309.0,271.0,171.0
162,2.0,-2.0,-9.0,-10,1,-10,318.0,258.0,157.0
163,2.0,-5.0,-9.0,-9,1,-8,304.0,264.0,171.0
164,2.0,-4.0,-9.0,-4,-3,-10,324.0,253.0,159.0
165,0.0,-1.0,-41.0,-34,12,0,309.0,289.0,163.0
166,0.0,-1.0,-98.0,-36,22,2,304.0,270.0,165.0
167,-2.0,0.0,-97.0,-1,14,-7,303.0,265.0,154.0
168,0.0,-2.0,-54.0,-1,13,-12,307.0,262.0,159.0
169,3.0,-1.0,-77.0,0,12,-16,307.0,262.0,159.0
170,4.0,0.0,-39.0,4,11,-12,316.0,253.0,144.0
171,3.0,0.0,37.0,-8,3,-11,318.0,280.0,141.0
172,3.0,-1.0,37.0,-12,1,-12,313.0,264.0,153.0
173,3.0,0.0,21.0,2,3,-10,315.0,256.0,186.0
174,4.0,-2.0,17.0,0,2,-9,306.0,255.0,154.0
175,4.0,-2.0,17.0,-5,7,-10,310.0,262.0,171.0
176,4.0,0.0,67.0,-5,13,-10,310.0,262.0,171.0
177,3.0,0.0,100.0,-11,13,-14,322.0,267.0,172.0
178,2.0,-3.0,51.0,-16,-5,-24,310.0,264.0,174.0
179,2.0,-2.0,42.0,-10,23,-25,310.0,243.0,150.0
180,-1.0,-5.0,17.0,-14,73,-47,306.0,259.0,142.0
181,-3.0,-13.0,-16.0,-13,30,-60,327.0,258.0,151.0
182,0.0,-3.0,-7.0,-5,-4,-4,316.0,252.0,160.0
183,9.0,11.0,-12.0,-18,17,39,319.0,258.0,141.0
184,4.0,5.0,-9.0,-16,40,6,316.0,262.0,160.0
185,5.0,4.0,58.0,-33,15,17,334.0,274.0,136.0
186,1.0,-11.0,55.0,-17,-14,-1,316.0,270.0,150.0
187,2.0,-6.0,2.0,9,5,-24,316.0,270.0,150.0
188,-2.0,-4.0,-14.0,28,-6,6,319.0,253.0,156.0
189,0.0,2.0,30.0,21,-37,14,318.0,255.0,130.0
190,2.0,2.0,-15.0,-35,-28,81,313.0,262.0,166.0
191,7.0,1.0,-30.0,-48,-14,88,297.0,256.0,157.0
192,-4.0,-16.0,-16.0,-67,-15,85,324.0,264.0,157.0
193,1.0,-11.0,-72.0,-33,4,-32,321.0,255.0,156.0
194,1.0,-11.0,-72.0,43,2,-112,295.0,265.0,147.0
195,-2.0,-14.0,-90.0,43,2,-112,322.0,256.0,136.0
196,-5.0,-15.0,-51.0,68,-3,-147,322.0,256.0,136.0
197,-5.0,-15.0,-51.0,8,-23,63,313.0,247.0,166.0
198,14.0,18.0,44.0,-21,-37,210,309.0,243.0,160.0
199,8.0,11.0,21.0,0,-19,66,295.0,237.0,159.0
200,1.0,0.0,-72.0,-11,17,44,303.0,255.0,142.0
201,-5.0,-13.0,-122.0,23,-13,2,319.0,240.0,166.0
202,-2.0,-9.0,-106.0,49,-49,-40,307.0,244.0,156.0
203,-2.0,-19.0,-79.0,7,-31,-123,304.0,238.0,160.0
204,6.0,-9.0,-110.0,-13,-5,-73,318.0,231.0,154.0
205,12.0,0.0,-51.0,-24,58,43,318.0,231.0,154.0
206,9.0,0.0,-84.0,-31,67,45,307.0,226.0,153.0
207,-2.0,-1.0,-78.0,-21,49,160,294.0,234.0,160.0
208,2.0,9.0,-39.0,-17,1,92,312.0,234.0,150.0
209,4.0,16.0,4.0,14,13,-113,307.0,228.0,157.0
210,-17.0,-27.0,-4.0,57,41,-151,319.0,219.0,138.0
211,0.0,8.0,1.0,8,-14,-91,309.0,208.0,163.0
212,-1.0,0.0,20.0,1,-67,-91,309.0,208.0,163.0
213,-1.0,0.0,20.0,0,-96,115,315.0,213.0,154.0
214,12.0,0.0,39.0,0,-96,115,324.0,219.0,153.0
215,11.0,21.0,-18.0,-27,-83,37,336.0,198.0,159.0
216,4.0,-2.0,38.0,-23,-46,-284,328.0,216.0,157.0
217,19.0,25.0,154.0,-60,-59,-13,327.0,205.0,165.0
218,25.0,28.0,48.0,-59,-61,-60,318.0,198.0,148.0
219,25.0,11.0,-41.0,11,-16,-359,315.0,204.0,145.0
220,22.0,9.0,-9.0,64,35,-418,361.0,216.0,139.0
221,-4.0,-9.0,-121.0,5,-22,-160,319.0,202.0,166.0
222,23.0,34.0,-123.0,-18,-47,243,319.0,202.0,166.0
223,3.0,-6.0,-98.0,-30,-105,416,334.0,193.0,144.0
224,-14.0,-28.0,-116.0,-12,-116,146,346.0,192.0,156.0
225,-3.0,-4.0,-99.0,41,48,-28,352.0,192.0,156.0
226,9.0,15.0,-61.0,20,31,22,349.0,198.0,147.0
227,-7.0,9.0,-70.0,34,-30,-106,333.0,195.0,141.0
228,-28.0,-49.0,-74.0,88,31,-295,343.0,187.0,147.0
229,-1.0,-10.0,-135.0,114,38,-208,355.0,165.0,153.0
230,-8.0,-25.0,-119.0,99,38,-36,355.0,165.0,153.0
231,-8.0,-25.0,-119.0,34,0,-30,345.0,184.0,139.0
232,14.0,2.0,30.0,12,28,11,345.0,184.0,156.0
233,-3.0,-25.0,99.0,12,28,11,364.0,184.0,156.0
234,-37.0,-67.0,41.0,111,105,-449,385.0,168.0,160.0
235,8.0,4.0,-57.0,1,99,-429,358.0,184.0,157.0
236,21.0,0.0,-7.0,-85,61,123,376.0,189.0,142.0
237,33.0,51.0,-35.0,4,40,103,385.0,156.0,157.0
238,14.0,43.0,-67.0,-48,-8,-261,397.0,162.0,171.0
239,-2.0,5.0,4.0,-69,-100,-250,387.0,166.0,141.0
240,2.0,8.0,-88.0,-38,-75,129,387.0,166.0,141.0
241,-7.0,-4.0,-163.0,-68,-63,82,393.0,171.0,141.0
242,16.0,14.0,67.0,-75,-84,164,406.0,184.0,142.0
243,9.0,0.0,216.0,-37,7,236,403.0,195.0,135.0
244,-9.0,-21.0,217.0,-28,121,181,420.0,196.0,130.0
245,14.0,3.0,36.0,-39,61,257,435.0,189.0,150.0
246,4.0,13.0,21.0,-40,-10,34,432.0,184.0,130.0
247,-1.0,14.0,-31.0,36,-4,-310,421.0,193.0,153.0
248,9.0,16.0,-80.0,71,-64,-209,429.0,169.0,138.0
249,2.0,-20.0,-21.0,12,-47,87,429.0,169.0,138.0
250,2.0,-20.0,-21.0,30,-29,42,441.0,175.0,141.0
251,9.0,4.0,21.0,30,-29,42,442.0,172.0,150.0
252,5.0,5.0,15.0,25,-48,31,456.0,160.0,147.0
253,11.0,-3.0,-128.0,19,-47,-24,454.0,177.0,144.0
254,2.0,-11.0,-109.0,56,-51,38,459.0,171.0,148.0
255,-3.0,-4.0,-35.0,-1,-16,125,457.0,175.0,135.0
256,-7.0,-13.0,-9.0,0,-65,37,462.0,195.0,139.0
257,-5.0,-26.0,-56.0,54,-79,0,472.0,168.0,144.0
258,-2.0,-18.0,-14.0,83,-34,-116,471.0,186.0,156.0
259,-4.0,-17.0,78.0,92,-71,-169,471.0,186.0,156.0
260,2.0,-2.0,136.0,20,-33,-117,484.0,205.0,142.0
261,8.0,11.0,100.0,-9,32,-23,472.0,186.0,138.0
262,14.0,11.0,157.0,-7,-47,-8,483.0,196.0,117.0
263,20.0,13.0,116.0,-49,-75,39,502.0,196.0,135.0
264,3.0,-7.0,11.0,-26,-47,7,502.0,196.0,120.0
265,4.0,2.0,84.0,1,-36,-76,493.0,216.0,133.0
266,2.0,-2.0,278.0,-35,-24,4,495.0,183.0,126.0
267,2.0,-2.0,278.0,-36,-31,14,495.0,183.0,126.0
268,3.0,2.0,305.0,-9,-73,8,508.0,199.0,138.0
269,14.0,6.0,178.0,-3,-64,34,490.0,186.0,133.0
270,6.0,-1.0,81.0,-3,-64,34,501.0,199.0,145.0
271,0.0,-11.0,49.0,6,0,66,514.0,193.0,136.0
272,0.0,-4.0,21.0,-25,26,46,513.0,195.0,112.0
273,-7.0,-2.0,0.0,-39,1,-61,514.0,199.0,148.0
274,-2.0,1.0,16.0,-7,-13,-63,490.0,211.0,156.0
275,6.0,7.0,-11.0,-35,27,-22,517.0,198.0,135.0
276,5.0,5.0,-7.0,-44,1,-18,516.0,211.0,135.0
277,7.0,0.0,28.0,-24,-8,-10,516.0,196.0,112.0
278,13.0,9.0,7.0,-37,10,38,516.0,196.0,112.0
279,9.0,4.0,-3.0,-27,-2,36,504.0,208.0,121.0
280,4.0,4.0,-38.0,-30,-13,-9,510.0,204.0,126.0
281,4.0,1.0,-89.0,-7,-32,-15,522.0,204.0,127.0
282,3.0,2.0,-77.0,-12,-11,-26,517.0,211.0,132.0
283,4.0,4.0,-11.0,-26,3,5,532.0,196.0,129.0
284,8.0,8.0,-11.0,-22,-5,6,513.0,219.0,132.0
285,5.0,6.0,-49.0,-2,8,1,523.0,211.0,126.0
286,5.0,6.0,-49.0,1,20,39,523.0,211.0,126.0
287,10.0,13.0,-92.0,-12,-10,48,531.0,210.0,120.0
288,1.0,-2.0,-58.0,-12,-10,48,532.0,226.0,142.0
289,3.0,0.0,-14.0,3,-29,8,532.0,226.0,142.0
290,2.0,0.0,-25.0,-15,-21,-6,520.0,225.0,142.0
291,2.0,0.0,-63.0,-15,-19,-1,526.0,219.0,135.0
292,2.0,0.0,-52.0,-7,-14,-10,513.0,226.0,136.0
293,3.0,-1.0,-19.0,-8,-2,-9,525.0,210.0,135.0
294,2.0,-1.0,-10.0,-11,3,-8,513.0,219.0,124.0
295,3.0,-1.0,-9.0,-9,2,-7,522.0,211.0,141.0
296,3.0,-2.0,-9.0,-8,3,-8,543.0,214.0,139.0
297,2.0,-2.0,-10.0,-8,5,-9,543.0,214.0,139.0
298,2.0,0.0,-10.0,-8,6,-8,519.0,214.0,129.0
299,2.0,0.0,-10.0,-7,4,-8,520.0,222.0,120.0
300,3.0,0.0,-10.0,-6,3,-8,519.0,237.0,139.0
301,3.0,0.0,-10.0,-8,2,-7,511.0,211.0,130.0
302,4.0,0.0,-9.0,-10,3,-5,540.0,222.0,145.0
303,3.0,0.0,-9.0,-10,4,-6,510.0,219.0,118.0
304,3.0,-1.0,-9.0,-10,5,-7,519.0,211.0,117.0
305,3.0,-1.0,-9.0,-11,3,-9,525.0,217.0,127.0
306,2.0,-2.0,-9.0,-10,1,-11,525.0,217.0,127.0
307,3.0,-1.0,-9.0,-10,1,-11,531.0,226.0,127.0
308,4.0,0.0,-9.0,-9,2,-11,525.0,220.0,130.0
309,2.0,-2.0,-9.0,-9,2,-9,531.0,216.0,130.0
310,3.0,2.0,-10.0,-10,2,-10,520.0,217.0,136.0
311,1.0,1.0,-135.0,-13,3,-20,517.0,208.0,147.0
312,3.0,1.0,-177.0,-5,-32,-15,528.0,208.0,121.0
313,3.0,4.0,-249.0,2,-68,-2,517.0,229.0,120.0
314,34.0,46.0,-386.0,0,-44,-3,534.0,210.0,133.0
315,71.0,98.0,-416.0,6,-33,-9,529.0,214.0,129.0
316,98.0,132.0,-268.0,12,-33,-2,529.0,214.0,129.0
317,28.0,33.0,-61.0,1,-4,-9,507.0,238.0,150.0
318,4.0,0.0,-9.0,-2,15,-17,517.0,220.0,138.0
319,3.0,0.0,-9.0,2,16,-7,504.0,228.0,153.0
320,4.0,-1.0,-10.0,1,14,-8,514.0,237.0,139.0
321,4.0,-1.0,-9.0,0,12,-11,514.0,223.0,132.0
322,3.0,-2.0,-8.0,0,11,-12,522.0,217.0,132.0
323,2.0,-2.0,-9.0,1,11,-12,516.0,205.0,132.0
324,2.0,-2.0,-9.0,1,11,-12,516.0,205.0,132.0
325,2.0,-2.0,-9.0,2,12,-10,511.0,207.0,130.0
326,2.0,-2.0,-10.0,2,11,-10,529.0,226.0,129.0
327,2.0,-2.0,-9.0,5,13,-7,510.0,223.0,153.0
328,5.0,2.0,-9.0,2,13,-7,514.0,220.0,136.0
329,4.0,0.0,-9.0,-1,12,-6,513.0,235.0,147.0
330,2.0,-1.0,-9.0,0,14,-5,507.0,225.0,142.0
331,3.0,0.0,-9.0,4,12,-9,504.0,228.0,138.0
332,3.0,0.0,-9.0,3,11,-10,513.0,208.0,105.0
333,2.0,-1.0,-9.0,2,11,-9,511.0,229.0,145.0
334,1.0,0.0,-9.0,2,13,-9,522.0,222.0,126.0
335,2.0,0.0,-9.0,2,12,-11,522.0,222.0,126.0
336,2.0,-2.0,-9.0,1,10,-10,502.0,223.0,141.0
337,1.0,-2.0,-9.0,0,11,-8,519.0,229.0,151.0
338,-6.0,-14.0,-10.0,0,11,-9,513.0,228.0,130.0
339,0.0,-2.0,-10.0,0,10,-15,516.0,225.0,136.0
340,2.0,-2.0,-10.0,-4,10,-31,517.0,223.0,124.0
341,4.0,-2.0,-10.0,-2,12,-25,502.0,231.0,120.0
342,4.0,-2.0,-10.0,1,14,-7,514.0,231.0,136.0
343,2.0,-2.0,-10.0,1,14,-7,507.0,223.0,120.0
344,2.0,0.0,-9.0,1,13,-9,507.0,223.0,120.0
345,3.0,0.0,-9.0,1,12,-10,505.0,223.0,168.0
346,3.0,-2.0,-9.0,-1,13,-12,519.0,211.0,130.0
347,4.0,7.0,-28.0,30,14,-12,517.0,225.0,139.0
348,1.0,0.0,-16.0,33,12,-9,505.0,210.0,144.0
349,-16.0,-28.0,-9.0,1,10,-6,510.0,220.0,130.0
350,-29.0,-46.0,-8.0,0,11,-8,516.0,237.0,129.0
351,-32.0,-53.0,-9.0,0,10,-7,525.0,214.0,124.0
352,-44.0,-71.0,-8.0,-2,8,-5,510.0,232.0,139.0
353,-56.0,-86.0,-7.0,-6,8,-9,517.0,217.0,142.0
354,-46.0,-68.0,-11.0,-42,11,-115,517.0,217.0,142.0
355,12.0,16.0,-414.0,-60,55,-127,514.0,238.0,141.0
356,-23.0,-30.0,-987.0,-26,62,-24,508.0,246.0,136.0
357,-8.0,1.0,-1505.0,-4,-4,-4,522.0,229.0,145.0
358,-6.0,14.0,-1973.0,5,-39,-108,499.0,229.0,153.0
359,25.0,52.0,-2221.0,1,22,-48,502.0,210.0,141.0
360,10.0,31.0,-2198.0,5,23,116,481.0,226.0,129.0
361,10.0,31.0,-2198.0,-4,18,32,481.0,226.0,129.0
362,-49.0,9.0,-2181.0,-4,18,32,459.0,220.0,123.0
363,-25.0,4.0,-1925.0,-24,101,22,478.0,216.0,130.0
364,-30.0,-12.0,-1439.0,-20,48,-30,447.0,222.0,138.0
365,-7.0,1.0,-800.0,-30,-49,-79,445.0,228.0,141.0
366,4.0,6.0,-164.0,-26,-25,-5,427.0,210.0,135.0
367,2.0,0.0,-9.0,-8,10,-6,435.0,222.0,142.0
368,2.0,0.0,-9.0,-8,10,-9,448.0,211.0,124.0
369,2.0,-1.0,-9.0,-8,10,-7,448.0,211.0,124.0
370,2.0,-1.0,-9.0,-9,6,-7,415.0,216.0,150.0
371,2.0,-1.0,-11.0,-8,7,-7,409.0,196.0,132.0
372,2.0,-2.0,-10.0,-9,8,-8,447.0,222.0,121.0
373,2.0,-1.0,-10.0,-10,6,-9,432.0,214.0,121.0
374,2.0,0.0,-9.0,-11,6,-11,402.0,214.0,145.0
375,2.0,-2.0,-9.0,-10,6,-10,433.0,222.0,145.0
376,2.0,0.0,-10.0,-8,6,-9,427.0,223.0,123.0
377,2.0,-1.0,-9.0,-8,8,-9,429.0,214.0,126.0
378,2.0,-1.0,-9.0,-9,10,-8,429.0,214.0,126.0
379,2.0,-2.0,-9.0,-10,10,-7,439.0,222.0,138.0
380,2.0,-1.0,-9.0,-10,9,-9,438.0,208.0,138.0
381,2.0,0.0,-9.0,-10,9,-9,444.0,216.0,141.0
382,8.0,2.0,-10.0,-32,13,7,432.0,199.0,129.0
383,4.0,18.0,-884.0,-76,-26,61,432.0,222.0,120.0
384,10.0,26.0,-1269.0,-65,7,233,432.0,205.0,114.0
385,-32.0,-15.0,-1731.0,-25,94,36,430.0,219.0,121.0
386,-14.0,7.0,-2072.0,-36,22,-100,417.0,216.0,130.0
387,-7.0,7.0,-2195.0,-69,-9,-60,396.0,187.0,117.0
388,-15.0,3.0,-1766.0,-42,104,-161,369.0,216.0,117.0
389,14.0,30.0,-1277.0,-57,102,-68,369.0,216.0,117.0
390,-4.0,11.0,-1541.0,-73,28,-26,375.0,186.0,114.0
391,-13.0,2.0,-1701.0,-12,16,-22,375.0,199.0,141.0
392,44.0,73.0,-1400.0,-32,0,3,358.0,186.0,144.0
393,-4.0,-1.0,-1300.0,-108,-33,42,367.0,163.0,144.0
394,-5.0,-16.0,-1633.0,-55,-35,35,361.0,162.0,124.0
395,-11.0,-8.0,-1294.0,111,17,-77,328.0,162.0,129.0
396,-11.0,-11.0,-833.0,51,84,-96,336.0,144.0,130.0
397,1.0,0.0,-1096.0,-46,70,-24,337.0,151.0,145.0
398,1.0,0.0,-1096.0,12,-36,-55,337.0,151.0,145.0
399,-3.0,-1.0,-1022.0,12,-36,-55,324.0,132.0,142.0
400,3.0,7.0,-711.0,-25,-64,-71,324.0,132.0,142.0
401,10.0,14.0,-666.0,-72,-21,-40,330.0,108.0,123.0
402,-5.0,-11.0,-634.0,18,8,-60,316.0,102.0,138.0
403,8.0,14.0,-418.0,32,38,-51,331.0,105.0,129.0
404,-44.0,-56.0,-536.0,-31,55,2,327.0,106.0,123.0
405,-11.0,-8.0,-707.0,-15,25,16,310.0,103.0,127.0
406,2.0,5.0,-645.0,-30,-11,-1,336.0,99.0,139.0
407,44.0,60.0,-590.0,-59,2,-17,319.0,75.0,123.0
408,-31.0,-21.0,-819.0,1,49,-116,319.0,75.0,123.0
409,-21.0,-19.0,-830.0,69,56,-143,312.0,72.0,153.0
410,8.0,11.0,-613.0,52,39,-35,315.0,70.0,126.0
411,10.0,9.0,-343.0,52,23,2,324.0,73.0,135.0
412,40.0,51.0,-111.0,58,1,7,330.0,61.0,129.0
413,20.0,26.0,-6.0,-5,24,13,306.0,66.0,162.0
414,5.0,-1.0,-23.0,-1,22,-13,324.0,70.0,148.0
415,-9.0,-16.0,-7.0,30,3,-14,322.0,66.0,136.0
416,-9.0,-16.0,-7.0,28,21,-16,331.0,55.0,157.0
417,-34.0,-53.0,58.0,28,21,-16,331.0,55.0,157.0
418,-35.0,-53.0,33.0,11,51,-29,328.0,60.0,127.0
419,-5.0,-10.0,2.0,1,45,4,330.0,70.0,127.0
420,8.0,4.0,-24.0,16,17,-13,325.0,42.0,132.0
421,0.0,-7.0,7.0,18,-20,27,324.0,58.0,118.0
422,4.0,0.0,74.0,32,-22,41,312.0,69.0,138.0
423,2.0,-7.0,67.0,7,7,-5,330.0,67.0,123.0
424,2.0,-2.0,2.0,-7,-2,1,331.0,73.0,129.0
425,2.0,0.0,-16.0,-3,3,-6,325.0,43.0,132.0
426,2.0,0.0,-35.0,-8,21,-10,309.0,52.0,136.0
427,2.0,0.0,-37.0,-1,13,-6,301.0,60.0,147.0
428,3.0,0.0,-23.0,4,2,-7,301.0,60.0,147.0
429,2.0,-1.0,-11.0,0,10,-11,310.0,54.0,130.0
430,1.0,-2.0,-11.0,-6,16,-9,321.0,54.0,130.0
431,1.0,-2.0,-25.0,-26,59,-5,304.0,70.0,138.0
432,2.0,-1.0,-25.0,-19,64,-8,307.0,58.0,141.0
433,2.0,1.0,-4.0,4,4,-1,310.0,66.0,127.0
434,6.0,4.0,26.0,1,-4,2,310.0,52.0,136.0
435,6.0,4.0,26.0,-4,6,-4,309.0,51.0,139.0
436,4.0,5.0,-1.0,-4,6,-4,313.0,58.0,118.0
437,2.0,0.0,-16.0,-3,5,0,313.0,58.0,118.0
438,-1.0,-5.0,-9.0,2,7,-3,325.0,22.0,135.0
439,0.0,-3.0,-25.0,3,7,-12,321.0,46.0,144.0
440,2.0,-2.0,-52.0,-8,21,-12,330.0,49.0,132.0
441,0.0,-5.0,-66.0,-13,24,-13,315.0,49.0,145.0
442,2.0,-2.0,-66.0,-11,17,-21,309.0,49.0,148.0
443,1.0,-1.0,-76.0,7,6,-19,321.0,48.0,133.0
444,1.0,0.0,-43.0,28,-12,-13,322.0,45.0,129.0
445,1.0,-2.0,-15.0,10,4,-10,312.0,28.0,135.0
446,2.0,-1.0,-12.0,-5,17,-8,312.0,28.0,135.0
447,2.0,0.0,-97.0,-6,13,-8,325.0,49.0,124.0
448,3.0,2.0,-73.0,0,-3,-10,307.0,60.0,133.0
449,3.0,0.0,-21.0,2,-3,-9,331.0,51.0,130.0
450,2.0,-2.0,-8.0,-3,14,-9,312.0,51.0,145.0
451,2.0,-2.0,-9.0,-3,17,-9,304.0,42.0,123.0
452,2.0,-1.0,-9.0,-4,17,-8,316.0,55.0,118.0
453,2.0,-1.0,-9.0,-4,14,-9,325.0,46.0,129.0
454,2.0,-1.0,-9.0,-4,14,-9,309.0,58.0,130.0
455,2.0,-1.0,-9.0,-4,15,-8,309.0,58.0,130.0
456,3.0,0.0,-9.0,-5,17,-6,310.0,45.0,141.0
457,3.0,0.0,-9.0,-6,17,-8,327.0,69.0,142.0
458,3.0,0.0,-9.0,-5,18,-11,322.0,48.0,138.0
459,4.0,0.0,-9.0,-5,19,-12,334.0,61.0,127.0
460,2.0,-1.0,-2.0,-3,10,-9,327.0,40.0,127.0
461,1.0,-1.0,23.0,-1,13,-6,316.0,40.0,132.0
462,2.0,-2.0,5.0,-2,21,-8,310.0,36.0,127.0
463,4.0,-1.0,-2.0,-2,14,-8,328.0,43.0,136.0
464,2.0,-2.0,34.0,-3,13,-8,333.0,64.0,135.0
465,1.0,-4.0,56.0,-3,11,-6,333.0,64.0,135.0
466,3.0,-3.0,97.0,-6,12,-7,330.0,54.0,123.0
467,3.0,-4.0,76.0,-11,27,-11,319.0,45.0,141.0
468,2.0,-2.0,15.0,-8,28,-10,330.0,43.0,136.0
469,2.0,-1.0,-8.0,-6,17,-8,319.0,49.0,129.0
470,2.0,-1.0,-10.0,-6,15,-10,322.0,42.0,142.0
471,3.0,0.0,-10.0,-6,15,-11,313.0,51.0,150.0
472,3.0,0.0,-10.0,-5,16,-9,325.0,49.0,151.0
473,2.0,-2.0,-9.0,-5,16,-9,325.0,49.0,151.0
474,2.0,-1.0,-9.0,-4,16,-8,312.0,49.0,154.0
475,1.0,-2.0,-9.0,-5,13,-8,316.0,54.0,129.0
476,2.0,-1.0,-9.0,-4,14,-9,315.0,40.0,112.0
477,2.0,-2.0,-9.0,-5,16,-10,304.0,51.0,148.0
478,3.0,0.0,-10.0,-5,15,-9,319.0,70.0,145.0
479,3.0,-1.0,-9.0,-4,16,-8,297.0,33.0,132.0
480,3.0,-2.0,-10.0,-2,17,-8,318.0,43.0,135.0
481,2.0,0.0,-9.0,-3,16,-9,316.0,51.0,135.0
482,2.0,0.0,-8.0,-4,15,-10,316.0,51.0,135.0
483,2.0,-1.0,-9.0,-3,15,-11,315.0,54.0,135.0
484,2.0,-1.0,-9.0,-3,16,-12,322.0,36.0,132.0
485,2.0,-1.0,-9.0,-2,14,-9,306.0,49.0,156.0
486,3.0,0.0,-9.0,-2,13,-7,319.0,54.0,136.0
487,4.0,3.0,-9.0,-2,15,-9,321.0,46.0,132.0
488,4.0,0.0,-9.0,-3,17,-10,321.0,52.0,133.0
489,3.0,-1.0,-9.0,-5,16,-10,321.0,46.0,133.0
490,3.0,-1.0,-9.0,-5,16,-9,321.0,46.0,133.0
491,3.0,-1.0,-9.0,-4,17,-8,316.0,40.0,130.0
492,2.0,-1.0,-9.0,-4,17,-8,298.0,63.0,132.0
493,2.0,-2.0,-9.0,-2,16,-9,288.0,52.0,127.0
494,2.0,-2.0,-9.0,-4,16,-8,322.0,66.0,129.0
495,2.0,-1.0,-9.0,-5,17,-6,306.0,64.0,132.0
496,3.0,-2.0,-10.0,-2,17,-7,318.0,43.0,132.0
497,2.0,-1.0,-9.0,-3,17,-11,312.0,46.0,139.0
498,2.0,0.0,-9.0,-6,18,-9,309.0,57.0,130.0
499,2.0,0.0,-9.0,-6,18,-9,321.0,49.0,133.0
500,2.0,-1.0,-9.0,-5,17,-10,321.0,49.0,133.0
501,2.0,-2.0,-9.0,-4,16,-9,313.0,49.0,121.0
502,2.0,-1.0,-10.0,-5,15,-9,307.0,42.0,136.0
503,2.0,0.0,-10.0,-6,15,-9,316.0,39.0,136.0
504,2.0,-1.0,-10.0,-5,15,-7,325.0,52.0,136.0
505,3.0,-2.0,-9.0,-5,14,-7,309.0,66.0,139.0
506,3.0,-1.0,-9.0,-4,14,-10,297.0,58.0,129.0
507,2.0,0.0,-9.0,-4,16,-10,307.0,58.0,120.0
508,2.0,-1.0,-9.0,-2,16,-9,334.0,61.0,135.0
509,2.0,-1.0,-9.0,-1,15,-8,334.0,61.0,135.0
510,2.0,-1.0,-10.0,-1,15,-8,310.0,58.0,142.0
511,2.0,-1.0,-9.0,-4,17,-8,310.0,58.0,142.0
512,3.0,-1.0,-9.0,-6,15,-8,319.0,57.0,132.0
513,3.0,2.0,-10.0,-4,14,-9,321.0,58.0,136.0
514,0.0,-1.0,-9.0,-3,15,-10,321.0,58.0,136.0
515,1.0,-3.0,-9.0,-3,15,-10,325.0,49.0,129.0
516,1.0,-4.0,-9.0,-3,16,-11,309.0,39.0,138.0
517,0.0,-2.0,-9.0,-5,16,-10,310.0,57.0,151.0
518,1.0,-2.0,-10.0,-5,15,-8,333.0,42.0,151.0
519,5.0,2.0,-11.0,-3,19,-1,333.0,42.0,151.0
520,2.0,-1.0,-15.0,-6,38,-5,330.0,39.0,139.0
521,2.0,-1.0,-16.0,-9,26,-5,316.0,72.0,129.0
522,2.0,-1.0,0.0,-1,6,-2,318.0,52.0,127.0
523,3.0,-1.0,17.0,1,7,-12,321.0,60.0,171.0
524,4.0,2.0,16.0,-12,14,-12,310.0,58.0,139.0
525,3.0,0.0,-14.0,-7,13,-11,312.0,61.0,139.0
526,4.0,1.0,-15.0,12,1,-9,313.0,48.0,136.0
527,4.0,1.0,-15.0,9,35,-7,313.0,48.0,136.0
528,4.0,0.0,-13.0,-2,62,-3,313.0,55.0,139.0
529,2.0,-1.0,-9.0,-2,62,-3,301.0,42.0,121.0
530,2.0,0.0,-6.0,-3,32,12,306.0,64.0,135.0
531,0.0,0.0,-22.0,-6,-4,-4,327.0,43.0,135.0
532,0.0,0.0,-21.0,-10,8,-30,342.0,55.0,147.0
533,4.0,4.0,-8.0,-11,29,-5,318.0,55.0,127.0
534,4.0,7.0,-10.0,-15,4,3,316.0,39.0,115.0
535,0.0,-3.0,-9.0,-14,24,-10,298.0,40.0,144.0
536,4.0,4.0,-47.0,-7,63,-6,325.0,36.0,133.0
537,3.0,-4.0,-51.0,-16,35,-25,325.0,36.0,133.0
538,16.0,11.0,2.0,-27,58,59,297.0,48.0,136.0
539,14.0,23.0,-22.0,-32,57,84,297.0,48.0,136.0
540,12.0,17.0,-4.0,-28,20,66,300.0,30.0,148.0
541,8.0,4.0,28.0,-27,-27,52,312.0,34.0,144.0
542,2.0,-6.0,34.0,-30,-53,-19,307.0,46.0,145.0
543,7.0,4.0,3.0,-12,-35,8,303.0,52.0,136.0
544,9.0,9.0,-2.0,5,-37,-6,318.0,40.0,127.0
545,11.0,7.0,11.0,13,17,-3,307.0,43.0,129.0
546,11.0,7.0,11.0,2,34,0,307.0,43.0,129.0
547,2.0,8.0,11.0,2,34,0,312.0,49.0,136.0
548,2.0,-4.0,-18.0,32,-1,-155,315.0,55.0,123.0
549,-7.0,-21.0,1.0,35,31,-154,297.0,27.0,135.0
550,-4.0,-16.0,-34.0,3,34,9,300.0,46.0,144.0
551,31.0,42.0,5.0,-100,-40,90,303.0,39.0,172.0
552,12.0,10.0,-11.0,-106,-33,23,300.0,31.0,130.0
553,-11.0,-26.0,-35.0,63,-6,-262,310.0,49.0,135.0
554,-11.0,-10.0,-55.0,79,15,-221,304.0,36.0,144.0
555,-12.0,-24.0,-72.0,66,33,-115,306.0,25.0,136.0
556,-1.0,1.0,-32.0,48,4,-88,306.0,25.0,136.0
557,2.0,1.0,-50.0,2,47,7,301.0,42.0,135.0
558,-15.0,-23.0,-53.0,14,85,26,306.0,45.0,151.0
559,8.0,6.0,-48.0,-4,52,71,304.0,21.0,141.0
560,-2.0,2.0,-53.0,9,40,-52,303.0,48.0,165.0
561,-36.0,-49.0,-83.0,52,34,-166,297.0,24.0,132.0
562,-38.0,-50.0,-45.0,37,11,-202,286.0,34.0,160.0
563,-2.0,-7.0,0.0,14,33,36,286.0,34.0,160.0
564,-2.0,-7.0,0.0,12,73,32,304.0,27.0,148.0
565,-4.0,-4.0,-7.0,27,74,-81,280.0,9.0,151.0
566,-16.0,-23.0,0.0,27,74,-81,304.0,13.0,163.0
567,-7.0,-4.0,-7.0,13,92,37,304.0,15.0,148.0
568,3.0,18.0,-5.0,-49,111,-91,297.0,30.0,138.0
569,-18.0,-25.0,-17.0,-61,150,-182,286.0,27.0,139.0
570,-2.0,-4.0,-11.0,-15,105,-177,285.0,30.0,150.0
571,6.0,2.0,-32.0,-4,12,-9,315.0,15.0,141.0
572,-2.0,8.0,-49.0,-41,17,68,280.0,13.0,142.0
573,17.0,41.0,-21.0,-84,15,264,280.0,13.0,142.0
574,16.0,19.0,-9.0,-60,0,306,300.0,21.0,142.0
575,2.0,2.0,-35.0,-15,23,53,289.0,22.0,153.0
576,-2.0,1.0,-40.0,2,45,-34,294.0,18.0,144.0
577,2.0,1.0,-11.0,-14,28,-107,307.0,15.0,147.0
578,1.0,-6.0,7.0,-15,42,-52,298.0,7.0,150.0
579,0.0,-4.0,-5.0,1,37,22,289.0,24.0,144.0
580,2.0,-14.0,-23.0,-14,7,-16,297.0,15.0,141.0
581,5.0,0.0,-9.0,-53,-48,-45,258.0,4.0,151.0
582,-9.0,-44.0,-23.0,-27,10,-60,306.0,15.0,141.0
583,-9.0,-44.0,-23.0,53,82,-39,306.0,15.0,141.0
584,-3.0,-28.0,-16.0,53,82,-39,285.0,24.0,145.0
585,4.0,-6.0,15.0,-1,27,62,279.0,16.0,145.0
586,-7.0,-28.0,-4.0,-17,19,-111,279.0,-1.0,153.0
587,-6.0,-21.0,0.0,26,68,-104,283.0,4.0,163.0
588,-9.0,-18.0,-3.0,66,117,-181,310.0,15.0,141.0
589,-1.0,0.0,16.0,81,36,-102,264.0,1.0,154.0
590,2.0,9.0,-34.0,19,-3,161,276.0,18.0,138.0
591,7.0,6.0,-28.0,-41,25,-11,286.0,10.0,160.0
592,17.0,18.0,2.0,-91,-31,78,274.0,13.0,151.0
593,15.0,-1.0,-18.0,-46,-26,175,274.0,13.0,151.0
594,-31.0,-64.0,-60.0,61,46,-63,271.0,7.0,153.0
595,-4.0,-28.0,-50.0,70,45,-85,286.0,0.0,153.0
596,7.0,1.0,-55.0,-3,57,-2,283.0,9.0,151.0
597,-34.0,-44.0,-55.0,60,110,-150,267.0,15.0,169.0
598,4.0,7.0,-49.0,59,15,-116,283.0,1.0,150.0
599,0.0,-3.0,-37.0,-11,-25,-146,273.0,1.0,141.0
600,8.0,13.0,-33.0,31,-21,-66,291.0,-3.0,168.0
601,8.0,13.0,-33.0,-46,-48,88,291.0,-3.0,168.0
602,18.0,18.0,-31.0,-112,15,73,295.0,1.0,153.0
603,14.0,14.0,-9.0,-112,15,73,282.0,-9.0,168.0
604,-4.0,-21.0,-16.0,-34,57,-52,291.0,4.0,156.0
605,-5.0,-17.0,-19.0,-17,63,-244,286.0,13.0,160.0
606,-5.0,-17.0,-39.0,15,24,-72,270.0,13.0,168.0
607,2.0,1.0,-31.0,55,7,-38,285.0,-3.0,165.0
608,-4.0,-15.0,-21.0,23,-11,-272,270.0,0.0,151.0
609,4.0,-18.0,-44.0,49,12,-203,277.0,7.0,148.0
610,0.0,-7.0,4.0,88,41,-239,279.0,-1.0,150.0
611,-14.0,-16.0,35.0,19,47,-178,274.0,18.0,169.0
612,-2.0,-14.0,8.0,-73,84,101,283.0,4.0,169.0
613,4.0,4.0,13.0,-89,82,144,283.0,4.0,169.0
614,1.0,5.0,13.0,-36,94,-34,265.0,12.0,166.0
615,10.0,18.0,4.0,-40,48,-28,271.0,-16.0,178.0
616,12.0,16.0,42.0,-118,144,165,291.0,6.0,162.0
617,16.0,25.0,18.0,-117,187,261,283.0,9.0,175.0
618,23.0,18.0,11.0,-25,50,127,261.0,10.0,177.0
619,9.0,-4.0,14.0,-33,51,-100,271.0,12.0,154.0
620,9.0,-4.0,14.0,-142,-27,-145,286.0,-6.0,151.0
621,28.0,39.0,37.0,-142,-27,-145,280.0,16.0,177.0
622,27.0,23.0,17.0,-172,-111,34,280.0,16.0,177.0
623,5.0,9.0,0.0,-12,-37,285,277.0,-9.0,156.0
624,8.0,9.0,-29.0,64,-39,146,292.0,-6.0,178.0
625,0.0,9.0,-26.0,-52,-47,86,268.0,10.0,181.0
626,6.0,14.0,5.0,-78,17,115,279.0,-7.0,153.0
627,0.0,-13.0,5.0,38,29,15,291.0,12.0,171.0
628,7.0,-1.0,-32.0,73,17,46,276.0,-12.0,147.0
629,-10.0,-22.0,-72.0,-5,-1,-167,270.0,-6.0,177.0
630,2.0,-4.0,-25.0,-31,-72,-132,256.0,4.0,162.0
631,18.0,12.0,10.0,-106,-74,177,268.0,-12.0,166.0
632,-28.0,-39.0,27.0,-52,30,-301,268.0,-12.0,166.0
633,-6.0,-4.0,21.0,-56,-32,-365,255.0,9.0,154.0
634,4.0,0.0,16.0,-29,-29,113,265.0,4.0,180.0
635,-7.0,-12.0,-32.0,28,41,186,273.0,6.0,166.0
636,-10.0,-17.0,-20.0,-46,21,165,264.0,0.0,165.0
637,9.0,8.0,11.0,-20,-58,64,276.0,7.0,168.0
638,9.0,8.0,11.0,-29,-115,266,267.0,4.0,171.0
639,-4.0,-2.0,-33.0,-29,-115,266,267.0,4.0,171.0
640,-17.0,-42.0,-9.0,-18,3,324,265.0,-4.0,169.0
641,0.0,-4.0,-19.0,-15,27,213,273.0,12.0,177.0
642,-4.0,-2.0,-23.0,-2,-10,155,285.0,-1.0,171.0
643,-30.0,-40.0,-16.0,1,9,13,276.0,7.0,174.0
644,-7.0,-17.0,-29.0,-32,-5,28,280.0,-4.0,162.0
645,3.0,15.0,-8.0,45,19,-78,270.0,4.0,168.0
646,7.0,2.0,-12.0,46,64,-89,250.0,-6.0,180.0
647,-4.0,-14.0,-4.0,-7,48,85,265.0,-4.0,171.0
648,7.0,5.0,-24.0,-11,52,35,261.0,-9.0,171.0
649,10.0,11.0,-52.0,0,21,-7,261.0,-9.0,171.0
650,16.0,25.0,-14.0,28,44,10,270.0,-4.0,199.0
651,16.0,12.0,-9.0,24,18,19,283.0,16.0,159.0
652,-8.0,-11.0,-4.0,7,-30,12,262.0,-3.0,177.0
653,-11.0,-43.0,21.0,0,39,-109,265.0,1.0,162.0
654,0.0,11.0,51.0,2,71,172,280.0,-4.0,169.0
655,3.0,0.0,28.0,-22,36,343,268.0,12.0,174.0
656,2.0,4.0,40.0,3,32,98,258.0,3.0,166.0
657,2.0,4.0,40.0,0,8,-82,271.0,1.0,190.0
658,7.0,11.0,28.0,0,8,-82,282.0,9.0,183.0
659,4.0,3.0,45.0,-14,-30,-174,282.0,9.0,183.0
660,4.0,-1.0,16.0,15,-40,-178,280.0,13.0,169.0
661,5.0,4.0,-35.0,3,-14,-279,282.0,4.0,169.0
662,2.0,6.0,-14.0,-12,0,-204,276.0,3.0,169.0
663,3.0,7.0,-28.0,-28,-14,-4,262.0,4.0,187.0
664,-7.0,-16.0,-23.0,-38,37,-105,270.0,18.0,178.0
665,-5.0,-14.0,-14.0,0,15,-239,261.0,-4.0,165.0
666,7.0,9.0,0.0,14,-8,-96,274.0,-9.0,178.0
667,-9.0,-39.0,-16.0,47,68,-316,267.0,-6.0,162.0
668,-7.0,-22.0,-11.0,19,67,-155,262.0,-1.0,177.0
669,1.0,-7.0,-9.0,-35,33,155,262.0,-1.0,177.0
670,10.0,3.0,4.0,3,37,-127,277.0,-7.0,172.0
671,-14.0,-25.0,9.0,-3,21,-112,279.0,-7.0,172.0
672,-3.0,-6.0,37.0,-4,33,-49,270.0,0.0,172.0
673,20.0,34.0,58.0,-23,-31,-79,276.0,7.0,159.0
674,18.0,29.0,120.0,5,-36,-50,258.0,-7.0,186.0
675,-22.0,-32.0,72.0,23,89,39,256.0,-1.0,175.0
676,-22.0,-32.0,72.0,-25,64,217,256.0,-1.0,175.0
677,0.0,0.0,35.0,-25,64,217,270.0,22.0,187.0
678,16.0,15.0,20.0,-17,36,217,270.0,22.0,187.0
679,14.0,12.0,13.0,12,64,42,256.0,3.0,175.0
680,-8.0,1.0,14.0,-9,15,-34,250.0,9.0,174.0
681,-1.0,-5.0,7.0,-26,-43,-118,261.0,-3.0,175.0
682,4.0,5.0,16.0,-3,-52,-105,271.0,9.0,163.0
683,1.0,-9.0,14.0,0,-22,-42,250.0,-13.0,166.0
684,5.0,7.0,32.0,-1,-31,-40,268.0,4.0,195.0
685,4.0,1.0,1.0,-25,0,-14,282.0,10.0,175.0
686,4.0,0.0,-1.0,-14,12,34,282.0,10.0,175.0
687,16.0,16.0,15.0,5,-24,14,253.0,-4.0,166.0
688,22.0,23.0,61.0,7,-24,-22,276.0,-9.0,166.0
689,19.0,16.0,88.0,-2,1,-15,267.0,6.0,183.0
690,4.0,2.0,73.0,-8,2,3,259.0,12.0,196.0
691,-9.0,-20.0,44.0,14,9,28,250.0,-3.0,175.0
692,-2.0,-9.0,55.0,9,29,16,252.0,10.0,171.0
693,-9.0,-15.0,33.0,6,53,-13,288.0,1.0,178.0
694,-9.0,-15.0,33.0,29,0,5,277.0,12.0,186.0
695,18.0,26.0,38.0,29,0,5,270.0,21.0,168.0
696,3.0,9.0,56.0,25,-41,8,270.0,21.0,168.0
697,-6.0,-9.0,24.0,8,20,-7,271.0,3.0,153.0
698,-4.0,-12.0,11.0,-8,6,11,258.0,10.0,180.0
699,-7.0,-14.0,16.0,2,-4,18,279.0,7.0,175.0
700,9.0,7.0,35.0,7,2,-11,253.0,9.0,180.0
701,2.0,-10.0,32.0,-18,-16,-20,268.0,21.0,165.0
702,0.0,-12.0,34.0,-17,-1,-6,270.0,3.0,180.0
703,14.0,16.0,51.0,-21,18,11,286.0,-4.0,166.0
704,-10.0,-17.0,23.0,-28,41,1,243.0,22.0,175.0
705,-20.0,-37.0,29.0,-8,17,-34,264.0,6.0,184.0
706,0.0,-12.0,53.0,2,-11,-21,264.0,6.0,184.0
707,17.0,15.0,65.0,0,6,1,292.0,21.0,174.0
708,-9.0,-15.0,66.0,-3,-2,2,277.0,1.0,159.0
709,-40.0,-54.0,14.0,-6,5,-19,280.0,19.0,160.0
710,-13.0,-17.0,23.0,4,2,-21,273.0,13.0,178.0
711,1.0,-7.0,74.0,13,-15,13,273.0,18.0,169.0
712,2.0,-1.0,114.0,15,16,10,273.0,7.0,159.0
713,2.0,-1.0,114.0,15,16,10,273.0,7.0,159.0
714,0.0,-5.0,126.0,7,-28,-17,264.0,27.0,183.0
715,1.0,-7.0,104.0,-14,-28,-17,279.0,4.0,186.0
716,3.0,-3.0,64.0,-20,-20,-12,286.0,10.0,172.0
717,2.0,-1.0,6.0,-9,3,-5,259.0,25.0,178.0
718,1.0,-2.0,-8.0,0,17,-7,261.0,6.0,186.0
719,3.0,-9.0,211.0,-8,17,-11,246.0,16.0,181.0
720,1.0,-6.0,154.0,-37,-1,-6,273.0,19.0,171.0
721,2.0,-2.0,18.0,-48,-5,-4,264.0,15.0,189.0
722,2.0,0.0,-11.0,-21,10,-9,271.0,18.0,165.0
723,4.0,0.0,-10.0,-2,17,-10,271.0,18.0,165.0
724,2.0,0.0,-9.0,-3,16,-11,277.0,30.0,178.0
725,2.0,0.0,-9.0,-3,13,-8,268.0,4.0,186.0
726,2.0,-1.0,-9.0,-4,14,-6,261.0,19.0,174.0
727,2.0,-1.0,-9.0,-5,16,-9,256.0,22.0,180.0
728,2.0,-1.0,-9.0,-5,14,-10,279.0,25.0,171.0
729,2.0,-1.0,-9.0,-3,13,-9,274.0,30.0,193.0
730,2.0,-1.0,-9.0,-4,14,-8,259.0,25.0,175.0
731,2.0,-1.0,-9.0,-4,15,-7,270.0,16.0,184.0
732,2.0,-1.0,-11.0,-4,15,-7,270.0,16.0,184.0
733,2.0,-2.0,-9.0,-4,13,-8,264.0,27.0,187.0
734,2.0,-3.0,-9.0,-5,14,-10,271.0,21.0,171.0
735,2.0,-5.0,-9.0,-4,16,-12,267.0,16.0,186.0
736,2.0,-2.0,-9.0,-4,15,-9,271.0,16.0,172.0
737,2.0,-1.0,-9.0,-3,16,-8,271.0,27.0,183.0
738,2.0,0.0,-10.0,-6,16,-11,268.0,12.0,183.0
739,2.0,-2.0,-9.0,-6,14,-10,253.0,12.0,180.0
740,2.0,-2.0,-9.0,-4,13,-7,258.0,10.0,192.0
741,2.0,-1.0,-9.0,-5,12,-5,270.0,19.0,187.0
742,3.0,0.0,-9.0,-5,14,-4,280.0,19.0,181.0
743,2.0,0.0,-9.0,-6,18,-10,270.0,28.0,183.0
744,2.0,0.0,-77.0,-9,35,-12,270.0,28.0,183.0
745,2.0,2.0,-28.0,-6,37,-8,256.0,-6.0,183.0
746,4.0,1.0,-9.0,-3,18,-6,274.0,24.0,198.0
747,3.0,-1.0,-9.0,-3,15,-10,259.0,31.0,183.0
748,3.0,-1.0,-10.0,-5,15,-9,262.0,16.0,184.0
749,3.0,0.0,-9.0,-6,14,-7,277.0,28.0,177.0
750,3.0,0.0,-9.0,-4,15,-9,261.0,7.0,178.0
751,2.0,0.0,-9.0,-4,15,-9,261.0,7.0,178.0
752,2.0,-1.0,-9.0,-3,15,-9,259.0,12.0,190.0
753,1.0,-2.0,-9.0,-5,15,-9,249.0,21.0,172.0
754,4.0,1.0,-10.0,-7,15,-10,250.0,15.0,181.0
755,4.0,0.0,-10.0,-5,14,-10,279.0,40.0,181.0
756,3.0,0.0,-9.0,-5,15,-9,268.0,28.0,165.0
757,2.0,1.0,-9.0,-6,16,-8,262.0,18.0,168.0
758,3.0,0.0,-9.0,-4,15,-11,259.0,39.0,169.0
759,3.0,0.0,-9.0,-2,17,-11,265.0,22.0,168.0
760,2.0,-1.0,-9.0,-4,16,-10,273.0,21.0,186.0
761,3.0,-1.0,-9.0,-4,14,-12,267.0,27.0,162.0
762,2.0,-2.0,-9.0,-3,14,-10,267.0,27.0,162.0
763,2.0,-1.0,-10.0,-2,13,-7,280.0,22.0,183.0
764,2.0,-2.0,-10.0,-4,14,-8,250.0,19.0,168.0
765,2.0,-2.0,-9.0,-5,13,-8,265.0,24.0,172.0
766,3.0,-2.0,-9.0,-6,14,-9,259.0,27.0,186.0
767,2.0,-1.0,-9.0,-5,17,-10,264.0,16.0,163.0
768,2.0,-1.0,-9.0,-4,17,-6,288.0,18.0,168.0
769,2.0,-2.0,-10.0,-4,17,-6,252.0,-3.0,178.0
770,2.0,-1.0,-10.0,-5,14,-8,253.0,19.0,193.0
771,2.0,-1.0,-9.0,-6,14,-11,253.0,19.0,193.0
772,3.0,-2.0,-9.0,-5,15,-10,274.0,21.0,183.0
773,3.0,-8.0,-8.0,-4,13,-11,264.0,16.0,195.0
774,2.0,-4.0,-8.0,-3,11,-8,265.0,22.0,174.0
775,3.0,-1.0,-9.0,-4,12,-5,270.0,19.0,162.0
776,2.0,-2.0,-9.0,-3,14,-8,264.0,15.0,168.0
777,2.0,-2.0,-9.0,-2,14,-8,258.0,1.0,195.0
778,2.0,-1.0,-9.0,-4,13,-11,270.0,1.0,189.0
779,2.0,0.0,-9.0,-4,14,-10,270.0,18.0,177.0
780,1.0,0.0,-9.0,-3,16,-8,270.0,18.0,177.0
781,2.0,0.0,-10.0,-3,15,-12,262.0,27.0,183.0
782,2.0,0.0,-9.0,-5,15,-11,264.0,15.0,181.0
783,2.0,0.0,-9.0,-5,16,-9,267.0,16.0,178.0
784,2.0,-1.0,-10.0,-4,14,-7,247.0,19.0,168.0
785,2.0,-2.0,-10.0,-3,15,-6,259.0,19.0,177.0
786,2.0,0.0,-9.0,-4,15,-10,253.0,1.0,172.0
787,2.0,0.0,-9.0,-3,15,-13,244.0,19.0,192.0
788,2.0,-2.0,-9.0,-3,15,-13,244.0,19.0,192.0
789,3.0,-1.0,-10.0,-4,15,-12,255.0,15.0,181.0
790,2.0,0.0,-9.0,-4,15,-11,265.0,36.0,181.0
791,2.0,-2.0,-9.0,-3,16,-9,270.0,31.0,184.0
792,2.0,-7.0,-9.0,-5,16,-10,261.0,15.0,172.0
793,2.0,-3.0,-9.0,-4,14,-11,259.0,33.0,177.0
794,2.0,-1.0,-9.0,-5,15,-9,253.0,21.0,181.0
795,2.0,-1.0,-9.0,-6,16,-7,258.0,7.0,193.0
796,2.0,-2.0,-8.0,-4,15,-8,274.0,18.0,175.0
797,2.0,-2.0,-9.0,-5,15,-8,264.0,6.0,172.0
798,2.0,-2.0,-9.0,-5,15,-9,264.0,6.0,172.0
799,2.0,-1.0,-9.0,-3,15,-10,271.0,27.0,192.0
800,2.0,-1.0,-9.0,-4,15,-7,262.0,19.0,180.0
