,Gyroscope X (deg/s),Gyroscope Y (deg/s),Gyroscope Z (deg/s),Accelerometer X (g),Accelerometer Y (g),Accelerometer Z (g),Magnetometer X (G),Magnetometer Y (G),Magnetometer Z (G)
1,-1.8,-3.6,0.2,0.114,-0.214,-0.016,-0.058,0.142,-1.186
2,-2.5,-4.0,-0.9,0.114,-0.229,-0.013,-0.051,0.142,-1.17
3,-1.6,-3.7,0.6,0.108,-0.238,-0.001,-0.052,0.138,-1.171
4,-1.1,-2.8,1.5,0.115,-0.239,0.003,-0.054,0.148,-1.174
5,-1.2,-3.1,1.1,0.111,-0.233,-0.006,-0.055,0.141,-1.18
6,-1.1,-2.5,0.6,0.113,-0.234,0.001,-0.069,0.138,-1.174
7,-1.2,-0.9,1.1,0.118,-0.241,0.002,-0.057,0.141,-1.171
8,-3.9,1.8,1.2,0.122,-0.234,-0.021,-0.058,0.139,-1.168
9,0.6,1.2,1.7,0.137,-0.241,0.011,-0.058,0.147,-1.17
10,2.0,-3.5,-1.4,0.089,-0.227,0.046,-0.051,0.145,-1.176
11,2.3,2.4,3.0,0.114,-0.236,0.012,-0.049,0.142,-1.179
12,-0.6,2.3,0.2,0.101,-0.219,-0.006,-0.057,0.15,-1.177
13,0.6,10.6,3.7,0.099,-0.216,0.006,-0.054,0.148,-1.164
14,8.4,62.7,29.5,0.133,-0.162,-0.022,-0.061,0.177,-1.173
15,21.5,152.5,53.6,-0.028,-0.284,0.08,-0.055,0.223,-1.134
16,29.6,221.7,50.6,-0.314,-0.221,0.002,-0.067,0.28,-1.102
17,29.7,209.7,4.4,-0.374,-0.133,-0.03,-0.102,0.357,-1.038
18,7.0,151.3,-6.5,-0.597,-0.207,-0.11,-0.112,0.391,-0.985
19,-9.7,81.2,-6.7,-0.767,-0.241,-0.236,-0.106,0.423,-0.963
20,-1.3,-37.5,-12.0,-0.669,-0.234,-0.203,-0.1,0.424,-0.961
21,-4.4,-29.6,1.1,-0.596,-0.177,-0.197,-0.099,0.417,-0.975
22,-13.5,-43.0,9.7,-0.59,-0.176,-0.163,-0.091,0.405,-0.976
23,0.1,-16.0,30.8,-0.544,-0.187,-0.146,-0.088,0.402,-1.006
24,4.8,35.1,8.5,-0.608,-0.148,-0.174,-0.099,0.408,-0.991
25,6.9,85.4,-11.6,-0.624,-0.159,-0.202,-0.106,0.424,-0.963
26,5.3,65.8,-9.5,-0.701,-0.198,-0.208,-0.108,0.441,-0.925
27,13.3,37.7,-1.7,-0.745,-0.163,-0.326,-0.105,0.456,-0.912
28,15.2,32.6,3.5,-0.734,-0.16,-0.237,-0.105,0.462,-0.892
29,3.5,3.7,4.7,-0.735,-0.148,-0.288,-0.124,0.45,-0.889
30,0.4,-3.7,4.7,-0.745,-0.132,-0.331,-0.118,0.459,-0.889
31,2.0,10.2,5.2,-0.759,-0.148,-0.302,-0.117,0.457,-0.883
32,1.2,4.4,10.0,-0.768,-0.142,-0.312,-0.111,0.463,-0.877
33,1.8,-4.4,5.4,-0.759,-0.126,-0.3,-0.123,0.459,-0.867
34,0.0,-3.0,6.0,-0.774,-0.131,-0.299,-0.129,0.46,-0.877
35,-5.3,-55.5,13.1,-0.783,-0.155,-0.256,-0.126,0.454,-0.883
36,20.9,-281.8,16.8,-0.668,-0.154,-0.287,-0.138,0.43,-0.954
37,26.4,-431.5,39.2,-0.543,-0.153,0.136,-0.133,0.334,-1.051
38,-63.6,-413.0,-9.9,-0.144,-0.16,-0.032,-0.144,0.184,-1.15
39,65.2,-198.5,20.9,0.333,0.019,-0.09,-0.123,0.066,-1.159
40,8.3,-46.9,24.7,0.485,-0.052,-0.032,-0.129,0.027,-1.174
41,8.6,-18.9,-8.8,0.33,0.026,-0.083,-0.138,0.01,-1.173
42,-0.4,34.0,11.8,0.253,-0.064,-0.02,-0.144,0.018,-1.164
43,-0.3,20.0,10.7,0.353,-0.161,0.032,-0.142,0.048,-1.164
44,2.1,-2.6,-2.8,0.283,-0.052,-0.06,-0.145,0.037,-1.17
45,-2.0,-4.2,3.0,0.323,-0.116,0.011,-0.153,0.037,-1.165
46,-3.2,-2.6,0.9,0.29,-0.064,-0.035,-0.142,0.033,-1.168
47,-3.9,3.1,2.5,0.274,-0.08,-0.012,-0.147,0.039,-1.164
48,-5.8,7.8,-4.9,0.307,-0.082,-0.009,-0.147,0.046,-1.167
49,-8.0,38.9,-15.6,0.259,-0.082,0.003,-0.145,0.055,-1.17
50,-39.2,65.3,-37.3,0.251,-0.038,-0.074,-0.136,0.085,-1.165
51,-31.9,88.2,-31.9,0.247,-0.141,0.014,-0.139,0.117,-1.173
52,-40.6,141.1,-20.0,0.054,-0.097,-0.04,-0.115,0.168,-1.153
53,-1.0,282.6,-31.9,-0.004,-0.176,-0.215,-0.105,0.253,-1.116
54,-25.9,298.8,-51.5,-0.364,-0.366,-0.011,-0.087,0.357,-1.039
55,68.1,246.0,-73.5,-0.593,-0.239,-0.208,-0.084,0.438,-0.943
56,42.0,297.2,-45.2,-0.99,-0.204,-0.35,-0.07,0.481,-0.837
57,-36.3,14.2,-36.7,-1.119,-0.198,-0.257,-0.063,0.495,-0.772
58,-31.7,-20.6,10.0,-0.765,-0.255,-0.71,-0.045,0.495,-0.802
59,-12.8,1.4,55.5,-0.629,-0.088,-0.177,-0.034,0.499,-0.783
60,57.8,-343.7,142.8,-0.91,-0.271,-0.576,-0.054,0.481,-0.88
61,35.9,-545.7,185.2,-0.474,-0.099,0.157,-0.088,0.351,-1.03
62,26.1,-524.0,99.1,0.042,0.06,-0.176,-0.159,0.145,-1.132
63,-28.7,-188.8,38.7,0.442,0.13,-0.11,-0.192,0.028,-1.153
64,-6.4,78.8,31.7,0.377,0.13,-0.244,-0.183,0.018,-1.161
65,56.8,391.0,-75.8,-0.049,-0.084,0.178,-0.177,0.148,-1.137
66,-78.3,300.1,-193.6,-0.051,-0.097,0.218,-0.166,0.289,-1.075
67,-52.3,86.3,-119.4,-0.57,-0.238,-0.152,-0.148,0.358,-1.042
68,-14.2,90.6,-52.5,-0.52,-0.221,-0.114,-0.097,0.387,-1.011
69,18.0,-59.8,2.1,-0.819,-0.301,-0.095,-0.064,0.393,-1.014
70,-7.9,85.1,-26.1,-0.379,-0.188,-0.16,-0.064,0.403,-1.014
71,31.0,58.5,-54.8,-0.453,-0.192,-0.195,-0.064,0.406,-1.002
72,12.1,38.3,-129.6,-0.324,-0.103,-0.068,-0.069,0.43,-0.976
73,-12.9,59.1,-132.1,-0.871,-0.356,-0.172,-0.027,0.45,-0.957
74,18.7,-20.9,-62.5,-0.627,-0.307,-0.376,0.019,0.454,-0.954
75,27.0,21.3,-84.9,-0.734,-0.428,-0.13,0.042,0.453,-0.957
76,41.1,-78.7,35.6,-0.236,-0.293,0.006,0.067,0.445,-0.97
77,39.3,-69.9,79.0,-0.46,-0.252,-0.159,0.07,0.421,-0.996
78,51.6,-107.0,127.3,-0.279,-0.116,-0.09,0.037,0.408,-1.033
79,39.6,-65.1,157.6,-0.101,-0.049,0.081,-0.009,0.379,-1.042
80,18.0,-87.9,177.3,0.18,0.112,0.144,-0.073,0.34,-1.062
81,10.7,-83.5,148.2,0.157,0.1,-0.09,-0.114,0.286,-1.092
82,31.9,-52.5,144.8,0.065,0.114,-0.012,-0.171,0.261,-1.098
83,13.0,-65.2,151.1,0.25,0.185,0.08,-0.202,0.208,-1.11
84,-21.1,59.6,47.8,0.051,0.279,-0.116,-0.229,0.184,-1.116
85,-100.1,171.6,-70.6,-0.272,-0.021,0.141,-0.252,0.228,-1.101
86,-126.7,263.6,-179.9,-0.501,-0.166,-0.281,-0.211,0.316,-1.06
87,-7.0,138.7,-119.0,-1.201,-0.729,-0.131,-0.15,0.384,-1.009
88,-56.9,101.7,-77.4,-1.179,-0.511,-0.488,-0.072,0.421,-0.967
89,19.3,-61.1,-21.2,-1.16,-0.491,-0.595,-0.024,0.43,-0.973
90,47.7,-99.8,6.7,-0.558,-0.398,-0.326,0.013,0.421,-0.994
91,99.5,-164.9,24.7,-0.41,-0.338,-0.181,0.001,0.379,-1.05
92,95.7,-87.8,90.8,-0.107,-0.103,-0.07,-0.024,0.355,-1.065
93,67.9,-126.8,99.0,-0.15,-0.118,0.049,-0.075,0.301,-1.093
94,50.5,-81.0,133.3,0.18,0.0,-0.056,-0.129,0.253,-1.102
95,12.7,-122.0,143.2,0.406,0.063,-0.084,-0.156,0.216,-1.107
96,32.6,-32.4,36.3,0.556,0.201,0.002,-0.189,0.168,-1.122
97,63.7,34.7,-35.9,0.221,0.108,0.019,-0.205,0.169,-1.114
98,0.4,83.9,-79.5,0.052,0.062,0.101,-0.237,0.204,-1.098
99,-79.9,100.2,-170.1,-0.034,-0.036,0.002,-0.249,0.259,-1.093
100,-68.1,86.1,-221.5,-0.495,-0.331,0.031,-0.211,0.321,-1.077
101,62.3,102.0,-78.5,-0.92,-0.438,0.184,-0.135,0.372,-1.059
102,-28.7,-52.5,-21.3,-0.822,-0.38,-0.007,-0.07,0.366,-1.065
103,-19.1,23.5,30.0,-0.864,-0.463,-0.006,-0.039,0.372,-1.06
104,93.5,-108.8,126.2,-0.525,-0.328,-0.003,-0.033,0.36,-1.072
105,70.9,-114.8,183.3,-0.144,-0.197,-0.063,-0.052,0.313,-1.09
106,58.2,-102.9,179.2,0.423,0.135,-0.192,-0.114,0.265,-1.11
107,27.0,-39.4,72.7,0.582,0.277,-0.098,-0.177,0.21,-1.114
108,3.9,10.0,-28.4,0.299,0.178,-0.064,-0.214,0.222,-1.11
109,-53.3,90.5,-94.4,-0.085,-0.003,0.013,-0.219,0.249,-1.113
110,31.7,60.6,-55.7,-0.808,-0.322,0.278,-0.201,0.289,-1.093
111,0.0,-22.8,19.1,-0.343,-0.095,-0.021,-0.184,0.291,-1.086
112,-7.6,-3.1,22.1,-0.253,-0.032,-0.009,-0.171,0.279,-1.104
113,-5.8,-1.6,9.7,-0.198,-0.016,-0.051,-0.187,0.285,-1.105
114,-13.9,-37.1,-7.6,-0.185,0.0,0.064,-0.178,0.264,-1.104
115,-47.8,-23.6,-20.4,-0.317,-0.134,0.338,-0.178,0.259,-1.123
116,-84.5,-3.2,-3.9,-0.422,-0.262,0.438,-0.162,0.262,-1.117
117,-35.9,-47.1,16.2,-0.3,-0.33,0.139,-0.126,0.255,-1.134
118,30.2,-86.0,37.8,0.054,-0.095,-0.196,-0.099,0.235,-1.137
119,-29.2,-35.7,23.1,0.011,-0.167,-0.151,-0.109,0.211,-1.137
120,3.2,-51.5,17.6,0.041,-0.17,-0.324,-0.099,0.189,-1.153
121,22.4,-23.6,27.8,0.076,-0.048,-0.452,-0.102,0.174,-1.146
122,52.0,-29.2,-2.0,-0.011,0.014,-0.483,-0.109,0.165,-1.144
123,37.0,-32.9,-2.7,0.114,0.027,-0.374,-0.123,0.15,-1.144
124,-36.6,19.0,-15.6,0.014,-0.171,-0.066,-0.141,0.154,-1.161
125,-8.6,-48.7,-53.3,0.164,-0.13,-0.056,-0.15,0.151,-1.17
126,122.1,64.2,-44.5,-0.189,-0.053,0.994,-0.136,0.16,-1.159
127,13.4,13.0,-8.8,-0.091,0.086,0.643,-0.201,0.166,-1.141
128,-46.4,-0.3,-3.7,-0.149,0.007,0.621,-0.222,0.169,-1.146
129,-54.3,-1.6,36.5,0.127,-0.06,0.167,-0.201,0.181,-1.15
130,0.9,19.5,30.7,0.087,-0.083,0.097,-0.166,0.175,-1.132
131,-58.0,9.8,30.9,0.008,-0.022,-0.269,-0.171,0.165,-1.143
132,-57.7,31.0,24.5,0.03,-0.042,-0.267,-0.169,0.177,-1.141
133,-36.4,4.5,17.1,-0.028,-0.073,-0.285,-0.136,0.184,-1.14
134,-6.9,-15.7,12.1,-0.085,-0.083,-0.318,-0.135,0.186,-1.149
135,23.2,-22.4,0.9,0.011,0.046,-0.494,-0.112,0.175,-1.15
136,-0.4,-27.3,-3.7,-0.003,-0.096,-0.25,-0.127,0.175,-1.159
137,-23.0,-48.9,-22.9,0.175,-0.19,0.013,-0.132,0.157,-1.168
138,18.9,-60.1,-28.9,0.096,-0.194,0.201,-0.129,0.141,-1.171
139,145.1,-28.0,-8.8,0.086,-0.092,0.416,-0.129,0.132,-1.176
140,58.8,0.6,-13.5,0.032,-0.058,0.601,-0.157,0.127,-1.171
141,-17.9,-6.6,0.3,0.065,-0.033,0.572,-0.205,0.12,-1.164
142,-72.1,20.8,6.2,0.147,-0.078,0.301,-0.198,0.145,-1.161
143,-29.0,35.7,8.4,0.144,-0.127,0.182,-0.178,0.144,-1.164
144,6.5,24.4,9.8,0.075,-0.096,-0.07,-0.16,0.154,-1.147
145,-20.0,48.3,20.5,0.069,-0.106,-0.138,-0.154,0.168,-1.131
146,-13.7,0.9,16.4,0.007,-0.052,-0.288,-0.141,0.171,-1.14
147,-11.5,11.6,17.5,-0.106,-0.049,-0.373,-0.141,0.181,-1.138
148,16.6,-0.7,15.2,-0.071,0.004,-0.417,-0.141,0.175,-1.131
149,25.1,-36.5,5.0,-0.014,0.032,-0.429,-0.141,0.165,-1.137
150,-2.3,-29.8,4.8,0.018,-0.122,-0.119,-0.156,0.162,-1.141
151,-15.8,-45.5,0.5,0.16,-0.117,-0.021,-0.162,0.139,-1.164
152,2.9,-50.1,-8.1,0.104,-0.107,0.083,-0.16,0.12,-1.161
153,77.6,-39.6,4.8,0.16,-0.117,0.403,-0.163,0.117,-1.179
154,23.8,-19.6,11.2,0.151,-0.053,0.579,-0.198,0.106,-1.17
155,6.7,10.2,8.8,0.211,0.035,0.595,-0.217,0.106,-1.168
156,-8.6,-25.4,-7.0,0.221,0.044,0.31,-0.223,0.097,-1.165
157,-3.8,71.0,6.8,0.164,0.02,0.126,-0.225,0.117,-1.156
158,-1.4,39.4,-5.1,0.11,-0.058,0.187,-0.198,0.135,-1.138
159,4.2,32.7,-7.1,0.106,-0.006,-0.058,-0.195,0.153,-1.135
160,-15.1,52.4,0.4,-0.002,-0.034,-0.156,-0.202,0.166,-1.125
161,-16.3,22.2,5.6,-0.022,-0.013,-0.326,-0.195,0.193,-1.12
162,-10.3,4.2,12.6,-0.078,-0.018,-0.342,-0.19,0.184,-1.122
163,7.9,-15.0,9.6,-0.061,0.029,-0.363,-0.178,0.18,-1.117
164,12.9,-43.4,-5.6,-0.065,0.008,-0.279,-0.184,0.171,-1.128
165,-0.1,-45.5,6.0,0.033,-0.013,-0.153,-0.178,0.156,-1.132
166,-27.7,-13.9,17.2,0.046,-0.029,-0.013,-0.196,0.148,-1.141
167,-9.4,-28.0,1.6,0.104,-0.06,0.184,-0.19,0.142,-1.149
168,55.6,-41.0,3.5,0.019,-0.06,0.318,-0.196,0.126,-1.153
169,25.4,-23.2,9.4,0.127,0.026,0.297,-0.216,0.108,-1.158
170,16.3,-0.4,3.4,0.104,0.036,0.246,-0.229,0.106,-1.147
171,8.2,9.4,-1.6,0.078,0.031,0.184,-0.244,0.114,-1.147
172,1.7,-13.6,-1.8,0.132,0.062,0.021,-0.259,0.109,-1.146
173,-3.1,9.0,-4.6,0.106,0.033,0.034,-0.256,0.105,-1.15
174,-2.5,-2.3,-3.0,0.098,0.027,0.033,-0.255,0.111,-1.144
175,-3.9,10.2,-3.0,0.09,0.038,0.021,-0.247,0.121,-1.14
176,-3.5,15.9,1.0,0.081,0.037,0.048,-0.249,0.12,-1.141
177,-4.1,-7.4,-2.8,0.068,0.033,0.021,-0.247,0.115,-1.141
178,-4.9,2.1,-1.8,0.097,0.042,0.04,-0.244,0.121,-1.141
179,-4.2,-3.1,-2.9,0.048,0.021,0.068,-0.241,0.124,-1.15
180,-2.5,3.2,-0.5,0.063,0.03,0.038,-0.244,0.132,-1.138
181,-6.3,-0.7,-2.8,0.058,0.034,0.024,-0.235,0.12,-1.143
182,-9.2,12.1,-3.2,-0.077,-0.032,0.11,-0.237,0.139,-1.144
183,-14.5,29.9,13.4,-0.396,-0.143,0.251,-0.229,0.144,-1.141
184,-10.5,27.0,48.7,-0.372,-0.11,0.12,-0.226,0.159,-1.153
185,8.7,-2.4,83.0,-0.295,-0.031,-0.172,-0.226,0.154,-1.138
186,-20.1,11.0,89.1,0.149,0.049,-0.063,-0.231,0.151,-1.138
187,-21.8,-44.3,44.8,0.45,0.04,-0.046,-0.241,0.141,-1.14
188,-21.9,-7.1,22.6,0.478,0.004,-0.024,-0.22,0.12,-1.143
189,4.8,-9.6,-0.7,0.495,-0.025,0.03,-0.214,0.12,-1.14
190,25.4,-15.6,-16.3,0.416,-0.051,0.041,-0.213,0.109,-1.14
191,20.7,-14.2,-44.8,0.376,-0.026,0.072,-0.21,0.109,-1.15
192,4.6,18.9,-42.8,0.178,0.066,-0.184,-0.232,0.123,-1.14
193,-28.7,41.8,-60.4,0.003,-0.03,0.016,-0.252,0.144,-1.149
194,-17.0,-1.4,-66.5,-0.33,-0.108,0.058,-0.231,0.142,-1.143
195,-12.7,1.1,-12.3,-0.3,-0.061,-0.034,-0.226,0.15,-1.137
196,-28.7,-18.0,-26.2,-0.379,-0.123,0.166,-0.217,0.153,-1.131
197,1.9,-21.2,9.2,-0.186,-0.064,-0.039,-0.198,0.133,-1.141
198,-3.2,-8.7,4.6,-0.236,-0.129,0.174,-0.193,0.133,-1.137
199,-4.6,5.5,3.0,-0.472,-0.197,0.271,-0.201,0.133,-1.138
200,18.9,29.3,44.9,-0.652,-0.194,0.184,-0.186,0.139,-1.135
201,13.0,46.6,90.3,-0.494,0.005,-0.275,-0.198,0.15,-1.14
202,-2.1,-38.5,85.6,-0.106,-0.041,-0.055,-0.222,0.154,-1.14
203,-48.2,-33.6,57.8,0.547,0.007,-0.132,-0.243,0.123,-1.135
204,-91.9,-9.8,-6.0,0.745,-0.146,0.268,-0.228,0.135,-1.143
205,5.1,-42.4,-18.2,0.742,-0.043,-0.013,-0.202,0.111,-1.156
206,13.0,20.3,-14.1,0.364,-0.15,0.067,-0.184,0.123,-1.156
207,54.3,-6.4,-19.8,0.487,-0.077,0.106,-0.19,0.12,-1.138
208,47.1,-58.3,-54.4,0.325,-0.076,0.059,-0.199,0.112,-1.141
209,8.7,-10.2,-40.1,0.362,0.022,-0.131,-0.229,0.112,-1.135
210,-71.0,25.1,-46.8,0.043,-0.158,0.241,-0.238,0.127,-1.153
211,-6.4,-5.3,20.8,-0.119,0.016,-0.494,-0.214,0.117,-1.152
212,-39.8,11.2,-21.1,-0.256,-0.096,0.022,-0.219,0.124,-1.147
213,77.0,2.2,15.8,-0.693,-0.146,0.399,-0.193,0.12,-1.135
214,16.8,33.0,40.9,-0.448,-0.024,-0.018,-0.18,0.129,-1.119
215,6.5,8.0,1.6,-0.452,-0.058,0.157,-0.196,0.132,-1.114
216,36.5,-10.7,8.4,-0.531,-0.063,0.129,-0.201,0.142,-1.123
217,50.5,0.7,24.0,-0.607,-0.025,0.009,-0.225,0.142,-1.116
218,65.5,6.5,6.8,-0.065,0.015,0.055,-0.255,0.154,-1.113
219,7.5,-65.7,45.9,0.125,0.139,-0.007,-0.264,0.138,-1.111
220,-23.2,7.4,26.9,0.297,0.109,-0.278,-0.291,0.138,-1.108
221,-65.5,32.1,35.7,0.409,0.069,0.124,-0.276,0.142,-1.11
222,-32.8,-23.8,13.7,0.317,0.031,-0.157,-0.246,0.133,-1.119
223,13.5,-21.8,-6.2,0.576,-0.03,0.2,-0.234,0.121,-1.123
224,38.1,-4.1,-10.9,0.464,-0.042,0.125,-0.231,0.12,-1.119
225,35.5,-9.7,-23.5,0.478,-0.062,0.146,-0.252,0.112,-1.114
226,35.1,-7.4,-33.1,0.413,0.059,0.022,-0.273,0.127,-1.116
227,-4.9,20.0,-47.5,0.109,0.145,-0.279,-0.279,0.129,-1.116
228,-18.6,97.4,-40.6,-0.603,-0.026,0.417,-0.283,0.16,-1.107
229,-41.3,87.9,8.4,-0.74,0.145,-0.205,-0.253,0.193,-1.104
230,-19.6,10.6,-1.0,-0.728,0.001,-0.057,-0.231,0.208,-1.093
231,7.9,-20.2,7.8,-0.419,0.02,-0.021,-0.223,0.201,-1.095
232,10.9,-44.8,5.3,-0.165,0.016,-0.003,-0.229,0.187,-1.099
233,3.9,-26.6,0.4,0.021,0.038,0.049,-0.226,0.178,-1.11
234,2.7,-6.0,-6.5,-0.067,0.03,0.067,-0.222,0.172,-1.104
235,2.3,-0.2,0.4,-0.091,0.027,0.081,-0.237,0.175,-1.108
236,1.1,-4.4,0.2,-0.088,0.031,0.01,-0.241,0.169,-1.104
237,2.8,2.9,-1.6,-0.156,0.027,-0.048,-0.232,0.174,-1.096
238,3.8,2.4,1.1,-0.135,0.011,0.043,-0.244,0.187,-1.111
239,1.8,-8.4,0.6,-0.082,0.037,-0.009,-0.234,0.171,-1.096
240,-0.7,-1.0,1.1,-0.112,0.039,0.004,-0.249,0.18,-1.099
241,-1.1,-2.9,-1.9,-0.139,0.049,0.038,-0.246,0.181,-1.101
242,0.6,-5.9,1.2,-0.122,0.048,0.028,-0.235,0.175,-1.099
243,1.7,-8.1,3.0,-0.095,0.053,0.011,-0.237,0.174,-1.105
244,-0.9,-5.4,5.0,-0.094,0.048,0.031,-0.243,0.18,-1.101
245,-1.7,-6.2,2.6,-0.079,0.039,0.019,-0.244,0.175,-1.102
246,-2.9,-6.5,4.4,-0.056,0.012,0.011,-0.243,0.174,-1.108
247,-1.9,-6.5,5.7,-0.076,0.001,0.008,-0.241,0.172,-1.11
248,-5.4,-12.8,3.5,-0.097,0.07,0.064,-0.241,0.16,-1.11
249,-3.9,-9.9,4.6,-0.192,0.259,0.056,-0.24,0.163,-1.116
250,-7.0,-3.0,-5.3,-0.317,0.342,0.178,-0.237,0.16,-1.117
251,-13.0,-10.7,-11.9,-0.216,0.352,0.154,-0.229,0.165,-1.107
252,-18.8,-19.4,-25.6,-0.03,0.201,-0.133,-0.235,0.168,-1.099
253,-26.8,-39.0,-44.9,0.076,-0.08,0.0,-0.217,0.174,-1.107
254,-19.5,-9.9,3.0,0.084,-0.171,-0.107,-0.192,0.189,-1.131
255,-27.7,3.7,4.4,-0.018,-0.252,0.04,-0.186,0.196,-1.131
256,-8.6,-2.5,2.2,0.108,-0.283,0.113,-0.175,0.21,-1.123
257,2.4,-9.8,-0.4,0.07,-0.328,0.039,-0.183,0.219,-1.14
258,11.6,-7.7,-2.5,0.066,-0.373,-0.08,-0.183,0.216,-1.134
259,-3.5,5.1,-3.0,-0.025,-0.46,0.102,-0.183,0.208,-1.129
260,15.7,1.3,2.1,-0.138,-0.354,0.003,-0.172,0.199,-1.119
261,24.0,-26.4,15.7,-0.121,-0.16,0.011,-0.171,0.165,-1.119
262,-1.4,-20.6,26.8,0.054,0.104,-0.069,-0.198,0.142,-1.129
263,-19.0,-20.4,21.2,-0.057,0.233,0.009,-0.216,0.124,-1.144
264,-23.0,25.2,28.0,-0.01,0.227,0.135,-0.205,0.118,-1.155
265,-10.9,-4.6,20.5,0.04,0.291,0.031,-0.198,0.123,-1.176
266,3.7,-2.3,9.2,0.06,0.312,0.061,-0.198,0.121,-1.17
267,18.6,-8.9,-4.6,0.107,0.28,0.034,-0.196,0.129,-1.167
268,35.0,-9.3,-25.9,0.092,0.241,0.167,-0.204,0.127,-1.144
269,27.5,-7.9,-31.0,0.036,0.178,-0.031,-0.226,0.13,-1.128
270,2.5,16.3,-36.0,-0.035,0.071,0.052,-0.232,0.144,-1.128
271,-20.5,-15.2,-37.0,0.026,-0.015,0.083,-0.235,0.16,-1.122
272,-32.1,0.1,-27.8,-0.069,-0.094,-0.057,-0.217,0.177,-1.114
273,-32.1,-31.7,-28.0,0.128,-0.173,-0.08,-0.19,0.195,-1.128
274,-27.7,-15.5,-29.8,0.05,-0.26,-0.091,-0.163,0.22,-1.162
275,-22.6,-15.1,-12.8,0.004,-0.451,-0.024,-0.136,0.246,-1.177
276,5.8,-1.2,1.2,0.039,-0.529,0.16,-0.135,0.253,-1.177
277,30.8,-8.6,9.5,0.044,-0.452,0.107,-0.126,0.228,-1.165
278,35.2,-31.6,13.7,0.081,-0.36,0.056,-0.141,0.195,-1.14
279,35.9,-11.5,16.3,0.204,-0.163,0.008,-0.162,0.147,-1.135
280,12.3,-10.8,19.1,0.099,-0.019,-0.02,-0.181,0.139,-1.135
281,-12.9,-15.1,21.6,0.047,0.138,-0.106,-0.205,0.124,-1.147
282,-18.4,6.5,31.9,0.043,0.211,-0.129,-0.211,0.097,-1.149
283,-21.0,5.7,24.2,0.076,0.242,0.091,-0.21,0.1,-1.162
284,-13.5,9.1,32.3,0.128,0.286,0.181,-0.198,0.093,-1.182
285,12.3,-0.7,20.0,0.212,0.358,0.099,-0.196,0.1,-1.177
286,22.1,6.9,-2.0,0.295,0.341,0.123,-0.19,0.103,-1.188
287,36.3,0.3,-28.3,0.166,0.289,0.033,-0.211,0.111,-1.17
288,37.8,0.0,-31.5,0.099,0.219,-0.065,-0.219,0.117,-1.144
289,1.1,-9.5,-40.3,0.018,0.091,0.021,-0.234,0.133,-1.122
290,-19.3,-14.2,-33.6,0.03,-0.024,-0.016,-0.238,0.142,-1.114
291,-39.9,27.0,-28.0,0.032,-0.108,-0.039,-0.217,0.168,-1.12
292,-67.5,0.8,-18.7,-0.093,-0.281,-0.084,-0.18,0.207,-1.141
293,-34.5,5.2,-14.6,0.158,-0.348,-0.054,-0.121,0.25,-1.176
294,-19.1,2.7,-4.1,-0.001,-0.54,0.107,-0.109,0.294,-1.209
295,39.1,-20.0,7.7,-0.041,-0.427,0.022,-0.076,0.291,-1.197
296,6.9,-14.4,20.7,-0.018,-0.368,0.033,-0.085,0.237,-1.149
297,67.7,-28.8,34.3,0.061,-0.296,0.164,-0.109,0.193,-1.119
298,48.1,-9.8,43.8,0.13,-0.086,0.118,-0.16,0.142,-1.11
299,-16.6,-8.8,50.1,0.134,0.048,0.051,-0.211,0.123,-1.122
300,-39.8,5.3,59.9,0.105,0.122,-0.139,-0.235,0.112,-1.159
301,-43.2,19.9,57.2,0.174,0.195,-0.029,-0.231,0.109,-1.177
302,-39.4,4.9,43.6,0.198,0.262,0.029,-0.201,0.102,-1.186
303,-18.8,0.7,20.7,0.149,0.322,0.076,-0.193,0.091,-1.2
304,3.6,-3.3,-0.1,0.068,0.325,0.108,-0.184,0.096,-1.204
305,29.7,-8.6,-15.8,0.096,0.287,0.071,-0.172,0.085,-1.192
306,53.9,-15.3,-35.9,0.187,0.232,0.17,-0.184,0.085,-1.177
307,59.6,-15.6,-35.7,0.052,0.157,0.049,-0.205,0.091,-1.156
308,23.1,-9.8,-42.6,0.124,0.095,0.082,-0.237,0.109,-1.137
309,-15.0,-8.1,-37.7,-0.047,-0.005,-0.04,-0.253,0.117,-1.125
310,-41.6,15.8,-28.9,0.138,-0.115,0.084,-0.235,0.139,-1.116
311,-32.9,6.0,-16.4,-0.134,-0.186,-0.188,-0.216,0.181,-1.125
312,-65.8,20.7,-12.8,0.089,-0.368,0.099,-0.178,0.219,-1.135
313,-14.4,-15.4,-5.1,0.077,-0.439,0.034,-0.138,0.238,-1.147
314,9.9,-13.7,0.8,0.133,-0.412,0.113,-0.126,0.235,-1.137
315,-1.4,6.5,5.8,0.102,-0.333,-0.1,-0.13,0.229,-1.138
316,29.4,1.7,11.2,0.091,-0.336,0.163,-0.139,0.193,-1.128
317,42.2,6.2,21.0,0.033,-0.172,0.013,-0.148,0.162,-1.116
318,17.4,16.5,17.0,-0.136,-0.027,-0.094,-0.19,0.15,-1.113
319,-11.2,15.7,37.2,-0.064,0.102,0.045,-0.211,0.141,-1.12
320,-20.0,3.4,38.9,-0.072,0.199,-0.054,-0.226,0.138,-1.14
321,-15.9,13.5,39.2,0.062,0.291,-0.038,-0.228,0.141,-1.158
322,-14.0,-7.6,20.6,0.07,0.318,0.012,-0.226,0.138,-1.176
323,7.7,-15.8,2.9,0.134,0.254,0.067,-0.214,0.121,-1.167
324,21.0,-7.5,-16.1,0.125,0.119,0.211,-0.222,0.123,-1.164
325,12.8,-1.1,-22.9,-0.012,0.042,0.076,-0.214,0.126,-1.159
326,6.4,10.9,-16.1,-0.07,-0.032,0.059,-0.222,0.141,-1.149
327,3.0,12.4,-13.0,-0.093,-0.06,0.003,-0.234,0.142,-1.141
328,6.3,16.2,-5.0,-0.02,-0.039,-0.035,-0.24,0.159,-1.135
329,6.0,-14.3,-6.1,-0.03,-0.005,-0.05,-0.241,0.15,-1.132
330,5.0,-4.0,-0.8,-0.036,0.008,0.005,-0.229,0.145,-1.134
331,1.4,8.1,-2.0,-0.03,0.017,0.062,-0.237,0.15,-1.131
332,-1.8,18.6,-1.4,-0.042,0.035,0.095,-0.234,0.162,-1.128
333,-2.7,-4.1,-4.0,-0.071,0.041,0.107,-0.234,0.165,-1.123
334,-6.1,4.7,-1.4,-0.038,0.056,0.045,-0.241,0.168,-1.135
335,-6.5,1.6,-4.2,-0.063,0.036,0.031,-0.232,0.162,-1.119
336,-4.2,-3.0,-5.9,-0.07,0.033,-0.01,-0.235,0.168,-1.126
337,-1.6,-1.1,-5.3,-0.048,0.038,0.039,-0.231,0.166,-1.117
338,-2.1,0.5,-5.2,-0.086,0.059,0.057,-0.225,0.18,-1.129
339,-4.3,7.8,0.5,-0.063,0.052,0.053,-0.223,0.184,-1.119
340,-8.1,16.3,1.1,-0.078,0.058,0.064,-0.229,0.189,-1.12
341,-8.4,-0.3,-5.8,-0.086,0.032,0.012,-0.22,0.196,-1.113
342,-4.2,-6.0,-8.1,-0.129,-0.017,0.024,-0.217,0.19,-1.107
343,-4.2,-18.4,-6.2,-0.095,-0.028,-0.015,-0.213,0.187,-1.101
344,-1.8,-8.6,-3.0,-0.084,-0.017,-0.006,-0.204,0.172,-1.104
345,6.0,-9.4,-0.4,-0.07,-0.021,0.017,-0.204,0.196,-1.098
346,8.1,-13.8,0.7,-0.047,-0.019,0.034,-0.193,0.187,-1.101
347,13.2,-8.3,5.6,-0.063,0.01,0.025,-0.21,0.189,-1.101
348,14.4,-5.6,7.2,-0.085,0.018,0.078,-0.21,0.186,-1.101
349,13.3,-6.7,8.6,-0.048,0.069,0.035,-0.22,0.18,-1.089
350,6.8,-3.3,4.4,-0.034,0.091,-0.003,-0.226,0.177,-1.087
351,3.2,0.2,3.5,-0.092,0.031,0.127,-0.223,0.187,-1.101
352,4.6,-16.0,8.4,-0.038,0.075,-0.004,-0.231,0.178,-1.093
353,0.0,-14.2,2.0,-0.012,0.077,0.058,-0.235,0.171,-1.108
354,-5.8,-3.7,1.0,0.021,0.116,-0.02,-0.237,0.169,-1.096
355,-10.3,4.7,-3.4,-0.013,0.091,0.039,-0.231,0.174,-1.098
356,-9.7,9.4,-3.9,-0.057,0.06,0.035,-0.22,0.184,-1.086
357,-8.5,0.4,-1.4,-0.085,0.038,0.061,-0.231,0.18,-1.098
358,-5.8,-1.3,1.0,-0.043,0.065,0.021,-0.228,0.181,-1.098
359,-4.6,-0.7,1.5,-0.038,0.042,0.067,-0.229,0.184,-1.101
360,-3.0,-1.3,2.3,-0.059,0.062,0.008,-0.225,0.184,-1.102
361,-1.8,0.6,0.9,-0.045,0.056,0.035,-0.22,0.184,-1.098
362,-0.4,1.8,1.9,-0.054,0.033,0.062,-0.208,0.187,-1.101
363,-2.9,-2.3,-0.1,-0.053,0.051,0.026,-0.22,0.187,-1.086
364,-1.8,-5.8,-1.4,-0.066,0.051,0.006,-0.213,0.18,-1.104
365,-1.8,-6.1,0.9,-0.063,0.049,0.019,-0.22,0.187,-1.09
366,-1.6,-6.0,0.6,-0.055,0.05,0.034,-0.216,0.19,-1.102
367,-1.1,-4.9,0.0,-0.045,0.055,0.016,-0.211,0.186,-1.104
368,-3.2,2.3,1.0,-0.057,0.028,0.078,-0.214,0.187,-1.087
369,-3.5,-4.4,-2.6,-0.055,0.058,0.008,-0.211,0.183,-1.101
370,-1.2,0.7,0.6,-0.06,0.046,0.008,-0.21,0.19,-1.096
371,-0.2,3.3,3.5,-0.088,0.016,0.096,-0.211,0.187,-1.101
372,-1.4,-3.5,2.1,-0.055,0.05,0.02,-0.223,0.186,-1.098
373,-0.4,-4.8,0.4,-0.06,0.055,0.007,-0.217,0.187,-1.092
374,-0.8,1.0,1.7,-0.073,0.023,0.073,-0.216,0.193,-1.104
375,-1.9,-1.7,1.1,-0.063,0.031,0.076,-0.21,0.192,-1.099
376,-1.1,-2.3,2.5,-0.084,0.028,0.038,-0.213,0.195,-1.095
377,1.0,-5.3,2.7,-0.053,0.06,-0.001,-0.213,0.189,-1.098
378,-0.1,-5.3,-0.5,-0.065,0.045,0.03,-0.214,0.196,-1.095
379,0.0,-1.1,0.9,-0.061,0.043,0.029,-0.216,0.186,-1.089
380,-0.1,-0.6,0.1,-0.069,0.039,0.049,-0.216,0.193,-1.096
381,-0.8,4.1,2.3,-0.078,0.02,0.088,-0.216,0.198,-1.098
382,0.1,-1.7,1.3,-0.08,0.05,0.017,-0.214,0.192,-1.099
383,-0.2,-6.7,-1.0,-0.054,0.073,-0.004,-0.213,0.187,-1.099
384,0.0,0.2,0.4,-0.079,0.035,0.055,-0.214,0.19,-1.102
385,3.8,2.5,4.5,-0.076,0.039,0.052,-0.205,0.187,-1.086
386,-0.4,-2.9,1.2,-0.062,0.066,0.028,-0.225,0.187,-1.093
387,-0.4,-6.5,-0.7,-0.077,0.065,0.005,-0.214,0.193,-1.092
388,1.4,-4.3,2.3,-0.086,0.036,0.048,-0.223,0.192,-1.092
389,-0.3,-4.7,1.8,-0.065,0.059,0.046,-0.22,0.195,-1.102
390,1.3,-5.5,2.3,-0.063,0.057,0.025,-0.22,0.189,-1.099
