magX[mG],magY[mG],magZ[mG],gyroX[mdps],gyroY[mdps],gyroZ[mdps],accX[mg],accY[mg],accZ[mg],hh:mm:ss.ms
354,28,-607,2,-1,-13,-3,7,999,20:57:31
322,24,-597,2,-1,-13,-3,7,999,20:57:31
322,24,-597,2,-1,-13,-3,7,999,20:57:31
322,24,-597,2,-1,-13,-3,7,999,20:57:31
322,24,-597,2,-1,-13,-3,7,999,20:57:31
322,24,-597,2,-1,-13,-3,7,999,20:57:31
322,24,-597,2,-1,-13,-3,7,999,20:57:31
322,24,-597,2,-1,-13,-3,7,999,20:57:31
322,24,-597,2,-1,-13,-3,7,999,20:57:31
322,24,-597,2,-1,-13,-3,7,999,20:57:31
322,24,-597,2,-1,-13,-3,7,999,20:57:31
322,24,-597,2,-1,-13,-3,7,999,20:57:31
322,24,-597,2,-1,-13,-3,7,999,20:57:31
322,24,-597,2,-1,-13,-3,7,999,20:57:31
322,24,-597,2,-1,-13,-3,7,999,20:57:31
322,24,-597,2,-1,-13,-3,7,999,20:57:31
322,24,-597,2,-1,-13,-3,7,999,20:57:31
322,24,-597,2,-1,-13,-3,7,999,20:57:31
322,24,-597,2,-1,-13,-3,7,999,20:57:31
322,24,-597,2,-1,-13,-3,7,999,20:57:31
322,24,-597,2,-1,-13,-3,7,999,20:57:31
322,24,-597,2,-1,-13,-3,7,999,20:57:31
322,24,-597,2,-1,-13,-3,7,999,20:57:31
322,24,-597,2,-1,-13,-3,7,999,20:57:31
322,24,-597,2,-1,-13,-3,7,999,20:57:31
322,24,-597,2,-1,-13,-3,7,999,20:57:31
322,24,-597,2,-1,-13,-3,7,999,20:57:31
322,24,-597,2,-1,-13,-3,7,999,20:57:31
322,24,-597,2,-1,-13,-3,7,999,20:57:31
322,24,-597,2,-1,-13,-3,7,999,20:57:31
322,24,-597,2,-1,-13,-3,7,999,20:57:31
322,24,-597,2,-1,-13,-3,7,999,20:57:31
322,24,-597,2,-1,-13,-3,7,999,20:57:31
322,24,-597,2,-1,-13,-3,7,999,20:57:31
322,24,-597,2,-1,-13,-3,7,999,20:57:31
322,24,-597,2,-1,-13,-3,7,999,20:57:31
322,24,-597,2,-1,-13,-3,7,999,20:57:31
322,24,-597,2,-1,-13,-3,7,999,20:57:31
322,24,-597,2,-1,-13,-3,7,999,20:57:31
322,24,-597,2,-1,-13,-3,7,999,20:57:31
322,24,-597,2,-1,-13,-3,7,999,20:57:31
322,24,-597,2,-1,-13,-3,7,999,20:57:31
322,24,-597,2,-1,-13,-3,7,999,20:57:31
322,24,-597,2,-1,-13,-3,7,999,20:57:31
322,24,-597,2,-1,-13,-3,7,999,20:57:31
322,24,-597,2,-1,-13,-3,7,999,20:57:31
322,24,-597,2,-1,-13,-3,7,999,20:57:31
322,24,-597,2,-1,-13,-3,7,999,20:57:31
322,24,-597,2,-1,-13,-3,7,999,20:57:31
322,24,-597,2,-1,-13,-3,7,999,20:57:31
322,24,-597,2,-1,-13,-3,7,999,20:57:31
322,24,-597,2,-1,-13,-3,7,999,20:57:31
322,24,-597,2,-1,-13,-3,7,999,20:57:31
322,24,-597,2,-1,-13,-3,7,999,20:57:31
322,24,-597,2,-1,-13,-3,7,999,20:57:31
322,24,-597,2,-1,-13,-3,7,999,20:57:31
322,24,-597,2,-2,-12,-3,4,1002,20:57:31
348,21,-600,2,0,-14,-3,4,1002,20:57:31
348,21,-600,2,-1,-14,-5,3,1001,20:57:31
342,16,-607,1,-1,-14,-1,7,999,20:57:31
340,18,-586,2,0,-14,-1,6,1000,20:57:31
340,6,-586,2,0,-14,-5,5,1001,20:57:31
367,27,-600,2,-1,-14,-7,5,1000,20:57:31
345,30,-583,1,-2,-14,-6,5,1000,20:57:31
313,33,-589,1,-3,-14,-4,5,999,20:57:31
330,21,-588,2,-2,-14,-4,6,999,20:57:31
358,7,-582,2,0,-14,-6,5,999,20:57:31
358,7,-582,2,-2,-14,-5,5,999,20:57:31
360,18,-606,2,-3,-14,-5,6,1001,20:57:31
352,24,-588,2,-2,-13,-5,5,1000,20:57:31
348,15,-586,2,-2,-13,-3,3,1002,20:57:31
348,33,-604,2,-2,-13,-3,3,1002,20:57:31
354,27,-603,2,-2,-13,-3,4,1000,20:57:32
351,37,-612,2,-2,-14,-2,4,999,20:57:32
336,28,-585,2,-1,-14,-1,4,1001,20:57:32
346,34,-594,2,-2,-14,-4,4,1002,20:57:32
348,18,-595,2,-2,-14,-3,8,1000,20:57:32
351,21,-598,2,-2,-13,-3,8,1000,20:57:32
343,25,-607,2,-2,-13,-3,5,999,20:57:32
337,27,-595,2,-1,-14,-3,5,999,20:57:32
337,27,-595,2,-1,-13,-4,6,999,20:57:32
346,21,-589,2,-2,-14,-3,6,1000,20:57:32
357,24,-588,2,-2,-14,-4,6,999,20:57:32
346,16,-601,2,-2,-13,-6,6,1001,20:57:32
342,28,-586,1,-2,-14,-4,6,1001,20:57:32
340,18,-598,2,-2,-14,-5,7,1001,20:57:32
346,19,-592,2,-2,-14,-6,8,999,20:57:32
316,24,-594,2,-2,-14,-3,5,999,20:57:32
337,9,-582,2,-2,-14,-3,3,1000,20:57:32
345,18,-594,2,-1,-13,-4,5,1000,20:57:32
342,22,-595,1,-2,-14,-5,7,999,20:57:32
342,28,-603,2,-4,-14,-5,8,1000,20:57:32
339,9,-574,2,-2,-14,-4,6,1002,20:57:32
339,9,-574,2,-2,-14,-5,5,1000,20:57:32
328,21,-585,2,-2,-13,-5,6,1000,20:57:32
340,37,-580,2,-2,-14,-5,6,1000,20:57:32
340,37,-580,2,-2,-12,-6,7,1001,20:57:32
339,31,-586,2,-2,-14,-5,6,1001,20:57:32
333,31,-586,2,-2,-13,-5,5,1002,20:57:32
333,31,-586,3,-1,-14,-5,6,1001,20:57:32
337,33,-601,2,-2,-14,-3,5,1000,20:57:32
337,13,-604,2,-2,-14,-2,6,1001,20:57:32
337,31,-588,2,-2,-14,-2,6,1000,20:57:32
336,27,-606,2,-2,-14,-1,5,1000,20:57:32
343,12,-618,2,-2,-14,-3,4,1001,20:57:32
336,19,-588,2,-3,-14,-6,5,1003,20:57:32
345,21,-604,2,-1,-13,-5,4,1001,20:57:32
345,21,-604,2,-2,-14,-4,5,1000,20:57:32
343,10,-600,2,-2,-14,-2,5,1001,20:57:32
346,22,-606,2,-2,-14,-3,6,999,20:57:32
348,6,-600,1,-2,-14,-5,3,999,20:57:32
331,28,-579,1,-2,-14,-6,4,998,20:57:32
331,28,-579,2,0,-13,-6,4,998,20:57:32
354,16,-594,2,0,-14,-5,5,1001,20:57:32
348,39,-595,2,-1,-14,-3,4,1001,20:57:32
358,12,-604,2,-1,-14,-4,7,1000,20:57:32
340,33,-604,2,-1,-13,-4,6,1001,20:57:32
360,24,-595,2,-2,-14,-2,3,1000,20:57:32
333,19,-594,2,-2,-13,-3,2,1000,20:57:32
331,13,-610,2,-2,-13,-4,3,1003,20:57:32
351,34,-612,1,-2,-14,-4,5,1001,20:57:32
346,27,-594,1,-1,-14,-2,6,1000,20:57:32
343,21,-588,2,-1,-14,-4,7,1000,20:57:33
343,21,-588,2,-2,-14,-4,6,1001,20:57:33
346,39,-600,2,-2,-14,-4,5,1002,20:57:33
352,10,-601,2,-2,-14,-4,6,1001,20:57:33
355,15,-607,2,-2,-14,-3,6,1001,20:57:33
351,10,-598,1,-4,-13,-4,5,1001,20:57:33
349,27,-603,1,-1,-13,-4,6,1001,20:57:33
358,28,-595,2,-1,-14,-4,6,1000,20:57:33
330,28,-612,2,-2,-14,-4,6,1000,20:57:33
361,36,-604,2,-2,-14,-3,6,1002,20:57:33
334,18,-604,1,0,-14,-4,7,1003,20:57:33
342,31,-583,2,-1,-14,-6,5,1002,20:57:33
352,30,-600,3,-2,-13,-5,4,1001,20:57:33
352,27,-591,4,-2,-14,-4,5,1001,20:57:33
343,22,-601,3,-2,-14,-6,6,1000,20:57:33
342,13,-607,2,-2,-14,-4,6,1001,20:57:33
355,25,-604,2,0,-14,-2,5,1001,20:57:33
355,25,-604,2,0,-14,-2,5,999,20:57:33
357,21,-586,2,-1,-14,-4,6,1001,20:57:33
345,27,-603,2,-2,-13,-6,7,1000,20:57:33
363,28,-595,2,-2,-13,-6,4,998,20:57:33
351,16,-597,1,-2,-13,-6,4,1001,20:57:33
364,28,-589,2,-2,-13,-6,5,999,20:57:33
361,21,-610,2,-2,-14,-5,5,998,20:57:33
354,16,-595,2,-3,-14,-4,4,998,20:57:33
340,18,-609,2,-2,-13,-5,3,999,20:57:33
339,22,-609,2,-2,-14,-5,3,999,20:57:33
345,19,-595,1,-1,-13,-4,4,998,20:57:33
334,33,-598,2,0,-14,-4,4,999,20:57:33
343,25,-600,2,-2,-14,-5,3,1001,20:57:33
333,22,-594,2,-2,-14,-4,3,1003,20:57:33
349,25,-603,2,-1,-13,-3,3,1002,20:57:33
349,25,-603,2,-2,-13,-5,5,1001,20:57:33
360,21,-597,2,0,-13,-6,5,1001,20:57:33
358,7,-604,2,-2,-13,-6,5,1000,20:57:33
345,31,-628,2,-2,-13,-5,4,1000,20:57:33
345,24,-588,2,-2,-13,-2,2,1001,20:57:33
355,18,-603,2,-2,-14,-1,3,1001,20:57:33
351,21,-594,2,-3,-14,-5,5,1000,20:57:33
342,28,-591,1,-2,-14,-4,6,1000,20:57:33
343,22,-598,1,-2,-14,-3,5,1001,20:57:33
339,33,-601,2,-1,-14,-4,6,1001,20:57:33
319,28,-574,2,-2,-13,-3,7,999,20:57:33
339,7,-612,2,-1,-13,-3,7,999,20:57:33
342,27,-588,2,-2,-13,-5,6,999,20:57:33
336,33,-583,2,-2,-14,-6,5,1002,20:57:33
339,13,-603,2,-2,-14,-5,5,1004,20:57:33
339,13,-603,1,-1,-13,-5,6,1001,20:57:33
345,28,-600,2,-2,-14,-3,5,1000,20:57:33
328,21,-577,2,-2,-14,-3,5,1001,20:57:33
339,31,-600,1,-1,-14,-5,5,1002,20:57:33
348,30,-597,1,0,-14,-5,6,1002,20:57:34
318,25,-603,1,0,-14,-6,4,999,20:57:34
361,28,-606,1,-2,-14,-7,0,1000,20:57:34
352,28,-607,2,-2,-14,-6,1,1000,20:57:34
348,39,-598,2,-2,-13,-6,5,999,20:57:34
340,12,-597,1,-1,-14,-5,4,1000,20:57:34
331,24,-601,1,-1,-13,-5,4,1002,20:57:34
358,22,-589,2,-1,-14,-3,3,1000,20:57:34
358,22,-589,2,-2,-14,-4,2,998,20:57:34
337,15,-579,2,-2,-14,-6,8,1001,20:57:34
337,15,-579,2,-2,-14,-6,8,1001,20:57:34
343,15,-595,2,-2,-13,-5,5,1001,20:57:34
349,33,-603,2,-1,-13,-5,3,999,20:57:34
346,19,-603,1,-2,-14,-4,3,1000,20:57:34
364,22,-597,1,-2,-13,-4,4,1000,20:57:34
358,4,-604,1,-1,-14,-5,4,999,20:57:34
346,27,-618,2,0,-13,-5,5,1000,20:57:34
348,46,-598,2,-2,-14,-6,5,1001,20:57:34
339,13,-598,2,-2,-14,-5,6,1001,20:57:34
340,13,-595,2,-2,-14,-4,6,1000,20:57:34
354,16,-597,1,-1,-14,-4,4,1001,20:57:34
349,24,-601,1,-2,-13,-5,6,1001,20:57:34
345,18,-595,2,-1,-14,-5,4,1002,20:57:34
348,21,-604,2,-1,-14,-5,3,1002,20:57:34
348,21,-604,2,0,-14,-5,4,1003,20:57:34
346,39,-604,2,-2,-14,-4,3,1002,20:57:34
340,24,-583,2,-2,-14,-6,6,1002,20:57:34
343,12,-583,2,-2,-13,-7,4,1003,20:57:34
346,16,-601,2,-3,-14,-7,4,1003,20:57:34
334,34,-607,2,-2,-14,-5,4,1001,20:57:34
351,-1,-612,2,-2,-13,-4,6,1000,20:57:34
351,31,-607,2,-1,-14,-5,5,1000,20:57:34
348,25,-594,2,-1,-13,-4,4,1000,20:57:34
339,22,-595,2,-1,-14,-3,3,1001,20:57:34
333,19,-610,2,-2,-14,-4,4,999,20:57:34
339,30,-601,2,-1,-14,-4,3,998,20:57:34
331,28,-574,2,-2,-14,-3,4,1000,20:57:34
351,30,-610,2,-2,-14,-3,5,1001,20:57:34
349,24,-598,2,-2,-14,-3,4,1000,20:57:34
327,28,-603,2,-2,-14,-3,4,1000,20:57:34
345,7,-606,2,-1,-14,-4,5,1001,20:57:34
346,31,-585,2,-2,-14,-6,6,999,20:57:34
330,25,-592,2,-3,-14,-5,8,999,20:57:34
339,22,-606,2,-2,-13,-3,7,1000,20:57:34
339,22,-606,2,-3,-13,-3,8,1002,20:57:34
345,30,-613,2,-2,-14,-3,8,1002,20:57:34
345,30,-613,2,0,-14,-3,7,999,20:57:34
346,33,-595,1,-1,-14,-3,6,999,20:57:34
351,19,-619,1,-2,-14,-5,6,1001,20:57:34
352,16,-585,2,-1,-13,-5,6,1000,20:57:34
327,18,-621,2,-1,-14,-3,5,999,20:57:34
358,7,-610,2,-2,-14,-5,3,1001,20:57:35
352,25,-591,2,-2,-14,-5,5,999,20:57:35
342,18,-613,2,-3,-14,-3,7,998,20:57:35
358,36,-577,2,-2,-14,-2,4,1001,20:57:35
349,19,-621,2,-3,-13,-2,5,1001,20:57:35
334,15,-606,2,-2,-13,-4,7,1000,20:57:35
340,22,-603,2,-2,-14,-5,7,1000,20:57:35
334,43,-594,2,-1,-14,-5,6,1001,20:57:35
363,24,-604,2,0,-14,-5,8,1001,20:57:35
366,31,-604,2,0,-14,-6,7,1001,20:57:35
343,25,-597,1,-2,-14,-2,6,1002,20:57:35
348,33,-598,2,-2,-14,-2,6,1002,20:57:35
348,28,-568,2,-1,-14,-2,6,1001,20:57:35
348,28,-568,2,-1,-14,-1,8,999,20:57:35
333,52,-610,1,-1,-14,-3,9,1000,20:57:35
337,21,-586,2,-1,-14,-5,6,999,20:57:35
336,19,-582,3,-2,-14,-4,5,998,20:57:35
357,19,-600,1,-2,-14,-4,5,1000,20:57:35
334,42,-592,1,-1,-14,-4,5,1000,20:57:35
319,27,-586,2,0,-13,-4,5,999,20:57:35
331,10,-598,1,-2,-14,-4,6,1002,20:57:35
346,22,-597,2,-3,-13,-4,6,1003,20:57:35
342,18,-607,2,-2,-12,-4,4,1001,20:57:35
331,31,-589,2,-1,-14,-6,7,1002,20:57:35
336,33,-627,3,-2,-14,-6,6,1001,20:57:35
354,30,-609,3,-1,-14,-4,2,1001,20:57:35
330,30,-580,2,-2,-14,-5,4,999,20:57:35
342,34,-612,2,-2,-14,-5,6,999,20:57:35
339,18,-598,2,-2,-14,-2,5,1001,20:57:35
355,28,-607,2,-3,-14,-2,5,1001,20:57:35
325,31,-610,2,-2,-14,-4,3,1001,20:57:35
325,31,-610,2,-3,-14,-4,2,1002,20:57:35
345,30,-630,1,-2,-14,-2,2,1003,20:57:35
325,22,-594,2,-2,-14,-4,4,1002,20:57:35
325,22,-594,3,-2,-14,-6,5,1002,20:57:35
352,24,-589,2,-3,-13,-3,6,1002,20:57:35
360,24,-604,2,-2,-13,-1,4,1000,20:57:35
324,19,-597,2,-2,-14,-2,3,999,20:57:35
337,24,-603,2,-2,-15,-4,5,1000,20:57:35
316,25,-583,2,-2,-16,-6,7,1001,20:57:35
348,25,-598,3,-3,-18,-6,7,1002,20:57:35
333,34,-613,3,-5,-19,-5,5,1000,20:57:35
345,34,-595,2,-1,-23,-8,13,1017,20:57:35
340,24,-595,-2,-2,-33,-12,13,1021,20:57:35
340,24,-595,0,0,-51,-6,4,1004,20:57:35
337,21,-615,4,-6,-29,5,-5,997,20:57:35
342,18,-597,3,-5,-14,5,1,998,20:57:35
345,18,-571,2,-3,-11,5,1,998,20:57:35
361,25,-604,1,-4,-13,-4,6,1001,20:57:35
340,18,-607,2,-6,-13,-3,5,1000,20:57:35
349,16,-604,2,-4,-13,-3,5,1000,20:57:36
348,4,-597,-18,19,-11,-6,5,1001,20:57:36
334,16,-597,-19,53,-14,10,-9,992,20:57:36
352,31,-592,-20,77,-12,6,-10,992,20:57:36
348,19,-607,-16,104,-14,-4,4,999,20:57:36
342,10,-583,-7,68,-13,-4,6,1001,20:57:36
352,22,-610,0,10,-5,-21,8,1007,20:57:36
331,34,-600,1,-10,1,-23,10,1003,20:57:36
357,22,-615,2,7,-4,-18,10,1001,20:57:36
340,25,-600,1,25,-13,-13,9,1002,20:57:36
331,9,-621,0,28,-16,-14,9,1000,20:57:36
331,9,-621,2,9,-14,-18,8,1002,20:57:36
352,28,-594,7,-23,-16,-21,7,1005,20:57:36
363,4,-606,6,-6,-19,-16,9,1003,20:57:36
372,30,-588,4,20,-21,-15,10,1000,20:57:36
351,34,-613,3,12,-18,-15,10,1000,20:57:36
366,21,-612,1,6,-16,-19,8,1002,20:57:36
333,21,-588,0,32,-22,-18,11,999,20:57:36
349,34,-612,4,29,-25,-19,13,996,20:57:36
340,21,-607,4,18,-14,-22,8,1003,20:57:36
342,36,-592,6,7,-14,-23,6,1004,20:57:36
352,28,-616,5,4,-11,-27,10,999,20:57:36
337,33,-598,4,-18,-6,-25,10,1000,20:57:36
352,33,-603,3,-46,-4,-25,8,1003,20:57:36
343,31,-601,2,-24,-2,-22,9,1002,20:57:36
330,22,-586,0,12,-11,-17,8,999,20:57:36
327,25,-601,2,21,-18,-21,13,996,20:57:36
342,34,-595,-9,60,-7,-20,12,996,20:57:36
354,28,-603,-5,44,-9,-19,9,996,20:57:36
354,28,-603,9,10,-1,-30,13,998,20:57:36
367,39,-609,4,16,-13,-29,12,1000,20:57:36
339,22,-595,2,7,-14,-27,5,1001,20:57:36
366,33,-594,2,-21,-11,-27,5,1001,20:57:36
355,19,-612,1,-11,-14,-32,7,1002,20:57:36
358,15,-600,0,11,-14,-22,11,998,20:57:36
354,33,-592,-1,-3,-9,-22,10,999,20:57:36
342,22,-604,-7,-15,9,-27,6,1003,20:57:36
349,34,-619,3,-14,-8,-29,8,1010,20:57:36
342,33,-610,7,7,-18,-19,10,1006,20:57:36
358,10,-607,4,17,-17,-19,7,996,20:57:36
354,22,-607,0,17,-15,-26,8,999,20:57:36
340,18,-601,3,-4,-13,-26,8,1002,20:57:36
346,21,-592,7,-15,-13,-29,9,1002,20:57:36
346,21,-592,6,-2,-9,-21,10,1000,20:57:36
334,19,-580,4,-5,-10,-22,7,999,20:57:36
334,19,-580,9,-9,-9,-31,7,1002,20:57:36
333,33,-610,19,-23,0,-31,12,1004,20:57:36
336,18,-577,11,0,14,-27,12,1004,20:57:36
339,30,-603,11,8,105,-7,39,1001,20:57:36
340,27,-619,-1,-13,135,1,36,1018,20:57:36
348,39,-594,0,-75,147,1,36,1018,20:57:36
340,28,-601,18,-67,77,-12,43,1004,20:57:37
349,34,-606,16,-26,46,-13,34,1005,20:57:37
346,31,-607,-3,16,42,-10,41,985,20:57:37
339,22,-613,-9,25,14,-11,64,968,20:57:37
331,33,-613,1,21,45,-15,69,1004,20:57:37
340,25,-583,-7,14,51,-45,58,1029,20:57:37
340,25,-583,9,5,46,-72,53,995,20:57:37
351,30,-609,10,-2,-79,-50,73,965,20:57:37
348,34,-618,22,5,-221,-21,111,1017,20:57:37
355,33,-615,16,-14,-231,1,109,1051,20:57:37
346,24,-606,15,5,-210,-5,67,1005,20:57:37
339,16,-604,21,18,-123,-25,40,1023,20:57:37
346,34,-601,-9,14,-139,-17,31,1058,20:57:37
366,28,-612,-15,22,-164,-3,53,978,20:57:37
339,37,-592,-12,-4,-93,-12,101,936,20:57:37
349,18,-598,-8,-10,4,-26,38,944,20:57:37
346,30,-612,-17,-44,40,-26,38,944,20:57:37
348,16,-615,13,4,46,-54,37,981,20:57:37
330,25,-618,-16,-32,-24,-54,46,1115,20:57:37
355,33,-604,-45,-33,-169,-67,66,1089,20:57:37
355,33,-604,9,-70,-223,-34,69,949,20:57:37
343,4,-604,13,-63,-242,14,54,925,20:57:37
349,15,-613,39,6,-212,-4,45,989,20:57:37
346,18,-619,20,-4,-211,-13,47,988,20:57:37
369,25,-610,0,-39,-254,-9,49,945,20:57:37
345,16,-618,-11,-73,-232,-25,67,948,20:57:37
354,21,-607,11,-87,-129,-7,53,989,20:57:37
348,0,-600,13,-49,-53,29,2,972,20:57:37
351,21,-616,6,-30,-103,21,-18,990,20:57:37
355,6,-589,-14,-30,-181,12,5,1001,20:57:37
327,13,-631,-65,2,-235,2,17,990,20:57:37
345,13,-600,-47,-18,-154,-9,40,999,20:57:37
339,12,-609,-7,2,-77,-34,-23,986,20:57:37
346,21,-616,7,-14,-93,-23,-15,1010,20:57:37
358,12,-622,-23,-23,-114,-23,-15,1010,20:57:37
363,-4,-621,-9,-58,-89,0,15,1036,20:57:37
361,1,-591,31,-50,-49,9,0,1020,20:57:37
346,15,-616,59,-42,-87,0,-38,1047,20:57:37
346,15,-616,30,-28,-136,-35,-50,1101,20:57:37
352,-1,-589,6,-39,-97,-50,-52,1048,20:57:37
352,4,-600,-3,-28,39,-7,-56,976,20:57:37
339,15,-600,-3,0,85,40,-56,1022,20:57:37
334,22,-619,-2,-6,3,-7,-38,1052,20:57:37
334,3,-603,-3,-29,-116,-61,1,1023,20:57:37
355,-4,-601,-2,-27,-125,-31,-6,1011,20:57:37
330,3,-606,-5,-13,-49,14,-55,998,20:57:37
366,0,-604,-25,9,0,10,-69,1016,20:57:37
351,1,-610,-15,1,13,-23,-23,1000,20:57:37
358,4,-580,-28,-2,15,-10,5,991,20:57:37
342,13,-594,-25,7,20,2,5,1019,20:57:37
340,9,-601,-18,4,3,-17,-37,1040,20:57:37
346,10,-612,-41,6,18,-17,-37,1040,20:57:38
354,10,-604,-33,2,95,17,-48,983,20:57:38
339,9,-576,80,-142,-298,23,-55,973,20:57:38
339,9,-576,132,-44,-311,151,0,911,20:57:38
342,-6,-595,-37,12,-153,109,74,913,20:57:38
345,16,-585,-51,2,-37,-50,61,991,20:57:38
351,7,-603,-20,-18,1,0,29,983,20:57:38
343,19,-601,-13,-14,-4,20,13,997,20:57:38
355,12,-588,-7,-13,4,14,10,1002,20:57:38
346,9,-598,-1,-21,20,7,14,999,20:57:38
352,13,-582,3,-56,34,5,17,1000,20:57:38
345,24,-588,1,-88,154,2,16,1005,20:57:38
345,-3,-583,-3,-20,282,-2,7,1012,20:57:38
357,10,-601,1,2,173,2,7,948,20:57:38
358,27,-592,9,30,154,12,24,946,20:57:38
349,19,-592,-1,113,241,29,30,1002,20:57:38
349,22,-583,-5,231,407,17,-7,997,20:57:38
360,27,-606,15,207,494,5,-48,993,20:57:38
360,27,-606,4,197,392,3,-5,993,20:57:38
328,21,-597,-259,474,210,6,36,987,20:57:38
328,21,-597,-179,308,235,80,57,1001,20:57:38
345,15,-592,-70,183,30,21,84,993,20:57:38
351,31,-598,84,163,11,-64,25,1010,20:57:38
364,31,-610,-123,143,-165,-43,24,1060,20:57:38
369,36,-627,-148,123,-200,-47,124,993,20:57:38
352,43,-591,-93,-71,-88,-61,101,962,20:57:38
367,49,-604,-114,-121,-111,-98,34,1018,20:57:38
360,40,-597,-104,-59,-127,-96,30,1021,20:57:38
351,40,-609,-205,-119,30,-56,49,1012,20:57:38
369,33,-600,-279,-188,145,-22,73,1013,20:57:38
354,52,-618,-176,-205,125,-26,74,984,20:57:38
333,30,-603,-121,-242,87,-60,40,967,20:57:38
355,51,-600,26,-210,93,-55,23,990,20:57:38
342,55,-594,188,-105,53,-22,67,955,20:57:38
346,54,-583,359,-108,71,-10,70,981,20:57:38
337,49,-603,182,-65,193,-10,70,981,20:57:38
342,45,-591,57,-93,116,36,9,1038,20:57:38
315,55,-594,-7,-88,107,45,1,1045,20:57:38
315,55,-594,11,-53,130,-3,62,987,20:57:38
327,51,-562,93,1,22,-2,87,966,20:57:38
340,48,-588,126,83,-155,-11,32,980,20:57:38
334,57,-582,56,33,-74,-41,-33,1013,20:57:38
346,57,-553,53,23,18,-13,-18,1037,20:57:38
336,61,-585,38,51,-15,-1,17,992,20:57:38
339,40,-589,-67,-69,-8,-30,15,984,20:57:38
343,42,-573,-43,-67,122,-21,6,998,20:57:38
313,54,-583,-12,-69,149,-3,36,958,20:57:38
330,58,-559,15,-55,129,14,39,987,20:57:38
340,54,-574,22,142,60,23,15,1047,20:57:38
348,58,-577,-15,341,-77,-36,39,1062,20:57:38
330,61,-582,-35,105,-66,-93,61,1037,20:57:39
334,37,-571,-14,-7,-28,-61,55,1016,20:57:39
331,52,-568,2,-6,-16,-16,35,1000,20:57:39
331,57,-574,5,4,-14,-16,35,1000,20:57:39
345,61,-573,2,5,-11,-18,34,1000,20:57:39
345,61,-573,0,-7,-13,-19,38,1001,20:57:39
357,52,-588,3,-21,-15,-24,39,1000,20:57:39
328,60,-580,11,-37,-29,-25,38,999,20:57:39
334,40,-591,6,-28,-58,-25,36,1000,20:57:39
337,43,-586,14,-27,-83,-24,36,1000,20:57:39
349,64,-592,9,-24,-131,-14,41,995,20:57:39
327,48,-582,13,-42,-128,-14,44,995,20:57:39
334,57,-571,16,-23,-126,-12,37,1003,20:57:39
339,49,-582,23,-9,-121,-6,34,1006,20:57:39
337,54,-580,23,0,-124,-7,32,1001,20:57:39
331,57,-583,13,25,-266,-12,27,996,20:57:39
349,49,-568,5,21,-233,-11,28,990,20:57:39
349,49,-568,9,-4,-183,-11,31,995,20:57:39
339,31,-577,-2,35,-183,-4,19,1012,20:57:39
339,54,-589,-7,26,-104,0,30,1017,20:57:39
330,48,-564,4,5,-44,-3,38,999,20:57:39
349,36,-571,0,-7,-17,-3,38,999,20:57:39
340,37,-589,-29,21,-39,-3,22,995,20:57:39
346,45,-573,-32,11,-18,-8,21,1004,20:57:39
337,36,-579,-13,-1,-4,-15,31,1018,20:57:39
361,36,-579,-12,6,-6,-18,38,1007,20:57:39
331,43,-571,-15,4,2,-22,42,1000,20:57:39
346,28,-576,-10,-2,4,-19,36,1004,20:57:39
345,40,-576,-4,-1,5,-15,37,1000,20:57:39
346,52,-583,-5,0,-5,-17,42,999,20:57:39
351,40,-574,-4,0,-4,-20,44,999,20:57:39
351,54,-577,0,0,-3,-18,39,995,20:57:39
346,46,-568,-4,-2,-5,-15,34,998,20:57:39
348,27,-585,-17,-16,-18,-13,37,1002,20:57:39
346,43,-598,-49,-117,12,-16,42,1007,20:57:39
334,37,-588,-42,-52,-25,-8,32,1017,20:57:39
349,45,-564,8,-15,0,0,34,1008,20:57:39
349,45,-564,-2,9,-27,16,54,927,20:57:39
340,42,-574,-11,-6,-17,1,68,935,20:57:39
343,39,-565,-3,-7,-11,-17,58,1001,20:57:39
330,46,-574,1,2,-15,-14,45,1003,20:57:39
340,40,-564,0,-8,-14,-15,44,1006,20:57:39
340,30,-568,0,2,-15,-9,43,999,20:57:39
331,34,-567,1,-6,-13,-13,44,998,20:57:39
342,36,-570,0,0,-14,-9,47,998,20:57:39
334,19,-567,0,-4,-14,-9,44,1000,20:57:39
331,45,-576,1,-3,-14,-8,42,1000,20:57:39
351,66,-589,1,-1,-14,-9,46,1000,20:57:39
349,49,-574,1,-3,-13,-8,45,1002,20:57:39
333,46,-556,1,0,-13,-7,42,1000,20:57:39
352,43,-592,1,-2,-13,-8,43,1000,20:57:39
357,52,-573,1,-1,-13,-10,44,999,20:57:40
330,40,-562,1,0,-14,-10,46,999,20:57:40
330,40,-562,2,0,-14,-10,45,998,20:57:40
352,45,-589,2,-1,-14,-12,46,1000,20:57:40
334,46,-571,1,-2,-14,-10,46,999,20:57:40
349,45,-568,1,-2,-13,-10,46,999,20:57:40
348,40,-555,0,-2,-13,-10,45,998,20:57:40
352,58,-570,1,-2,-14,-12,44,1000,20:57:40
342,58,-561,1,0,-14,-11,44,1001,20:57:40
342,58,-561,1,-2,-13,-8,43,999,20:57:40
334,43,-564,2,-2,-14,-7,42,1001,20:57:40
336,28,-567,2,-2,-13,-8,42,1001,20:57:40
354,51,-591,2,-2,-13,-10,44,1000,20:57:40
337,42,-570,0,-2,-13,-8,44,1000,20:57:40
345,28,-573,2,-2,-14,-7,44,1001,20:57:40
322,55,-580,1,-1,-14,-10,46,1000,20:57:40
345,49,-565,1,-2,-14,-9,46,999,20:57:40
349,43,-579,1,-2,-14,-8,47,999,20:57:40
349,43,-579,2,-2,-14,-10,44,997,20:57:40
339,58,-574,2,-2,-13,-9,41,998,20:57:40
355,43,-576,2,-3,-14,-9,43,1000,20:57:40
363,31,-570,2,-3,-14,-9,44,1000,20:57:40
352,46,-573,2,-3,-14,-11,44,1001,20:57:40
346,52,-562,2,-1,-14,-11,44,1001,20:57:40
342,55,-571,1,-2,-14,-10,44,999,20:57:40
340,54,-583,1,-2,-13,-7,43,998,20:57:40
340,54,-580,1,-2,-13,-8,44,999,20:57:40
339,49,-571,1,0,-13,-8,45,1000,20:57:40
346,46,-571,2,-1,-14,-7,46,1001,20:57:40
334,37,-576,2,-2,-14,-7,47,999,20:57:40
342,36,-577,2,-2,-14,-7,47,1000,20:57:40
331,42,-547,2,-3,-13,-9,46,1000,20:57:40
357,31,-570,2,-1,-14,-9,45,999,20:57:40
342,37,-562,2,-2,-14,-10,45,999,20:57:40
334,46,-586,2,-2,-14,-8,47,999,20:57:40
337,42,-586,2,-2,-14,-7,46,1000,20:57:40
351,42,-586,2,-1,-14,-7,43,999,20:57:40
364,49,-588,2,-2,-14,-8,45,1000,20:57:40
328,43,-571,2,-2,-13,-9,44,1000,20:57:40
331,43,-583,1,-1,-13,-9,45,1000,20:57:40
331,43,-583,2,-2,-14,-8,46,999,20:57:40
346,49,-588,2,-3,-14,-7,44,999,20:57:40
357,58,-577,2,-2,-14,-9,45,1000,20:57:40
331,57,-568,2,-2,-13,-9,44,1000,20:57:40
349,36,-588,2,-2,-14,-8,43,999,20:57:40
348,58,-565,2,-2,-14,-11,45,998,20:57:40
355,48,-588,2,-2,-14,-10,47,1000,20:57:40
345,49,-562,1,-2,-14,-9,46,1001,20:57:40
333,60,-577,2,-2,-14,-11,45,1001,20:57:40
342,42,-573,2,-3,-14,-8,46,1000,20:57:40
346,42,-571,2,-2,-12,-8,44,999,20:57:40
342,45,-567,2,-2,-14,-8,43,999,20:57:41
345,45,-580,2,-2,-14,-8,43,1000,20:57:41
345,45,-580,2,-3,-13,-10,43,1001,20:57:41
340,49,-564,1,-2,-14,-9,45,1001,20:57:41
360,37,-588,3,-2,-14,-7,45,1000,20:57:41
346,43,-574,2,-1,-14,-9,43,1002,20:57:41
342,58,-573,1,-2,-14,-9,43,1002,20:57:41
352,43,-574,2,-4,-14,-9,43,1002,20:57:41
358,51,-580,2,-1,-14,-8,45,1001,20:57:41
340,42,-574,2,-2,-13,-10,44,999,20:57:41
343,40,-567,2,0,-14,-10,45,998,20:57:41
352,46,-567,2,0,-14,-11,45,1000,20:57:41
339,54,-574,2,-2,-14,-10,43,1000,20:57:41
345,48,-574,2,-2,-14,-9,44,999,20:57:41
345,48,-574,1,-3,-12,-8,44,999,20:57:41
331,36,-562,2,-2,-14,-8,45,999,20:57:41
349,46,-580,3,0,-14,-9,46,998,20:57:41
336,36,-565,2,-1,-13,-10,45,998,20:57:41
336,36,-565,2,-2,-14,-9,46,999,20:57:41
322,45,-574,2,-3,-14,-9,45,1000,20:57:41
345,49,-561,2,-1,-14,-9,46,999,20:57:41
327,42,-568,2,-1,-14,-6,46,1000,20:57:41
327,42,-568,2,-1,-14,-7,45,996,20:57:41
351,52,-565,2,-1,-14,-6,46,997,20:57:41
322,45,-570,2,0,-14,-6,46,997,20:57:41
322,45,-586,2,-2,-12,-6,45,998,20:57:41
363,51,-582,2,-2,-14,-10,43,998,20:57:41
331,40,-571,2,-1,-15,-10,45,999,20:57:41
349,57,-565,2,-2,-14,-8,47,998,20:57:41
334,49,-585,2,-1,-14,-9,47,999,20:57:41
342,52,-565,2,-2,-14,-11,46,1002,20:57:41
328,52,-556,2,-2,-14,-8,45,999,20:57:41
345,43,-555,2,-2,-14,-7,46,999,20:57:41
351,46,-580,1,-2,-13,-10,46,999,20:57:41
352,49,-577,2,-2,-14,-9,45,998,20:57:41
336,54,-583,2,-2,-14,-8,43,999,20:57:41
342,36,-582,2,-2,-13,-7,45,1000,20:57:41
339,69,-549,2,-2,-14,-7,47,1000,20:57:41
339,69,-549,2,0,-14,-9,46,999,20:57:41
349,37,-582,2,-2,-14,-9,45,1001,20:57:41
345,45,-588,2,-2,-14,-11,45,999,20:57:41
340,39,-573,2,-2,-14,-10,44,1000,20:57:41
342,57,-573,2,-2,-14,-10,44,1000,20:57:41
348,45,-573,2,0,-14,-8,44,1000,20:57:41
346,52,-567,2,-2,-14,-9,45,1001,20:57:41
343,57,-591,2,-2,-13,-8,46,999,20:57:41
336,45,-573,2,-2,-13,-8,47,997,20:57:41
334,30,-595,2,-2,-14,-8,45,998,20:57:41
331,49,-567,2,-1,-15,-6,44,999,20:57:41
345,36,-588,2,-2,-13,-7,48,999,20:57:41
354,64,-582,2,-2,-13,-8,47,999,20:57:42
354,64,-582,2,-4,-13,-8,43,999,20:57:42
339,49,-567,2,-2,-14,-10,45,999,20:57:42
354,43,-586,1,-2,-14,-9,47,1000,20:57:42
325,46,-573,2,-2,-13,-9,46,999,20:57:42
348,34,-567,2,-1,-13,-9,45,1000,20:57:42
346,37,-573,2,-2,-12,-9,45,1000,20:57:42
331,55,-568,1,0,-13,-9,45,1000,20:57:42
346,63,-562,2,-2,-14,-7,46,1000,20:57:42
355,36,-577,2,-2,-14,-7,46,1000,20:57:42
342,64,-579,2,0,-14,-7,46,1000,20:57:42
346,39,-585,2,-2,-14,-10,45,1001,20:57:42
352,33,-576,2,-2,-14,-11,44,1001,20:57:42
349,33,-571,2,-1,-14,-11,43,999,20:57:42
342,36,-589,2,-2,-14,-11,44,998,20:57:42
354,55,-583,1,-1,-14,-10,45,998,20:57:42
354,55,-583,1,-2,-14,-8,46,999,20:57:42
351,69,-577,2,-2,-13,-9,46,999,20:57:42
342,18,-573,2,0,-14,-8,46,1000,20:57:42
327,45,-571,2,-1,-14,-9,47,1002,20:57:42
342,49,-582,2,-2,-14,-9,47,1001,20:57:42
345,24,-573,2,-2,-14,-9,46,998,20:57:42
354,52,-564,2,-2,-14,-11,45,996,20:57:42
327,39,-577,2,-2,-13,-9,44,997,20:57:42
355,40,-574,2,-4,-13,-9,45,999,20:57:42
342,48,-576,1,-2,-14,-8,44,999,20:57:42
342,57,-568,2,-2,-13,-9,46,1001,20:57:42
339,45,-592,2,0,-14,-9,46,1001,20:57:42
334,31,-574,2,-2,-14,-10,45,1000,20:57:42
348,51,-586,2,-1,-14,-11,44,999,20:57:42
348,51,-586,2,-2,-13,-11,45,1001,20:57:42
340,51,-570,3,-2,-13,-12,46,1001,20:57:42
348,31,-592,2,-1,-13,-10,46,1000,20:57:42
345,31,-577,2,-1,-14,-10,47,999,20:57:42
343,48,-588,2,-2,-14,-10,46,1001,20:57:42
337,39,-594,2,-2,-13,-10,43,1002,20:57:42
334,49,-594,2,-2,-14,-9,44,1000,20:57:42
339,36,-582,2,-2,-14,-7,44,1001,20:57:42
348,42,-571,2,0,-14,-6,44,1000,20:57:42
354,42,-591,2,-1,-14,-7,45,1001,20:57:42
343,42,-603,2,0,-13,-8,46,1001,20:57:42
345,37,-592,2,-2,-14,-9,45,1001,20:57:42
361,49,-589,2,-2,-14,-8,44,1000,20:57:42
345,52,-571,2,0,-14,-10,45,998,20:57:42
333,18,-567,2,-1,-14,-10,44,998,20:57:42
346,58,-579,2,-1,-14,-8,44,998,20:57:42
358,49,-567,2,-1,-13,-9,45,1000,20:57:42
327,49,-564,2,-3,-13,-8,43,1000,20:57:42
327,49,-564,1,-1,-14,-8,45,1000,20:57:42
349,51,-582,2,-3,-13,-8,45,1000,20:57:42
351,34,-591,2,-2,-14,-8,43,1000,20:57:42
336,48,-552,1,-3,-14,-10,47,1001,20:57:43
345,40,-586,2,-3,-14,-9,48,1000,20:57:43
345,43,-567,1,-1,-14,-9,47,1001,20:57:43
340,42,-565,2,-2,-14,-9,46,1000,20:57:43
342,34,-574,1,-1,-13,-8,46,1001,20:57:43
358,52,-597,1,-3,-14,-10,48,1001,20:57:43
336,45,-583,1,-2,-14,-8,45,997,20:57:43
333,39,-576,1,-2,-14,-7,43,998,20:57:43
337,42,-571,1,-3,-14,-8,43,1001,20:57:43
346,58,-585,2,-1,-14,-7,44,1000,20:57:43
316,58,-568,2,-2,-14,-9,44,1001,20:57:43
337,45,-580,2,-1,-14,-9,44,1001,20:57:43
328,46,-580,2,-1,-13,-9,46,1000,20:57:43
336,39,-573,2,-3,-14,-10,47,997,20:57:43
336,39,-573,2,0,-13,-9,47,997,20:57:43
333,46,-580,2,0,-13,-9,45,999,20:57:43
331,49,-564,2,0,-13,-6,44,1001,20:57:43
331,49,-564,2,-2,-13,-7,45,1001,20:57:43
345,46,-582,1,-2,-14,-6,47,997,20:57:43
346,43,-591,1,-1,-14,-7,49,998,20:57:43
360,46,-591,2,-2,-14,-9,46,999,20:57:43
339,49,-564,1,-2,-14,-9,45,999,20:57:43
343,51,-553,2,-2,-13,-10,46,999,20:57:43
343,55,-585,2,-2,-14,-9,46,1000,20:57:43
327,34,-582,2,-1,-13,-9,43,1001,20:57:43
340,46,-570,2,-2,-13,-9,44,999,20:57:43
336,42,-576,2,-4,-14,-8,44,999,20:57:43
334,31,-588,2,-2,-14,-9,44,998,20:57:43
334,31,-588,2,-1,-14,-7,47,1000,20:57:43
364,48,-577,2,0,-14,-7,47,1000,20:57:43
364,48,-577,2,0,-14,-7,47,1000,20:57:43
349,42,-567,2,-2,-14,-6,46,1000,20:57:43
345,61,-579,2,-1,-14,-5,46,998,20:57:43
346,48,-580,2,-1,-14,-6,46,997,20:57:43
346,33,-546,2,-2,-13,-5,46,998,20:57:43
337,45,-585,2,0,-14,-7,45,999,20:57:43
342,43,-577,2,-1,-14,-7,44,999,20:57:43
346,37,-585,2,-2,-14,-6,46,998,20:57:43
346,51,-582,2,-1,-15,-7,46,998,20:57:43
339,51,-579,2,-1,-14,-9,46,999,20:57:43
345,51,-574,2,0,-14,-9,47,1001,20:57:43
357,43,-582,2,-4,-14,-11,47,1000,20:57:43
339,49,-562,2,-1,-13,-11,45,1000,20:57:43
345,49,-583,2,-2,-14,-10,45,1002,20:57:43
340,57,-582,2,-1,-14,-10,48,1001,20:57:43
328,49,-576,2,-2,-14,-9,46,998,20:57:43
331,43,-580,2,-1,-14,-9,46,998,20:57:43
328,58,-576,2,-1,-13,-9,45,999,20:57:43
328,58,-576,2,-2,-13,-11,45,999,20:57:43
342,51,-568,1,-2,-13,-9,45,1000,20:57:43
343,49,-573,2,-2,-13,-10,45,998,20:57:43
346,36,-565,3,-1,-14,-10,44,998,20:57:44
336,39,-556,2,-1,-13,-9,42,999,20:57:44
325,39,-582,2,-2,-13,-9,43,1000,20:57:44
343,51,-582,2,-1,-13,-10,45,999,20:57:44
336,34,-588,2,-2,-13,-9,45,999,20:57:44
348,46,-586,2,-2,-13,-6,46,999,20:57:44
346,40,-574,2,0,-13,-7,46,1000,20:57:44
351,34,-571,2,0,-14,-7,44,1000,20:57:44
339,34,-585,2,0,-14,-8,44,1000,20:57:44
342,37,-598,2,-1,-13,-8,44,998,20:57:44
348,46,-586,2,-3,-14,-9,43,998,20:57:44
337,57,-580,2,0,-14,-8,45,1001,20:57:44
337,57,-580,2,-3,-13,-8,46,1000,20:57:44
324,54,-573,1,-2,-14,-8,46,1000,20:57:44
342,54,-559,1,-1,-14,-8,47,1001,20:57:44
324,43,-588,2,-4,-14,-10,48,1000,20:57:44
324,43,-588,1,-2,-14,-8,47,999,20:57:44
348,48,-579,0,-2,-14,-7,46,1001,20:57:44
325,48,-561,2,-1,-14,-8,45,1001,20:57:44
333,34,-582,2,-2,-14,-8,45,1000,20:57:44
342,52,-570,1,-2,-14,-7,46,998,20:57:44
358,31,-582,2,-2,-14,-8,46,1000,20:57:44
346,54,-570,2,-2,-14,-9,44,1002,20:57:44
325,33,-565,2,-3,-14,-6,43,998,20:57:44
336,42,-582,2,-2,-13,-9,45,998,20:57:44
352,42,-568,1,-2,-14,-9,47,1000,20:57:44
318,51,-558,2,-2,-14,-7,46,999,20:57:44
349,45,-559,2,-2,-13,-8,46,999,20:57:44
331,45,-573,2,0,-13,-7,47,1000,20:57:44
355,48,-582,1,-2,-14,-7,45,1001,20:57:44
343,49,-553,2,-2,-14,-7,43,1002,20:57:44
351,45,-580,2,-2,-14,-7,43,1002,20:57:44
342,21,-571,3,-3,-14,-9,46,1002,20:57:44
345,45,-556,2,-2,-14,-11,46,1000,20:57:44
345,45,-556,2,-2,-14,-11,45,999,20:57:44
340,46,-586,2,-2,-14,-11,45,999,20:57:44
337,39,-583,2,-2,-14,-9,46,999,20:57:44
322,39,-571,2,-2,-14,-9,45,998,20:57:44
330,37,-576,1,-1,-14,-10,44,997,20:57:44
345,45,-582,1,-2,-14,-10,45,999,20:57:44
331,40,-580,2,-2,-13,-9,47,999,20:57:44
354,39,-580,2,-2,-13,-8,48,999,20:57:44
337,49,-567,2,-1,-13,-9,49,998,20:57:44
342,49,-580,2,-1,-14,-9,47,999,20:57:44
346,45,-577,2,-2,-14,-8,45,999,20:57:44
351,48,-571,2,-2,-14,-8,44,999,20:57:44
334,43,-570,2,-1,-14,-10,45,1000,20:57:44
331,43,-564,2,-1,-14,-10,44,999,20:57:44
336,49,-598,1,0,-13,-10,44,999,20:57:44
342,45,-585,1,-1,-14,-10,47,998,20:57:44
342,45,-585,1,-2,-14,-8,46,998,20:57:45
352,36,-585,2,-2,-14,-7,45,1001,20:57:45
333,43,-579,2,-2,-13,-8,47,1002,20:57:45
340,42,-559,2,-2,-13,-10,45,1000,20:57:45
346,54,-582,2,-1,-14,-11,44,1000,20:57:45
348,34,-592,2,-2,-14,-10,45,1000,20:57:45
327,37,-571,2,0,-14,-7,45,999,20:57:45
348,51,-574,2,-1,-14,-5,46,1000,20:57:45
355,30,-564,2,-2,-14,-8,46,999,20:57:45
324,40,-585,2,-2,-13,-10,46,999,20:57:45
349,48,-571,2,-4,-13,-10,45,1001,20:57:45
351,55,-598,2,-1,-14,-10,45,1000,20:57:45
348,45,-570,2,-1,-14,-12,46,999,20:57:45
348,36,-570,2,-1,-14,-11,46,1000,20:57:45
348,36,-570,1,-2,-14,-11,46,1000,20:57:45
349,45,-586,2,-2,-14,-8,46,1001,20:57:45
351,34,-589,2,-3,-14,-8,46,1001,20:57:45
333,54,-573,2,-2,-14,-8,45,1000,20:57:45
348,40,-571,2,-3,-14,-8,47,999,20:57:45
