magX[mG],magY[mG],magZ[mG],gyroX[mdps],gyroY[mdps],gyroZ[mdps],accX[mg],accY[mg],accZ[mg],hh:mm:ss.ms
700,186,-544,1,-2,-8,-6,8,994,13:26:20
700,186,-544,1,-2,-8,-6,8,994,13:26:20
700,186,-544,1,-2,-8,-6,8,994,13:26:20
708,187,-544,2,-2,-8,-6,8,994,13:26:20
694,189,-553,2,0,-8,-7,8,997,13:26:20
694,189,-553,2,0,-9,-7,7,997,13:26:20
717,187,-538,2,0,-9,-7,5,998,13:26:20
720,180,-546,2,-2,-8,-9,8,998,13:26:20
718,184,-520,1,-2,-8,-9,8,998,13:26:20
697,198,-528,1,-2,-8,-7,7,998,13:26:20
697,205,-534,2,-3,-9,-7,7,996,13:26:20
703,202,-546,2,-2,-9,-7,8,997,13:26:20
712,198,-520,2,-2,-9,-7,8,998,13:26:20
699,189,-534,2,-1,-9,-8,7,997,13:26:20
697,181,-534,2,-2,-7,-5,8,998,13:26:20
699,169,-532,2,-2,-8,-3,7,998,13:26:20
690,184,-553,2,0,-8,-5,6,998,13:26:20
708,195,-541,2,0,-9,-8,6,999,13:26:20
688,184,-525,2,-1,-7,-6,8,996,13:26:20
723,177,-549,2,-2,-7,-5,8,996,13:26:20
723,177,-549,2,-2,-8,-7,6,999,13:26:20
703,196,-532,2,-2,-9,-7,7,999,13:26:20
700,190,-523,2,-3,-8,-7,8,999,13:26:20
708,187,-531,2,-2,-9,-7,7,998,13:26:20
700,195,-547,2,-2,-7,-8,8,998,13:26:20
723,186,-520,1,-2,-8,-8,8,998,13:26:20
702,192,-558,2,0,-8,-8,8,998,13:26:20
706,213,-538,2,0,-8,-8,8,998,13:26:20
718,183,-543,2,-1,-9,-9,6,997,13:26:20
708,201,-540,2,-1,-8,-9,5,996,13:26:20
702,208,-544,2,-1,-8,-7,6,999,13:26:20
732,193,-531,2,0,-7,-8,7,999,13:26:20
708,187,-519,2,0,-9,-5,8,996,13:26:20
708,187,-519,1,0,-9,-5,7,996,13:26:20
714,201,-526,2,-1,-8,-6,6,998,13:26:20
709,183,-532,2,-2,-8,-5,7,998,13:26:20
724,190,-540,1,-1,-9,-7,7,996,13:26:20
693,195,-543,1,0,-7,-8,7,998,13:26:20
718,208,-538,2,0,-8,-8,6,999,13:26:20
706,190,-523,2,0,-8,-8,6,999,13:26:20
712,193,-541,1,-1,-8,-8,8,998,13:26:21
676,165,-532,2,0,-8,-8,6,997,13:26:21
709,196,-534,2,0,-9,-7,7,997,13:26:21
711,196,-537,0,-1,-9,-7,7,997,13:26:21
699,192,-544,2,-1,-8,-7,7,999,13:26:21
712,193,-543,2,-2,-8,-8,7,1000,13:26:21
724,201,-529,1,-2,-7,-7,8,999,13:26:21
724,201,-529,2,-1,-7,-7,7,998,13:26:21
706,201,-544,2,-1,-9,-6,7,998,13:26:21
706,189,-546,2,-2,-8,-4,8,999,13:26:21
696,198,-532,2,0,-8,-7,7,998,13:26:21
708,196,-544,2,0,-9,-9,8,996,13:26:21
721,193,-535,2,0,-9,-7,8,998,13:26:21
697,190,-537,2,0,-9,-7,5,999,13:26:21
717,192,-538,2,0,-8,-8,7,997,13:26:21
699,193,-535,1,-2,-9,-8,9,997,13:26:21
739,204,-555,1,-1,-8,-8,7,999,13:26:21
694,189,-547,2,-1,-8,-8,5,1000,13:26:21
715,198,-531,2,-1,-7,-9,9,998,13:26:21
714,181,-540,1,0,-8,-7,10,1000,13:26:21
702,189,-543,2,-2,-7,-6,8,997,13:26:21
717,205,-556,1,0,-9,-6,8,997,13:26:21
697,172,-529,1,-2,-9,-5,6,997,13:26:21
697,172,-529,1,-1,-9,-9,5,997,13:26:21
700,192,-558,2,-1,-8,-11,7,998,13:26:21
700,189,-528,1,-1,-9,-9,9,999,13:26:21
711,193,-526,1,-1,-9,-7,9,999,13:26:21
703,210,-534,2,-2,-9,-6,10,998,13:26:21
705,180,-555,2,-1,-9,-6,10,999,13:26:21
715,202,-522,1,-1,-9,-6,8,1000,13:26:21
697,181,-549,2,-2,-8,-6,7,999,13:26:21
700,198,-562,2,-1,-7,-5,7,1000,13:26:21
715,193,-534,2,-2,-7,-5,7,1000,13:26:21
724,178,-538,1,-2,-7,-7,8,1000,13:26:21
715,199,-543,1,-2,-8,-9,8,998,13:26:21
715,177,-544,2,-2,-9,-9,8,998,13:26:21
694,177,-538,3,-2,-9,-9,7,998,13:26:21
720,192,-556,2,-1,-9,-8,5,996,13:26:21
715,192,-540,2,-2,-8,-8,5,996,13:26:21
715,192,-540,2,-3,-8,-9,7,998,13:26:21
715,192,-547,2,-2,-8,-7,7,1000,13:26:21
721,180,-540,2,-2,-9,-7,7,999,13:26:21
679,186,-535,1,0,-9,-10,8,999,13:26:21
705,184,-547,2,0,-9,-10,8,998,13:26:21
705,193,-541,2,-2,-8,-8,7,997,13:26:21
703,190,-562,2,-2,-8,-7,5,998,13:26:21
726,184,-519,2,-3,-7,-7,6,999,13:26:21
699,196,-550,1,-2,-9,-7,8,994,13:26:21
732,162,-547,1,-2,-7,-9,10,994,13:26:21
708,196,-523,2,0,-8,-11,12,996,13:26:21
700,211,-535,2,-1,-9,-8,9,994,13:26:21
712,201,-546,3,0,-9,-7,6,996,13:26:22
697,177,-549,1,0,-9,-9,8,1000,13:26:22
727,210,-547,1,-2,-8,-8,9,1000,13:26:22
715,210,-531,1,-1,-8,-7,8,999,13:26:22
705,195,-535,2,-1,-9,-10,7,999,13:26:22
703,177,-528,1,-1,-9,-10,7,999,13:26:22
703,177,-528,2,-2,-9,-8,8,999,13:26:22
708,195,-550,2,0,-8,-6,8,999,13:26:22
699,183,-510,1,-1,-8,-7,8,1000,13:26:22
690,201,-529,2,-2,-8,-8,9,1001,13:26:22
712,205,-549,2,-1,-8,-9,8,999,13:26:22
705,210,-517,2,0,-8,-8,7,999,13:26:22
709,178,-547,1,0,-8,-7,7,999,13:26:22
721,202,-556,1,-2,-8,-10,6,998,13:26:22
715,192,-544,3,-2,-8,-8,7,999,13:26:22
697,192,-514,2,-1,-8,-7,7,999,13:26:22
714,196,-547,2,-2,-8,-8,5,998,13:26:22
714,196,-547,2,-2,-8,-10,4,999,13:26:22
700,172,-546,2,-3,-9,-10,8,999,13:26:22
697,177,-529,2,-2,-8,-6,8,996,13:26:22
697,177,-529,1,0,-8,-5,7,995,13:26:22
705,177,-538,2,-1,-9,-7,7,998,13:26:22
702,180,-529,2,-2,-9,-6,7,999,13:26:22
702,180,-529,1,0,-9,-6,7,999,13:26:22
714,195,-537,2,-1,-8,-6,7,999,13:26:22
709,186,-520,2,0,-9,-7,5,997,13:26:22
705,187,-526,2,-1,-9,-7,3,998,13:26:22
715,181,-543,1,-2,-8,-8,6,997,13:26:22
688,180,-540,2,-2,-9,-8,10,998,13:26:22
703,184,-552,3,-1,-8,-6,9,999,13:26:22
715,207,-537,2,0,-8,-7,6,997,13:26:22
715,190,-532,2,0,-9,-10,7,999,13:26:22
715,190,-532,2,0,-9,-9,9,999,13:26:22
694,205,-532,2,-2,-8,-6,7,998,13:26:22
700,180,-550,2,-2,-9,-6,5,999,13:26:22
694,168,-522,2,-1,-9,-8,6,999,13:26:22
721,187,-525,2,0,-8,-8,6,997,13:26:22
697,198,-547,2,-1,-7,-7,5,997,13:26:22
700,183,-559,1,-1,-8,-7,6,998,13:26:22
709,187,-541,2,-2,-8,-9,6,997,13:26:22
702,195,-517,2,0,-8,-9,6,997,13:26:22
693,177,-531,2,0,-9,-9,7,998,13:26:22
717,202,-540,2,0,-9,-9,7,999,13:26:22
706,193,-541,2,-1,-9,-9,8,1000,13:26:22
705,181,-538,2,0,-8,-8,7,999,13:26:22
720,184,-535,2,0,-8,-6,8,999,13:26:22
706,189,-523,2,-1,-9,-4,8,998,13:26:22
706,189,-523,1,-2,-8,-6,7,998,13:26:22
694,198,-538,2,-1,-8,-8,7,997,13:26:22
709,198,-555,1,-1,-9,-5,7,997,13:26:22
711,181,-532,1,-2,-8,-5,8,999,13:26:22
705,192,-517,2,-2,-8,-6,7,998,13:26:23
712,192,-546,2,-2,-8,-5,8,998,13:26:23
720,210,-532,2,-2,-7,-5,9,998,13:26:23
696,195,-523,2,0,-8,-6,10,1000,13:26:23
721,187,-525,1,-1,-8,-9,9,999,13:26:23
712,192,-540,2,-1,-7,-9,9,997,13:26:23
706,216,-550,3,-2,-7,-6,7,999,13:26:23
708,184,-543,2,0,-9,-6,7,999,13:26:23
708,184,-543,1,-2,-8,-8,8,997,13:26:23
708,180,-531,2,-2,-7,-7,7,996,13:26:23
694,187,-534,2,0,-9,-7,5,999,13:26:23
702,201,-532,2,0,-9,-8,6,1000,13:26:23
714,187,-546,1,0,-8,-8,6,998,13:26:23
715,172,-549,2,-1,-8,-7,7,997,13:26:23
696,202,-556,1,-2,-8,-5,6,996,13:26:23
715,187,-555,1,-1,-9,-5,7,996,13:26:23
717,192,-531,2,0,-9,-7,8,997,13:26:23
709,187,-553,2,0,-9,-8,7,998,13:26:23
709,187,-553,2,-2,-8,-7,6,1000,13:26:23
712,210,-553,2,-1,-8,-7,6,999,13:26:23
717,202,-550,2,0,-9,-7,7,998,13:26:23
715,186,-529,2,0,-9,-8,7,996,13:26:23
732,196,-552,2,0,-9,-9,7,995,13:26:23
714,180,-541,2,-2,-8,-7,7,998,13:26:23
703,186,-544,2,-1,-8,-7,5,998,13:26:23
697,193,-532,2,-2,-9,-7,5,998,13:26:23
708,195,-540,2,-2,-8,-7,5,1000,13:26:23
721,187,-520,3,0,-8,-7,7,999,13:26:23
709,198,-553,2,-2,-7,-7,8,998,13:26:23
714,195,-525,2,-2,-9,-8,7,999,13:26:23
714,168,-520,2,-1,-9,-9,8,997,13:26:23
714,168,-520,2,0,-9,-8,9,997,13:26:23
715,198,-534,2,-2,-8,-8,9,998,13:26:23
706,180,-553,2,-2,-7,-8,8,998,13:26:23
703,196,-537,2,-1,-8,-8,6,999,13:26:23
717,192,-546,2,0,-8,-8,5,998,13:26:23
702,187,-540,2,-2,-7,-8,7,997,13:26:23
711,186,-523,1,-1,-9,-9,7,998,13:26:23
703,184,-531,0,-2,-9,-9,7,998,13:26:23
715,195,-541,2,0,-9,-7,7,998,13:26:23
715,192,-538,2,-1,-9,-7,6,998,13:26:23
712,190,-535,2,-2,-8,-5,6,997,13:26:23
688,178,-541,1,-2,-8,-5,6,997,13:26:23
708,201,-550,2,-2,-9,-6,6,998,13:26:23
705,199,-532,3,-2,-8,-7,6,1000,13:26:23
705,199,-532,2,-1,-8,-8,7,999,13:26:23
708,196,-546,2,0,-9,-8,8,999,13:26:23
706,177,-534,2,-1,-9,-7,7,998,13:26:23
696,186,-519,2,-1,-9,-8,6,998,13:26:23
703,183,-540,2,0,-8,-9,7,998,13:26:23
709,211,-535,2,-1,-8,-8,6,997,13:26:24
714,192,-528,2,0,-8,-7,4,998,13:26:24
706,195,-550,1,-1,-9,-7,7,1000,13:26:24
714,181,-540,2,-1,-9,-7,7,999,13:26:24
693,201,-541,2,-2,-8,-7,6,999,13:26:24
700,205,-519,1,-2,-7,-7,6,998,13:26:24
717,187,-547,2,-1,-8,-9,7,998,13:26:24
706,211,-544,1,-2,-8,-10,8,1000,13:26:24
706,211,-544,2,-2,-9,-6,8,999,13:26:24
696,180,-543,2,-2,-8,-8,9,998,13:26:24
696,180,-543,2,-2,-8,-8,9,998,13:26:24
705,187,-555,2,0,-8,-8,6,998,13:26:24
723,190,-538,2,-1,-8,-7,6,999,13:26:24
708,193,-532,2,-2,-8,-5,8,997,13:26:24
715,165,-531,2,-1,-8,-8,6,998,13:26:24
708,178,-523,2,-1,-8,-8,6,999,13:26:24
708,178,-523,2,-1,-8,-5,9,999,13:26:24
712,174,-556,2,-2,-8,-5,7,1001,13:26:24
723,175,-544,2,-1,-7,-7,7,999,13:26:24
703,186,-556,2,-1,-8,-7,7,997,13:26:24
720,165,-546,2,-1,-8,-8,6,998,13:26:24
688,186,-537,2,-2,-7,-8,8,1000,13:26:24
706,174,-552,2,-3,-8,-8,9,999,13:26:24
706,174,-552,2,-2,-9,-9,9,996,13:26:24
705,214,-544,2,-1,-9,-9,9,998,13:26:24
699,181,-537,2,-2,-8,-6,7,1001,13:26:24
708,189,-540,2,-1,-8,-7,7,998,13:26:24
702,178,-552,1,-1,-7,-7,6,998,13:26:24
715,195,-543,1,0,-8,-7,6,998,13:26:24
726,198,-534,1,0,-7,-6,7,999,13:26:24
706,183,-543,1,-1,-7,-8,7,999,13:26:24
702,207,-547,2,-1,-8,-7,7,997,13:26:24
687,177,-544,2,-1,-9,-6,8,997,13:26:24
711,199,-544,1,0,-9,-6,9,997,13:26:24
720,190,-564,2,0,-9,-7,10,998,13:26:24
715,186,-538,2,0,-9,-7,8,998,13:26:24
711,187,-544,2,0,-8,-7,7,997,13:26:24
711,187,-544,2,0,-8,-6,8,997,13:26:24
714,192,-553,2,-1,-9,-7,10,998,13:26:24
715,189,-549,2,-2,-9,-9,10,998,13:26:24
705,190,-550,2,-2,-9,-8,10,999,13:26:24
718,207,-534,2,-2,-8,-6,10,998,13:26:24
721,196,-556,2,-1,-9,-6,8,998,13:26:24
717,195,-522,2,0,-9,-7,7,999,13:26:24
709,187,-523,1,0,-8,-6,7,998,13:26:24
706,199,-547,3,-1,-8,-6,7,998,13:26:24
711,189,-541,2,0,-9,-7,6,999,13:26:24
718,204,-553,2,-1,-8,-8,6,1000,13:26:24
691,207,-526,2,-1,-8,-7,8,1000,13:26:24
703,198,-541,2,-2,-8,-7,7,998,13:26:24
711,219,-514,2,0,-8,-7,6,997,13:26:24
691,190,-549,2,0,-8,-9,5,997,13:26:25
705,186,-550,2,0,-7,-7,6,997,13:26:25
705,186,-550,2,-1,-9,-6,8,997,13:26:25
687,198,-538,1,-1,-9,-7,8,998,13:26:25
718,172,-525,2,-1,-8,-7,8,999,13:26:25
724,199,-540,2,-2,-9,-7,7,1000,13:26:25
697,190,-552,2,-1,-9,-7,8,999,13:26:25
700,198,-538,2,-2,-8,-7,8,998,13:26:25
712,190,-546,2,-1,-8,-6,6,999,13:26:25
708,193,-538,2,-1,-8,-6,7,999,13:26:25
699,183,-552,2,0,-8,-10,9,1000,13:26:25
700,193,-529,2,-2,-8,-7,9,998,13:26:25
693,199,-525,2,-1,-7,-7,9,998,13:26:25
709,183,-537,1,-1,-8,-9,6,998,13:26:25
694,184,-540,2,-1,-8,-8,6,998,13:26:25
708,181,-543,2,-1,-8,-7,8,999,13:26:25
691,201,-538,2,-1,-9,-10,9,999,13:26:25
729,187,-547,2,0,-9,-9,9,998,13:26:25
729,187,-547,1,0,-9,-9,7,996,13:26:25
723,198,-529,2,-2,-8,-9,6,997,13:26:25
715,183,-549,2,-1,-9,-7,7,998,13:26:25
721,192,-531,1,-2,-9,-5,9,999,13:26:25
699,196,-558,2,-1,-9,-5,8,999,13:26:25
708,205,-528,0,0,-8,-5,8,998,13:26:25
712,183,-552,2,-1,-7,-7,9,997,13:26:25
702,213,-544,3,-1,-8,-9,7,997,13:26:25
705,189,-540,2,0,-8,-10,5,999,13:26:25
711,183,-544,2,-1,-9,-9,6,1001,13:26:25
706,189,-546,2,0,-9,-6,6,998,13:26:25
729,187,-514,1,-1,-9,-6,6,998,13:26:25
700,180,-528,2,0,-9,-7,6,998,13:26:25
714,181,-531,0,-1,-8,-8,6,996,13:26:25
694,193,-549,1,-1,-7,-7,7,997,13:26:25
709,208,-549,2,-2,-8,-8,8,999,13:26:25
688,187,-525,1,-2,-7,-9,9,1001,13:26:25
700,181,-523,1,-1,-8,-9,8,1000,13:26:25
700,181,-523,2,-2,-9,-9,8,1000,13:26:25
721,186,-540,1,-2,-9,-9,7,1000,13:26:25
700,196,-540,1,-2,-8,-8,9,998,13:26:25
699,175,-549,2,-1,-8,-6,10,997,13:26:25
706,186,-543,2,-2,-8,-6,8,998,13:26:25
703,202,-516,2,-2,-8,-8,8,998,13:26:25
712,199,-538,1,-2,-8,-8,8,998,13:26:25
709,181,-558,1,-1,-9,-7,8,1000,13:26:25
714,189,-535,2,-1,-7,-7,9,999,13:26:25
709,198,-529,2,-1,-8,-7,8,998,13:26:25
717,184,-534,2,-2,-8,-6,9,998,13:26:25
727,202,-532,2,-1,-9,-6,9,998,13:26:25
727,202,-532,2,-1,-8,-6,8,998,13:26:25
693,202,-529,2,0,-8,-7,7,999,13:26:25
712,189,-526,2,-1,-9,-8,9,998,13:26:25
720,199,-540,2,-1,-8,-8,9,999,13:26:26
714,190,-540,1,-2,-9,-8,7,1001,13:26:26
697,196,-540,1,-2,-9,-10,7,999,13:26:26
706,199,-540,2,-1,-9,-8,8,999,13:26:26
712,207,-534,2,-2,-7,-7,8,999,13:26:26
712,184,-547,2,-1,-8,-5,10,1000,13:26:26
705,186,-538,2,-2,-8,-5,10,999,13:26:26
705,187,-546,3,-1,-8,-7,6,998,13:26:26
705,187,-546,2,-2,-8,-7,6,998,13:26:26
726,195,-535,1,-2,-7,-9,7,998,13:26:26
700,193,-538,2,-2,-8,-10,7,998,13:26:26
724,174,-529,2,0,-9,-9,7,998,13:26:26
693,187,-525,2,-2,-9,-7,6,998,13:26:26
706,186,-546,2,0,-8,-5,9,997,13:26:26
717,177,-543,2,-1,-9,-5,9,997,13:26:26
714,183,-523,2,0,-8,-6,7,999,13:26:26
702,196,-540,2,-3,-8,-8,6,1000,13:26:26
717,190,-552,3,-4,-9,-6,8,998,13:26:26
724,216,-537,2,-1,-8,-6,7,998,13:26:26
724,183,-543,2,-2,-8,-8,6,998,13:26:26
717,190,-528,2,-2,-8,-7,8,999,13:26:26
717,190,-528,1,-2,-9,-7,7,1000,13:26:26
712,193,-531,2,-1,-8,-7,6,1000,13:26:26
705,177,-540,1,-2,-8,-7,6,1000,13:26:26
699,195,-543,1,-1,-7,-7,7,999,13:26:26
706,202,-537,1,-1,-9,-7,6,998,13:26:26
708,186,-537,2,-1,-9,-7,4,997,13:26:26
694,178,-544,1,0,-8,-6,7,998,13:26:26
702,199,-528,1,-1,-9,-7,11,999,13:26:26
711,208,-546,2,0,-8,-7,8,999,13:26:26
696,190,-540,2,-2,-8,-8,8,998,13:26:26
709,190,-544,2,-2,-7,-8,8,998,13:26:26
702,175,-526,2,-1,-9,-7,7,999,13:26:26
729,181,-538,2,-1,-9,-7,8,997,13:26:26
720,198,-531,1,-1,-9,-6,9,998,13:26:26
712,189,-526,2,-2,-9,-5,8,998,13:26:26
712,189,-526,2,-2,-8,-7,7,998,13:26:26
706,201,-537,2,-2,-8,-8,8,999,13:26:26
714,192,-543,2,-1,-8,-7,9,998,13:26:26
714,190,-550,1,-2,-7,-6,8,997,13:26:26
702,198,-540,2,0,-7,-7,6,997,13:26:26
699,187,-535,1,0,-9,-8,6,999,13:26:26
711,184,-535,2,-2,-9,-6,8,1000,13:26:26
705,180,-528,3,-5,-7,-6,11,1000,13:26:26
699,193,-520,2,-4,-4,-6,8,1002,13:26:26
712,192,-547,6,-14,-7,-12,3,1007,13:26:26
696,181,-544,4,-7,-10,-11,4,999,13:26:26
708,178,-541,1,-2,-10,-2,4,991,13:26:26
697,201,-540,2,-5,-10,-7,8,998,13:26:26
697,201,-540,2,-10,-10,-7,8,998,13:26:26
711,177,-555,1,-18,-10,-8,6,996,13:26:27
715,189,-540,2,-23,-5,-10,5,1001,13:26:27
721,196,-549,0,-8,7,-6,8,1000,13:26:27
714,175,-526,3,-3,-3,-8,5,996,13:26:27
712,196,-523,4,-7,-8,-7,0,1005,13:26:27
727,178,-541,4,-17,-7,-3,2,1005,13:26:27
706,192,-556,4,-25,-7,-6,7,1001,13:26:27
681,193,-543,5,-6,-7,-2,7,998,13:26:27
712,190,-541,3,-12,-7,1,5,995,13:26:27
712,177,-546,0,-28,-3,-1,7,999,13:26:27
708,187,-546,0,-49,0,-5,6,1004,13:26:27
724,196,-541,0,-76,1,-1,6,1001,13:26:27
724,196,-541,-9,-126,11,-2,2,1002,13:26:27
700,183,-535,-11,-148,9,-13,-9,988,13:26:27
693,183,-537,-9,-102,-1,2,17,979,13:26:27
688,195,-553,0,-78,-11,21,-60,999,13:26:27
699,196,-537,4,-72,4,70,-54,1017,13:26:27
699,196,-537,24,-51,-2,70,-54,1017,13:26:27
688,202,-537,-12,-18,-19,55,-108,1005,13:26:27
691,187,-544,0,51,4,85,-150,1004,13:26:27
699,195,-529,7,114,-14,94,-72,1063,13:26:27
705,165,-535,-4,49,-24,77,-66,1077,13:26:27
702,196,-525,-18,-91,-31,48,-106,1032,13:26:27
705,184,-544,-8,-126,18,41,-137,956,13:26:27
694,204,-543,-7,-108,7,0,-162,909,13:26:27
709,193,-550,-5,-119,0,-7,-123,1058,13:26:27
685,198,-532,4,-91,11,65,-92,1164,13:26:27
694,199,-553,7,-126,-3,39,-117,1031,13:26:27
697,184,-555,-3,38,-39,12,-85,899,13:26:27
679,196,-528,0,42,-20,2,-106,912,13:26:27
706,192,-558,15,60,-9,3,-108,921,13:26:27
711,190,-550,-4,31,-21,-31,-9,910,13:26:27
711,190,-550,2,-56,-18,24,-10,989,13:26:27
693,186,-550,14,-65,4,0,-59,948,13:26:27
705,181,-552,12,-60,8,36,-67,955,13:26:27
687,196,-544,3,-29,-9,36,-67,955,13:26:27
687,196,-544,-11,72,-25,22,-29,959,13:26:27
696,190,-552,-16,121,0,-72,-29,926,13:26:27
711,195,-549,0,46,25,45,-14,965,13:26:27
705,178,-552,18,-27,30,103,-22,1045,13:26:27
693,189,-561,-9,60,15,7,-40,967,13:26:27
715,187,-534,25,81,75,15,-24,945,13:26:27
715,184,-571,39,-10,46,1,-42,975,13:26:27
711,187,-546,18,-15,45,41,-7,1011,13:26:27
708,175,-550,6,43,38,133,22,1041,13:26:27
702,177,-550,24,26,43,141,66,1000,13:26:27
688,175,-562,9,0,25,29,136,964,13:26:27
718,174,-559,10,4,37,63,138,993,13:26:27
718,174,-559,9,12,26,111,137,960,13:26:27
700,186,-564,2,8,8,57,112,961,13:26:27
697,175,-556,-8,59,17,39,120,923,13:26:27
733,165,-543,6,54,29,10,123,975,13:26:28
703,172,-541,17,57,6,10,123,975,13:26:28
712,171,-558,23,50,0,5,123,1015,13:26:28
724,168,-561,33,39,-6,36,115,990,13:26:28
709,183,-541,16,41,-21,47,111,1095,13:26:28
708,174,-564,11,56,-22,33,85,1087,13:26:28
721,169,-550,-6,92,-24,51,50,1029,13:26:28
706,181,-555,-12,53,-31,56,42,1021,13:26:28
721,157,-547,-25,47,-100,22,89,1026,13:26:28
723,195,-547,-10,20,-140,-28,117,1013,13:26:28
720,178,-538,10,8,-108,-13,95,979,13:26:28
721,169,-555,11,-7,-75,-6,109,1039,13:26:28
730,187,-558,16,19,-66,-48,82,1023,13:26:28
711,181,-523,-2,12,-67,-33,49,976,13:26:28
711,181,-523,0,-34,-50,-12,72,971,13:26:28
726,165,-552,-13,-77,81,11,40,984,13:26:28
721,160,-564,-26,-68,186,41,11,992,13:26:28
724,159,-544,-36,-150,189,92,6,1040,13:26:28
702,177,-549,-11,-287,63,57,9,1072,13:26:28
723,172,-555,-12,-192,10,57,9,1072,13:26:28
712,177,-553,-25,-83,3,6,9,974,13:26:28
712,162,-570,-14,-25,-12,9,3,924,13:26:28
709,175,-564,0,-8,-14,30,32,955,13:26:28
711,171,-546,4,34,-11,55,59,1000,13:26:28
718,166,-549,9,120,-14,47,65,1020,13:26:28
702,168,-568,23,263,-14,32,44,1011,13:26:28
717,163,-558,3,1206,101,41,34,967,13:26:28
741,151,-552,-48,439,95,162,16,732,13:26:28
723,166,-552,-16,26,-3,25,-19,918,13:26:28
709,174,-555,2,-2,-16,-118,-24,1159,13:26:28
709,174,-555,2,-1,-7,-4,-9,1004,13:26:28
717,172,-546,1,0,-7,-7,3,996,13:26:28
718,165,-547,2,-1,-9,-8,4,1001,13:26:28
711,174,-565,2,0,-8,-6,5,1001,13:26:28
727,184,-549,2,0,-8,-7,6,999,13:26:28
723,165,-568,2,-1,-9,-7,6,998,13:26:28
709,159,-549,2,-2,-8,-7,6,998,13:26:28
717,163,-565,1,-1,-8,-6,4,997,13:26:28
723,154,-546,1,-1,-8,-6,4,997,13:26:28
714,177,-564,2,-1,-9,-7,8,998,13:26:28
724,156,-550,2,-1,-8,-8,6,999,13:26:28
718,159,-556,1,-1,-9,-8,4,999,13:26:28
721,168,-558,1,-2,-9,-7,7,997,13:26:28
723,172,-544,2,-2,-8,-6,6,998,13:26:28
723,165,-555,2,-2,-9,-6,5,998,13:26:28
718,156,-549,1,-1,-9,-5,4,998,13:26:28
718,156,-549,2,-2,-7,-6,6,997,13:26:28
718,159,-552,1,0,-8,-7,7,997,13:26:28
718,166,-537,1,0,-7,-7,4,998,13:26:28
730,193,-547,1,-1,-7,-8,3,999,13:26:28
729,183,-540,1,-1,-7,-8,3,1000,13:26:28
723,172,-550,2,-1,-8,-6,4,998,13:26:29
738,168,-544,2,-1,-8,-9,6,999,13:26:29
715,175,-537,2,-2,-8,-9,6,998,13:26:29
718,174,-526,2,0,-9,-9,6,998,13:26:29
700,175,-544,2,0,-9,-8,5,997,13:26:29
711,163,-529,2,-1,-9,-8,4,998,13:26:29
724,162,-526,2,-2,-9,-9,5,999,13:26:29
724,162,-526,2,-2,-7,-8,5,999,13:26:29
714,186,-562,2,-1,-9,-5,5,998,13:26:29
714,168,-549,2,-1,-8,-6,6,1000,13:26:29
721,175,-532,2,-1,-9,-8,6,1000,13:26:29
726,160,-555,1,-2,-9,-5,6,1000,13:26:29
738,184,-562,2,-1,-9,-5,5,999,13:26:29
708,154,-526,2,-2,-9,-7,5,998,13:26:29
727,183,-562,2,-2,-9,-7,5,998,13:26:29
715,181,-553,3,-2,-9,-6,4,997,13:26:29
711,166,-555,2,-1,-9,-8,5,997,13:26:29
705,172,-543,2,0,-9,-8,4,999,13:26:29
720,177,-550,2,0,-9,-5,3,999,13:26:29
721,166,-549,2,0,-9,-7,5,997,13:26:29
676,180,-535,2,-3,-9,-7,5,997,13:26:29
721,168,-553,2,-2,-8,-8,6,998,13:26:29
724,166,-529,2,-2,-8,-9,6,997,13:26:29
724,166,-529,2,-2,-8,-6,4,996,13:26:29
723,172,-535,2,0,-8,-5,4,996,13:26:29
718,171,-555,2,-1,-8,-7,6,997,13:26:29
724,180,-547,2,-1,-9,-6,6,997,13:26:29
709,177,-544,2,0,-9,-7,4,998,13:26:29
709,177,-544,2,0,-9,-8,3,998,13:26:29
726,169,-559,1,-2,-8,-7,3,997,13:26:29
712,174,-532,1,-1,-9,-6,4,998,13:26:29
721,168,-538,2,-1,-8,-7,6,998,13:26:29
739,169,-544,2,-2,-9,-8,4,996,13:26:29
724,166,-550,2,-1,-9,-7,5,997,13:26:29
715,183,-556,2,0,-9,-5,6,999,13:26:29
720,174,-547,1,0,-8,-5,3,1000,13:26:29
720,174,-547,1,-1,-8,-8,3,998,13:26:29
717,174,-550,2,0,-9,-5,5,1000,13:26:29
709,180,-552,2,-1,-8,-5,5,1000,13:26:29
711,192,-547,2,-2,-7,-7,4,1000,13:26:29
703,192,-534,2,-1,-9,-7,3,1001,13:26:29
718,169,-553,1,0,-8,-5,4,1001,13:26:29
723,166,-540,2,-1,-9,-4,6,1000,13:26:29
718,168,-556,2,-1,-8,-5,6,1000,13:26:29
730,169,-550,2,-1,-8,-6,6,1000,13:26:29
712,162,-544,1,-1,-9,-7,6,998,13:26:29
721,168,-537,1,-1,-9,-7,3,999,13:26:29
727,148,-552,1,-2,-8,-7,3,999,13:26:29
721,169,-579,1,-2,-9,-7,4,998,13:26:29
721,169,-579,1,-1,-9,-6,6,998,13:26:29
727,165,-543,2,0,-8,-6,6,999,13:26:30
720,174,-546,1,0,-8,-7,5,999,13:26:30
726,181,-553,2,0,-8,-7,4,999,13:26:30
726,172,-564,2,-2,-9,-8,2,998,13:26:30
730,175,-561,2,-2,-9,-6,4,999,13:26:30
723,172,-556,2,-2,-9,-6,4,998,13:26:30
727,184,-541,0,-2,-8,-6,4,998,13:26:30
717,180,-562,1,-2,-9,-6,4,999,13:26:30
735,169,-552,1,-2,-8,-6,4,1000,13:26:30
718,181,-541,1,-2,-8,-6,7,999,13:26:30
730,180,-565,2,-2,-8,-5,6,998,13:26:30
726,163,-547,2,-2,-9,-5,5,998,13:26:30
739,162,-538,1,0,-8,-6,3,998,13:26:30
739,162,-538,1,0,-7,-7,5,999,13:26:30
727,159,-561,2,-1,-9,-7,7,996,13:26:30
727,180,-549,1,-1,-9,-7,4,997,13:26:30
726,177,-546,1,-2,-9,-8,5,998,13:26:30
724,181,-558,2,-2,-7,-8,4,998,13:26:30
723,172,-526,2,-2,-7,-7,3,999,13:26:30
727,166,-559,2,-3,-8,-7,4,1000,13:26:30
706,174,-550,2,-2,-9,-6,4,1000,13:26:30
718,166,-556,2,0,-8,-6,4,999,13:26:30
723,184,-549,3,0,-8,-7,5,999,13:26:30
727,178,-538,2,0,-9,-7,5,999,13:26:30
721,175,-553,2,-1,-9,-7,4,998,13:26:30
742,171,-547,2,-1,-8,-4,3,998,13:26:30
706,190,-537,3,0,-9,-7,2,999,13:26:30
706,190,-537,2,-2,-9,-10,3,998,13:26:30
732,186,-540,2,-2,-9,-7,5,998,13:26:30
717,162,-552,2,-2,-8,-6,7,999,13:26:30
721,171,-556,2,-1,-8,-8,7,999,13:26:30
729,174,-543,2,-2,-8,-7,4,998,13:26:30
717,172,-550,2,-2,-9,-7,5,998,13:26:30
721,172,-553,2,-3,-8,-7,5,999,13:26:30
726,181,-550,1,-1,-8,-6,5,998,13:26:30
724,181,-543,2,-1,-8,-6,6,998,13:26:30
717,172,-535,1,-1,-8,-5,4,998,13:26:30
727,177,-541,2,0,-9,-7,4,999,13:26:30
718,169,-543,2,-2,-8,-7,4,1000,13:26:30
718,169,-543,2,-2,-8,-6,3,999,13:26:30
721,175,-526,2,-2,-9,-5,5,999,13:26:30
720,159,-541,2,0,-9,-5,5,999,13:26:30
712,171,-532,2,0,-9,-7,6,998,13:26:30
735,172,-541,2,-2,-8,-7,7,998,13:26:30
714,163,-523,2,-2,-8,-6,4,998,13:26:30
736,163,-546,2,0,-9,-5,3,998,13:26:30
709,169,-531,2,-1,-8,-6,4,999,13:26:30
714,169,-534,1,0,-8,-6,2,1000,13:26:30
718,159,-552,2,0,-8,-7,4,998,13:26:30
714,175,-543,2,-1,-8,-7,6,998,13:26:30
724,166,-561,2,0,-7,-6,6,998,13:26:30
711,186,-526,1,-2,-7,-6,5,997,13:26:31
709,168,-546,2,-1,-7,-6,6,997,13:26:31
709,168,-546,2,-2,-9,-6,5,999,13:26:31
706,175,-543,2,-1,-9,-7,4,998,13:26:31
706,175,-543,2,-1,-9,-7,5,997,13:26:31
726,177,-543,2,-2,-9,-7,7,999,13:26:31
706,183,-549,2,-1,-9,-6,6,999,13:26:31
727,163,-541,2,0,-9,-4,4,999,13:26:31
714,174,-555,2,0,-9,-4,4,999,13:26:31
708,172,-567,2,-2,-9,-4,2,1000,13:26:31
714,183,-541,2,-2,-8,-6,3,999,13:26:31
724,171,-544,2,-1,-8,-7,4,998,13:26:31
714,184,-556,2,-2,-9,-6,4,997,13:26:31
723,180,-543,1,-1,-9,-6,5,998,13:26:31
705,174,-562,2,0,-9,-6,5,1000,13:26:31
721,177,-547,2,-2,-8,-4,5,1000,13:26:31
721,177,-547,2,0,-9,-5,5,999,13:26:31
735,175,-556,3,0,-9,-8,7,998,13:26:31
727,169,-552,2,0,-9,-6,5,998,13:26:31
711,171,-549,2,0,-9,-6,5,998,13:26:31
720,162,-541,1,-1,-9,-9,5,997,13:26:31
720,171,-550,2,-1,-8,-9,3,998,13:26:31
729,166,-549,2,-1,-7,-7,2,1000,13:26:31
718,175,-552,0,0,-8,-6,3,1000,13:26:31
730,174,-541,2,-2,-8,-6,5,1001,13:26:31
709,183,-543,2,-1,-9,-6,5,1001,13:26:31
702,168,-529,2,-2,-9,-5,5,999,13:26:31
708,168,-558,1,-2,-9,-5,5,998,13:26:31
714,162,-549,2,-1,-9,-7,4,997,13:26:31
711,151,-562,2,-2,-8,-8,5,997,13:26:31
732,180,-555,2,-1,-9,-6,5,998,13:26:31
706,181,-544,2,-2,-9,-6,7,998,13:26:31
723,169,-535,2,0,-9,-7,6,997,13:26:31
723,169,-535,2,0,-9,-7,4,998,13:26:31
721,174,-537,2,-1,-7,-7,3,998,13:26:31
714,172,-550,2,-2,-8,-8,3,998,13:26:31
718,171,-556,2,-2,-8,-9,6,999,13:26:31
715,174,-555,2,-2,-8,-6,7,999,13:26:31
714,163,-543,2,-1,-8,-7,7,1000,13:26:31
730,183,-553,2,-1,-9,-9,8,999,13:26:31
718,171,-552,1,-1,-9,-7,5,998,13:26:31
723,169,-544,2,-2,-8,-5,3,999,13:26:31
715,171,-553,2,-1,-8,-4,1,999,13:26:31
720,175,-540,2,0,-8,-4,1,999,13:26:31
715,175,-561,2,0,-8,-4,2,999,13:26:31
723,165,-559,1,0,-7,-5,4,999,13:26:31
723,165,-559,2,-1,-7,-6,4,999,13:26:31
724,177,-552,2,-1,-8,-7,3,999,13:26:31
744,178,-556,2,-1,-9,-9,2,998,13:26:31
733,166,-552,2,-2,-9,-9,3,998,13:26:31
720,178,-546,1,-1,-8,-7,6,999,13:26:31
726,166,-564,1,-2,-8,-6,7,997,13:26:32
714,162,-556,2,-2,-7,-6,6,998,13:26:32
732,171,-552,2,0,-9,-6,5,998,13:26:32
712,172,-544,2,-1,-8,-9,3,999,13:26:32
724,157,-549,2,0,-9,-9,2,1000,13:26:32
736,178,-546,2,-2,-8,-6,2,999,13:26:32
714,171,-534,2,-2,-9,-5,4,997,13:26:32
717,183,-537,2,-2,-8,-6,6,999,13:26:32
726,177,-547,3,-2,-7,-7,5,1000,13:26:32
711,165,-537,3,-1,-8,-7,5,1000,13:26:32
715,175,-552,2,0,-9,-7,4,1000,13:26:32
739,177,-547,2,-1,-9,-6,3,997,13:26:32
724,168,-552,1,-2,-8,-5,3,998,13:26:32
739,187,-546,2,-1,-8,-6,4,1000,13:26:32
739,187,-546,1,-1,-8,-8,3,999,13:26:32
720,168,-540,1,-2,-8,-10,3,999,13:26:32
706,169,-553,2,-2,-8,-9,5,999,13:26:32
723,175,-558,0,0,-9,-7,5,999,13:26:32
706,163,-540,2,-1,-8,-6,4,998,13:26:32
720,192,-550,2,-2,-9,-7,2,997,13:26:32
739,183,-537,2,-2,-8,-7,5,999,13:26:32
721,171,-567,2,-2,-7,-7,7,999,13:26:32
718,165,-555,2,-2,-7,-9,4,997,13:26:32
720,154,-526,2,-2,-9,-9,3,999,13:26:32
726,178,-544,2,-2,-9,-6,5,999,13:26:32
724,165,-546,2,0,-9,-7,6,999,13:26:32
724,165,-546,2,-1,-9,-9,7,1000,13:26:32
715,157,-547,0,-1,-8,-7,6,1000,13:26:32
715,166,-541,1,-2,-9,-7,6,1000,13:26:32
690,174,-537,2,-2,-9,-6,4,999,13:26:32
726,160,-553,2,-2,-8,-6,4,999,13:26:32
720,177,-543,2,-2,-8,-7,5,998,13:26:32
711,181,-561,2,0,-9,-7,4,998,13:26:32
723,180,-537,2,-1,-8,-7,2,997,13:26:32
720,190,-541,2,-2,-9,-7,5,996,13:26:32
730,160,-556,3,0,-8,-5,5,998,13:26:32
720,180,-522,2,-2,-7,-8,6,998,13:26:32
714,171,-540,1,0,-8,-10,7,999,13:26:32
712,165,-543,1,-2,-7,-8,6,1000,13:26:32
712,165,-543,1,-1,-8,-8,6,998,13:26:32
721,165,-546,2,-2,-8,-8,5,999,13:26:32
730,154,-549,2,-1,-8,-8,3,998,13:26:32
706,165,-544,2,-2,-9,-8,4,998,13:26:32
720,177,-537,2,0,-9,-8,5,998,13:26:32
721,172,-540,2,0,-9,-8,6,999,13:26:32
709,165,-556,2,-1,-8,-8,6,999,13:26:32
712,156,-534,2,0,-9,-4,6,999,13:26:32
712,159,-541,2,0,-9,-6,6,998,13:26:32
724,180,-547,2,-1,-9,-7,6,999,13:26:32
724,159,-550,2,-1,-7,-7,5,1000,13:26:32
717,177,-543,2,-2,-8,-6,4,999,13:26:33
717,177,-543,2,-2,-8,-6,5,1000,13:26:33
696,181,-528,2,-1,-8,-6,3,1000,13:26:33
714,165,-538,2,-1,-8,-6,3,998,13:26:33
720,156,-549,2,-2,-8,-6,6,998,13:26:33
714,177,-555,2,-1,-8,-7,5,999,13:26:33
735,177,-538,2,0,-9,-6,5,999,13:26:33
709,166,-574,3,-3,-8,-5,7,999,13:26:33
724,183,-564,2,-1,-8,-5,6,1000,13:26:33
705,172,-549,1,-1,-8,-6,3,998,13:26:33
