magX[mG],magY[mG],magZ[mG],gyroX[mdps],gyroY[mdps],gyroZ[mdps],accX[mg],accY[mg],accZ[mg],hh:mm:ss.ms
331,30,-615,2,0,-9,-6,-40,998,21:29:39
327,22,-619,2,0,-9,-6,-40,998,21:29:39
327,22,-619,2,0,-9,-6,-40,998,21:29:39
327,22,-619,2,0,-9,-6,-40,998,21:29:39
327,22,-619,2,0,-9,-6,-40,998,21:29:39
327,22,-619,2,0,-9,-6,-40,998,21:29:39
327,22,-619,2,0,-9,-6,-40,998,21:29:39
327,22,-619,2,0,-9,-6,-40,998,21:29:39
327,22,-619,2,0,-9,-6,-40,998,21:29:39
327,22,-619,2,0,-9,-6,-40,998,21:29:39
327,22,-619,2,0,-9,-6,-40,998,21:29:39
327,22,-619,2,0,-9,-6,-40,998,21:29:39
327,22,-619,2,0,-9,-6,-40,998,21:29:39
327,22,-619,2,0,-9,-6,-40,998,21:29:39
327,22,-619,2,0,-9,-6,-40,998,21:29:39
327,22,-619,2,0,-9,-6,-40,998,21:29:39
327,22,-619,2,0,-9,-6,-40,998,21:29:39
327,22,-619,2,0,-9,-6,-40,998,21:29:39
327,22,-619,2,0,-9,-6,-40,998,21:29:39
327,22,-619,2,0,-9,-6,-40,998,21:29:39
327,22,-619,2,0,-9,-6,-40,998,21:29:39
327,22,-619,2,0,-9,-6,-40,998,21:29:39
327,22,-619,2,0,-9,-6,-40,998,21:29:39
327,22,-619,2,0,-9,-6,-40,998,21:29:39
327,22,-619,2,0,-9,-6,-40,998,21:29:39
327,22,-619,2,0,-9,-6,-40,998,21:29:39
327,22,-619,2,0,-9,-6,-40,998,21:29:39
327,22,-619,2,0,-9,-6,-40,998,21:29:39
327,22,-619,2,0,-9,-6,-40,998,21:29:39
327,22,-619,2,0,-9,-6,-40,998,21:29:39
327,22,-619,2,0,-9,-6,-40,998,21:29:39
327,22,-619,2,0,-9,-6,-40,998,21:29:39
327,22,-619,2,0,-9,-6,-40,998,21:29:39
327,22,-619,2,0,-9,-6,-40,998,21:29:39
327,22,-619,2,0,-9,-6,-40,998,21:29:39
327,22,-619,2,0,-9,-6,-40,998,21:29:39
327,22,-619,2,0,-9,-6,-40,998,21:29:39
327,22,-619,2,0,-9,-6,-40,998,21:29:39
327,22,-619,2,0,-9,-6,-40,998,21:29:39
327,22,-619,2,0,-9,-6,-40,998,21:29:39
327,22,-619,2,0,-9,-6,-40,998,21:29:39
327,22,-619,2,0,-9,-6,-40,998,21:29:39
327,22,-619,2,0,-9,-6,-40,998,21:29:39
327,22,-619,2,0,-9,-6,-40,998,21:29:39
327,22,-619,2,0,-9,-6,-40,998,21:29:39
327,22,-619,2,0,-9,-6,-40,998,21:29:39
327,22,-619,2,0,-9,-6,-40,998,21:29:39
327,22,-619,2,0,-9,-6,-40,998,21:29:39
327,22,-619,2,0,-9,-6,-40,998,21:29:39
327,22,-619,2,0,-9,-6,-40,998,21:29:39
327,22,-619,2,0,-9,-6,-40,998,21:29:39
327,22,-619,2,0,-9,-6,-40,998,21:29:39
327,22,-619,2,0,-9,-6,-40,998,21:29:39
327,22,-619,2,0,-9,-6,-40,998,21:29:39
327,22,-619,2,0,-9,-6,-40,998,21:29:39
327,22,-619,2,0,-9,-6,-40,998,21:29:39
327,22,-619,2,0,-9,-6,-40,998,21:29:39
327,22,-619,2,0,-9,-6,-40,998,21:29:39
327,22,-619,2,0,-9,-6,-40,998,21:29:39
327,22,-619,2,0,-9,-6,-40,998,21:29:39
327,22,-619,2,0,-9,-6,-40,998,21:29:39
327,22,-619,2,0,-9,-6,-40,998,21:29:39
327,22,-619,2,0,-9,-6,-40,998,21:29:39
327,22,-619,2,0,-9,-6,-40,998,21:29:39
327,22,-619,2,0,-9,-6,-40,998,21:29:39
327,22,-619,2,0,-9,-6,-40,998,21:29:39
327,22,-619,2,0,-9,-6,-40,998,21:29:39
327,22,-619,2,0,-9,-6,-40,998,21:29:39
327,22,-619,2,0,-9,-6,-40,998,21:29:39
327,22,-619,2,0,-9,-6,-40,998,21:29:39
327,22,-619,2,0,-9,-6,-40,998,21:29:39
327,22,-619,2,0,-9,-6,-40,998,21:29:39
327,22,-619,2,0,-9,-6,-40,998,21:29:39
327,22,-619,2,0,-9,-6,-40,998,21:29:39
327,22,-619,2,0,-9,-6,-40,998,21:29:39
327,22,-619,2,0,-9,-6,-40,998,21:29:39
327,22,-619,2,0,-9,-6,-40,998,21:29:39
327,22,-619,2,0,-9,-6,-40,998,21:29:39
327,22,-619,2,0,-9,-6,-40,998,21:29:39
327,22,-619,2,0,-9,-6,-40,998,21:29:39
327,22,-619,2,0,-9,-6,-40,998,21:29:39
327,22,-619,2,0,-9,-6,-40,998,21:29:39
327,22,-619,2,0,-9,-6,-40,998,21:29:39
327,22,-619,2,0,-9,-6,-40,998,21:29:39
327,22,-619,2,0,-9,-6,-40,998,21:29:39
327,22,-619,2,0,-9,-6,-40,998,21:29:39
327,22,-619,2,0,-9,-6,-40,998,21:29:39
327,22,-619,2,0,-9,-6,-40,998,21:29:39
327,22,-619,2,0,-9,-6,-40,998,21:29:39
327,22,-619,2,0,-9,-6,-40,998,21:29:39
327,22,-619,2,0,-9,-6,-40,998,21:29:39
327,22,-619,2,0,-9,-6,-40,998,21:29:39
327,22,-619,2,0,-9,-6,-40,998,21:29:39
327,22,-619,2,0,-9,-6,-40,998,21:29:39
327,22,-619,2,0,-9,-6,-40,998,21:29:39
327,22,-619,2,0,-9,-6,-40,998,21:29:39
327,22,-619,2,0,-9,-6,-40,998,21:29:39
327,22,-619,2,0,-9,-6,-40,998,21:29:39
327,22,-619,2,0,-9,-6,-40,998,21:29:39
327,22,-619,2,0,-9,-6,-40,998,21:29:39
327,22,-619,2,0,-9,-6,-40,998,21:29:39
327,22,-619,2,0,-9,-6,-40,998,21:29:39
327,22,-619,2,0,-9,-6,-40,998,21:29:39
327,22,-619,2,0,-9,-6,-40,998,21:29:39
327,22,-619,2,0,-9,-6,-40,998,21:29:39
327,22,-619,2,0,-9,-6,-40,998,21:29:39
327,22,-619,2,0,-9,-6,-40,998,21:29:39
327,22,-619,2,0,-9,-6,-40,998,21:29:39
327,22,-619,2,0,-9,-6,-40,998,21:29:39
327,22,-619,2,0,-9,-6,-40,998,21:29:39
327,22,-619,2,0,-9,-6,-40,998,21:29:39
327,22,-619,2,0,-9,-6,-40,998,21:29:39
327,22,-619,2,0,-9,-6,-40,998,21:29:39
327,22,-619,2,0,-9,-6,-40,998,21:29:39
327,22,-619,2,0,-9,-6,-40,998,21:29:39
327,22,-619,2,0,-9,-6,-40,998,21:29:39
327,22,-619,2,0,-9,-6,-40,998,21:29:39
327,22,-619,2,0,-9,-6,-40,998,21:29:39
327,22,-619,2,0,-9,-6,-40,998,21:29:39
327,22,-619,0,-1,-9,-5,-42,998,21:29:39
304,34,-597,1,-1,-10,-5,-40,998,21:29:39
294,37,-604,0,-2,-10,-5,-40,998,21:29:39
306,25,-600,2,-2,-10,-5,-41,997,21:29:39
300,31,-604,1,-1,-9,-6,-40,997,21:29:39
307,33,-600,1,0,-10,-5,-38,1001,21:29:39
312,36,-598,0,0,-10,-5,-38,999,21:29:39
312,36,-598,1,0,-9,-5,-38,997,21:29:39
304,22,-612,1,0,-10,-4,-39,998,21:29:39
319,24,-598,0,-1,-9,-9,-42,999,21:29:39
328,36,-615,1,-2,-9,-7,-41,998,21:29:39
331,46,-619,0,-1,-9,-7,-41,998,21:29:39
321,19,-597,0,-1,-9,-5,-40,998,21:29:39
321,19,-597,0,-1,-10,-4,-40,999,21:29:39
318,34,-582,0,-1,-9,-6,-40,1000,21:29:39
328,22,-600,0,-2,-9,-7,-41,999,21:29:39
321,54,-595,0,0,-9,-6,-43,999,21:29:39
309,30,-579,0,-6,-8,-6,-41,1000,21:29:39
318,40,-594,0,-2,-9,-6,-39,999,21:29:39
318,16,-585,2,0,-9,-4,-41,1000,21:29:39
301,22,-585,1,-1,-9,-5,-44,999,21:29:39
301,22,-585,1,0,-9,-8,-42,997,21:29:39
319,34,-594,1,0,-9,-9,-39,1000,21:29:39
312,27,-582,0,0,-9,-6,-40,999,21:29:39
312,27,-582,0,1,-9,-3,-39,998,21:29:39
325,33,-604,1,2,-10,-4,-38,999,21:29:39
322,33,-603,1,0,-9,-4,-38,999,21:29:39
310,36,-598,1,-2,-9,-7,-40,999,21:29:39
310,36,-598,2,-1,-9,-7,-41,999,21:29:39
313,24,-609,1,0,-9,-7,-40,1000,21:29:39
310,24,-600,2,5,-11,-8,-41,998,21:29:39
298,39,-601,0,1,-10,-6,-41,998,21:29:39
321,33,-604,0,1,-10,-6,-42,999,21:29:39
309,45,-609,0,0,-9,-6,-41,998,21:29:39
312,36,-592,0,-1,-10,-5,-37,997,21:29:39
312,36,-592,3,0,-9,-5,-38,997,21:29:39
328,31,-618,1,0,-9,-5,-40,998,21:29:39
312,49,-589,2,2,-10,-5,-42,998,21:29:39
313,22,-595,1,0,-10,-5,-42,996,21:29:39
310,52,-615,2,0,-9,-6,-40,998,21:29:39
319,30,-591,1,-1,-9,-7,-41,1000,21:29:39
307,34,-595,0,-2,-9,-5,-41,999,21:29:39
307,34,-595,0,0,-9,-4,-39,999,21:29:39
315,33,-597,0,-1,-9,-4,-39,999,21:29:40
303,22,-592,0,-5,-9,-6,-41,998,21:29:40
303,22,-592,0,0,-9,-4,-40,1000,21:29:40
309,36,-589,0,0,-9,-2,-39,999,21:29:40
334,48,-595,1,0,-9,-2,-39,999,21:29:40
328,42,-613,0,-2,-9,-5,-39,998,21:29:40
328,42,-613,0,-2,-9,-5,-39,999,21:29:40
316,31,-600,1,-2,-9,-4,-39,1000,21:29:40
310,48,-604,2,-1,-10,-7,-38,999,21:29:40
319,24,-580,2,-1,-10,-7,-39,1000,21:29:40
328,25,-607,1,0,-9,-6,-40,1000,21:29:40
307,28,-619,2,0,-9,-5,-40,998,21:29:40
331,34,-604,1,-1,-9,-7,-41,998,21:29:40
331,34,-604,0,-1,-9,-7,-41,999,21:29:40
315,15,-600,0,0,-9,-6,-38,1000,21:29:40
318,33,-592,4,6,-11,-6,-39,998,21:29:40
318,33,-592,3,2,-10,-4,-39,998,21:29:40
322,25,-612,2,0,-10,-3,-38,999,21:29:40
324,22,-600,0,0,-9,-6,-40,999,21:29:40
325,24,-609,0,-1,-9,-6,-41,998,21:29:40
325,24,-609,1,-1,-9,-5,-40,998,21:29:40
328,19,-607,1,0,-10,-4,-38,999,21:29:40
333,46,-607,0,3,-10,-6,-38,998,21:29:40
307,33,-595,0,-2,-9,-8,-39,996,21:29:40
328,28,-613,1,-2,-9,-8,-39,996,21:29:40
318,25,-598,2,0,-9,-6,-38,998,21:29:40
313,24,-610,2,0,-10,-5,-39,999,21:29:40
313,24,-610,2,0,-10,-4,-39,998,21:29:40
334,28,-609,1,-2,-9,-3,-38,998,21:29:40
298,34,-597,1,-1,-9,-3,-39,998,21:29:40
310,36,-616,0,-2,-9,-3,-40,999,21:29:40
294,39,-594,0,-2,-9,-4,-38,999,21:29:40
319,39,-616,0,-2,-9,-6,-38,1000,21:29:40
310,42,-616,2,0,-9,-5,-40,1001,21:29:40
310,42,-616,0,-2,-9,-6,-40,1000,21:29:40
321,40,-591,0,-2,-9,-6,-40,1000,21:29:40
309,36,-591,0,-5,-9,-6,-41,998,21:29:40
309,36,-591,0,-4,-9,-4,-42,998,21:29:40
291,48,-618,2,0,-9,-3,-41,998,21:29:40
325,27,-600,1,0,-9,-6,-38,997,21:29:40
301,36,-592,0,0,-9,-7,-37,998,21:29:40
301,36,-592,0,0,-9,-6,-38,1000,21:29:40
321,31,-591,1,-2,-9,-6,-40,999,21:29:40
319,49,-598,2,6,-11,-6,-41,998,21:29:40
316,24,-603,0,-4,-9,-7,-41,998,21:29:40
313,30,-612,0,-2,-9,-7,-41,998,21:29:40
318,25,-616,2,0,-9,-7,-42,998,21:29:40
327,30,-616,2,0,-9,-7,-40,998,21:29:40
327,30,-616,2,0,-9,-7,-40,1000,21:29:40
310,27,-613,0,0,-9,-6,-41,1000,21:29:40
301,31,-580,0,-1,-9,-6,-40,1000,21:29:40
301,31,-580,0,-2,-9,-6,-40,1000,21:29:40
310,40,-606,0,-2,-9,-5,-42,1000,21:29:40
312,25,-604,0,-2,-9,-5,-42,1001,21:29:40
298,25,-606,2,0,-9,-4,-38,1000,21:29:40
319,7,-606,2,0,-9,-5,-39,998,21:29:40
319,7,-606,0,0,-9,-6,-39,997,21:29:40
325,18,-607,4,0,-11,-5,-39,998,21:29:40
315,39,-598,3,2,-11,-6,-41,1000,21:29:40
322,28,-609,1,0,-9,-5,-40,998,21:29:40
316,34,-606,1,-1,-9,-5,-40,998,21:29:40
316,28,-594,2,-1,-9,-6,-42,999,21:29:40
318,18,-607,1,-2,-9,-7,-41,998,21:29:40
318,18,-607,1,-1,-9,-8,-40,998,21:29:40
306,30,-577,0,-3,-9,-8,-40,998,21:29:40
306,30,-577,1,-1,-9,-7,-40,999,21:29:40
319,18,-616,1,-1,-9,-8,-40,1000,21:29:40
319,42,-621,0,-2,-9,-9,-40,1002,21:29:40
324,48,-606,0,-2,-9,-6,-39,1001,21:29:40
312,48,-610,0,-2,-9,-4,-39,1000,21:29:40
312,48,-610,2,-2,-9,-4,-41,1000,21:29:40
304,33,-589,1,4,-10,-6,-42,999,21:29:40
304,33,-589,0,0,-9,-8,-39,1001,21:29:40
315,34,-613,0,0,-9,-8,-39,1000,21:29:40
330,43,-615,1,0,-9,-7,-41,998,21:29:40
330,37,-603,2,0,-9,-6,-41,997,21:29:40
330,37,-603,2,0,-10,-6,-38,999,21:29:40
330,21,-586,1,0,-10,-8,-38,1001,21:29:40
337,37,-606,0,2,-10,-11,-42,1001,21:29:40
322,30,-600,0,1,-10,-7,-41,999,21:29:40
316,31,-610,2,1,-10,-6,-39,998,21:29:40
325,54,-612,1,0,-9,-9,-40,998,21:29:40
319,51,-615,1,-1,-9,-7,-41,998,21:29:40
319,51,-615,1,-1,-9,-7,-41,998,21:29:40
318,22,-613,1,-2,-9,-5,-42,999,21:29:40
315,36,-600,1,2,-9,-7,-41,1000,21:29:40
315,36,-600,1,0,-9,-6,-40,1000,21:29:40
307,15,-618,2,-1,-10,-5,-40,999,21:29:40
346,34,-603,2,-1,-10,-5,-40,1000,21:29:40
328,42,-594,2,0,-10,-6,-41,1000,21:29:40
328,42,-594,2,-1,-9,-7,-40,999,21:29:40
316,42,-618,1,-2,-9,-6,-41,1000,21:29:40
313,48,-595,0,-2,-9,-6,-41,999,21:29:40
327,30,-604,1,-2,-9,-6,-39,998,21:29:40
322,40,-619,0,-2,-9,-5,-39,997,21:29:40
315,43,-613,1,-1,-9,-5,-40,998,21:29:40
313,16,-615,1,0,-9,-5,-41,1000,21:29:40
313,16,-615,2,0,-9,-5,-41,1000,21:29:40
336,22,-615,2,0,-9,-5,-40,1000,21:29:40
330,28,-591,2,7,-11,-7,-41,998,21:29:40
330,28,-591,0,3,-10,-7,-42,997,21:29:40
316,39,-610,0,-1,-9,-6,-42,996,21:29:40
333,24,-613,2,0,-9,-6,-42,996,21:29:40
336,31,-616,2,0,-9,-6,-42,998,21:29:40
336,31,-616,1,-2,-9,-4,-42,1001,21:29:40
316,15,-616,0,-1,-8,-4,-40,999,21:29:40
316,24,-618,0,-1,-9,-7,-38,997,21:29:40
292,34,-580,0,-2,-9,-7,-37,998,21:29:41
315,28,-604,0,-2,-9,-4,-40,998,21:29:41
327,22,-609,1,-1,-9,-4,-41,998,21:29:41
318,25,-627,1,-1,-9,-7,-40,999,21:29:41
318,25,-627,2,0,-9,-8,-41,998,21:29:41
312,28,-600,2,0,-10,-7,-42,998,21:29:41
333,7,-627,2,0,-9,-7,-42,996,21:29:41
321,3,-624,1,-1,-10,-7,-43,996,21:29:41
307,15,-615,0,-2,-9,-7,-43,1000,21:29:41
315,40,-604,1,-3,-9,-5,-41,1002,21:29:41
318,37,-603,2,0,-9,-3,-40,1000,21:29:41
318,37,-603,2,2,-9,-7,-39,998,21:29:41
342,45,-603,1,-3,-9,-8,-40,998,21:29:41
303,22,-618,2,2,-11,-4,-41,998,21:29:41
303,22,-618,1,2,-9,-4,-42,998,21:29:41
324,25,-604,2,0,-9,-6,-42,1000,21:29:41
325,27,-615,1,-2,-9,-6,-42,1000,21:29:41
313,22,-594,0,0,-9,-6,-40,997,21:29:41
322,25,-595,1,0,-10,-6,-40,994,21:29:41
322,25,-595,1,0,-10,-6,-41,999,21:29:41
310,28,-615,1,0,-9,-5,-41,1001,21:29:41
327,33,-612,1,0,-9,-4,-40,997,21:29:41
310,40,-613,1,0,-10,-7,-39,997,21:29:41
315,34,-615,0,-3,-9,-7,-41,998,21:29:41
321,37,-601,0,-2,-9,-5,-42,999,21:29:41
300,31,-613,0,0,-9,-5,-42,1000,21:29:41
300,31,-613,1,0,-9,-6,-42,1000,21:29:41
325,28,-616,1,-7,-9,-7,-42,997,21:29:41
325,28,-616,1,0,-9,-6,-41,997,21:29:41
316,22,-604,2,0,-9,-7,-40,997,21:29:41
327,36,-631,1,-2,-9,-6,-40,997,21:29:41
337,37,-625,0,0,-9,-5,-39,999,21:29:41
333,13,-622,0,0,-9,-5,-39,998,21:29:41
310,10,-613,2,-1,-9,-5,-42,997,21:29:41
310,10,-613,0,1,-9,-6,-42,997,21:29:41
322,15,-606,1,5,-10,-6,-41,998,21:29:41
315,31,-615,2,-2,-9,-6,-41,998,21:29:41
298,31,-597,1,-3,-9,-8,-39,1001,21:29:41
310,22,-604,1,0,-10,-7,-38,1000,21:29:41
322,21,-609,0,-4,-7,-5,-41,999,21:29:41
330,21,-607,0,-4,-7,-7,-41,1010,21:29:41
330,21,-607,1,-6,-11,-5,-37,998,21:29:41
306,31,-594,4,-2,-7,-7,-36,975,21:29:41
318,7,-625,-1,-3,-10,-10,-44,979,21:29:41
322,18,-621,-2,-4,-7,-10,-42,990,21:29:41
319,18,-616,3,0,-11,-7,-39,997,21:29:41
324,19,-618,2,0,-9,-7,-42,994,21:29:41
334,24,-621,-1,-1,-9,-7,-43,991,21:29:41
334,24,-621,0,0,-8,-4,-41,991,21:29:41
325,12,-618,1,0,-9,-6,-39,996,21:29:41
306,25,-624,1,-2,-9,-8,-42,999,21:29:41
301,19,-613,1,0,-9,-7,-41,997,21:29:41
322,15,-603,2,2,-9,-6,-38,997,21:29:41
319,28,-609,2,-1,-8,-5,-40,1000,21:29:41
319,28,-609,0,-4,-9,-5,-41,999,21:29:41
300,46,-598,0,-2,-9,-5,-41,999,21:29:41
318,33,-598,0,0,-10,-7,-40,998,21:29:41
309,13,-603,1,-1,-9,-7,-40,999,21:29:41
319,28,-613,1,0,-10,-6,-40,998,21:29:41
309,16,-621,0,0,-9,-6,-39,999,21:29:41
306,34,-613,0,0,-9,-7,-39,1001,21:29:41
312,16,-627,0,-2,-10,-6,-42,1001,21:29:41
312,16,-627,1,-4,-9,-5,-42,999,21:29:41
301,21,-598,1,0,-9,-5,-39,999,21:29:41
322,49,-597,1,-2,-9,-6,-40,999,21:29:41
310,28,-621,1,-1,-9,-6,-42,999,21:29:41
319,43,-624,1,-1,-9,-6,-42,999,21:29:41
330,24,-622,0,0,-9,-4,-42,998,21:29:41
310,31,-612,0,-1,-9,-3,-42,998,21:29:41
310,31,-612,0,5,-10,-6,-40,999,21:29:41
310,30,-612,1,3,-10,-4,-41,999,21:29:41
316,37,-618,0,0,-9,-3,-40,999,21:29:41
304,25,-618,1,-4,-9,-6,-40,1003,21:29:41
315,18,-621,0,-5,-9,-8,-42,999,21:29:41
324,24,-609,2,-2,-9,-8,-42,999,21:29:41
319,30,-606,2,-1,-10,-10,-42,993,21:29:41
319,30,-606,-2,-10,-8,-8,-42,994,21:29:41
307,10,-598,0,0,-11,-7,-40,994,21:29:41
310,31,-606,4,3,-11,-4,-40,1000,21:29:41
300,24,-621,2,-2,-9,-3,-38,1000,21:29:41
328,21,-604,2,-2,-9,-4,-39,1002,21:29:41
313,28,-612,0,-4,-9,-5,-41,1000,21:29:41
313,28,-612,2,1,-9,-3,-40,989,21:29:41
310,27,-604,4,-3,-8,-5,-40,991,21:29:41
310,27,-604,-2,6,-9,-4,-41,987,21:29:41
342,34,-619,0,9,-9,-6,-40,991,21:29:41
315,18,-628,2,-4,-11,-9,-37,1007,21:29:41
300,22,-616,2,-7,-7,-2,-39,1005,21:29:41
312,34,-595,2,11,-11,-1,-41,993,21:29:41
312,34,-595,0,9,-9,-11,-39,996,21:29:41
315,25,-604,2,-9,-9,-13,-38,1007,21:29:41
312,21,-618,2,-3,-9,-1,-39,997,21:29:41
340,22,-612,3,11,-11,-3,-41,994,21:29:41
324,19,-615,0,-2,-9,-11,-43,1003,21:29:41
334,25,-633,-1,-8,-9,-11,-43,1003,21:29:41
324,33,-627,2,2,-10,-7,-41,1000,21:29:41
324,33,-627,2,1,-9,-4,-38,994,21:29:41
294,31,-583,0,-5,-9,-9,-38,1001,21:29:41
294,31,-583,0,1,-9,-9,-38,1003,21:29:41
322,22,-607,2,1,-9,-4,-35,997,21:29:41
319,4,-609,2,1,-9,-6,-37,1000,21:29:41
324,21,-625,0,-4,-8,-8,-40,997,21:29:41
310,18,-610,-1,0,-9,-3,-39,990,21:29:41
319,25,-613,0,2,-9,-5,-38,995,21:29:41
319,25,-613,0,-7,-9,-9,-39,1004,21:29:41
318,21,-609,2,-6,-9,-5,-39,1000,21:29:41
307,16,-615,2,3,-9,-3,-40,997,21:29:41
312,15,-606,0,0,-9,-7,-42,1000,21:29:42
330,9,-616,0,-4,-8,-5,-41,1002,21:29:42
301,27,-627,1,0,-9,-5,-40,998,21:29:42
322,36,-615,0,0,-9,-6,-42,998,21:29:42
322,36,-615,2,11,-11,-7,-42,1000,21:29:42
300,25,-597,1,1,-9,-5,-40,999,21:29:42
316,10,-621,0,0,-10,-4,-40,999,21:29:42
330,36,-607,1,0,-9,-6,-42,1000,21:29:42
328,40,-615,0,-1,-9,-6,-42,1000,21:29:42
303,7,-616,0,0,-8,-7,-40,999,21:29:42
303,27,-610,1,-1,-9,-7,-39,998,21:29:42
303,27,-610,1,-1,-9,-8,-39,999,21:29:42
315,27,-595,2,0,-10,-8,-40,999,21:29:42
319,15,-613,2,0,-10,-7,-42,997,21:29:42
310,24,-619,1,-2,-9,-7,-41,998,21:29:42
316,18,-618,1,0,-9,-7,-43,998,21:29:42
321,22,-606,1,0,-9,-5,-42,998,21:29:42
309,12,-592,1,0,-9,-5,-39,1000,21:29:42
309,12,-592,0,1,-10,-5,-39,999,21:29:42
321,12,-622,0,-1,-9,-5,-39,996,21:29:42
313,12,-607,0,-1,-9,-6,-40,997,21:29:42
313,33,-616,0,-3,-9,-6,-40,1000,21:29:42
322,39,-634,1,-2,-9,-4,-40,999,21:29:42
309,31,-613,2,0,-9,-5,-40,997,21:29:42
315,46,-610,2,0,-9,-7,-42,998,21:29:42
315,46,-610,0,0,-9,-7,-43,998,21:29:42
319,33,-600,2,0,-9,-6,-41,996,21:29:42
303,28,-594,2,0,-9,-7,-40,998,21:29:42
328,34,-603,1,-1,-9,-7,-40,998,21:29:42
315,24,-607,1,-1,-9,-5,-42,1000,21:29:42
316,24,-613,2,2,-9,-5,-41,998,21:29:42
316,21,-616,2,0,-10,-6,-40,998,21:29:42
316,21,-616,2,0,-10,-6,-41,999,21:29:42
316,21,-607,1,-1,-9,-5,-41,996,21:29:42
325,37,-607,1,1,-9,-6,-40,997,21:29:42
312,34,-625,1,0,-9,-8,-38,999,21:29:42
313,15,-619,1,-1,-10,-7,-38,998,21:29:42
307,19,-622,2,0,-9,-7,-40,998,21:29:42
310,31,-610,1,0,-9,-6,-42,999,21:29:42
310,31,-610,0,-4,-9,-5,-39,999,21:29:42
288,25,-609,0,-4,-9,-5,-38,998,21:29:42
313,4,-621,1,-2,-9,-6,-40,998,21:29:42
315,30,-609,2,0,-9,-5,-41,999,21:29:42
321,19,-597,2,1,-9,-4,-42,998,21:29:42
327,34,-622,1,0,-9,-5,-40,998,21:29:42
327,34,-622,0,0,-10,-5,-39,999,21:29:42
319,39,-592,5,7,-11,-5,-38,999,21:29:42
319,39,-592,2,0,-9,-6,-39,1000,21:29:42
327,33,-627,1,-2,-9,-6,-39,1000,21:29:42
328,34,-622,2,0,-9,-6,-41,999,21:29:42
331,30,-615,2,0,-9,-5,-40,999,21:29:42
321,28,-610,2,0,-9,-6,-39,1001,21:29:42
321,28,-610,2,0,-9,-6,-40,998,21:29:42
310,33,-606,1,-1,-9,-5,-43,998,21:29:42
307,24,-610,1,-2,-9,-6,-42,1000,21:29:42
313,30,-598,0,0,-9,-7,-41,999,21:29:42
319,21,-618,1,0,-10,-6,-39,998,21:29:42
315,27,-624,1,-1,-9,-6,-39,1000,21:29:42
303,22,-609,2,-2,-9,-6,-41,1000,21:29:42
303,22,-609,1,-2,-9,-5,-40,999,21:29:42
306,10,-597,1,-1,-9,-7,-40,1000,21:29:42
306,10,-597,2,0,-10,-6,-39,999,21:29:42
318,6,-603,2,0,-9,-4,-38,998,21:29:42
316,19,-619,0,0,-9,-5,-40,998,21:29:42
310,42,-598,0,0,-10,-8,-40,997,21:29:42
313,30,-601,0,0,-10,-9,-39,998,21:29:42
313,30,-601,1,-2,-9,-6,-39,998,21:29:42
327,28,-600,1,0,-9,-6,-39,998,21:29:42
307,24,-603,2,2,-10,-6,-38,999,21:29:42
306,25,-598,1,2,-10,-5,-38,999,21:29:42
316,40,-618,0,-1,-9,-5,-41,1000,21:29:42
303,39,-598,0,-1,-9,-7,-41,1000,21:29:42
303,39,-598,0,-1,-9,-5,-39,999,21:29:42
327,30,-606,1,0,-9,-3,-38,999,21:29:42
316,4,-600,2,0,-9,-3,-41,999,21:29:42
309,13,-592,1,-1,-9,-4,-42,997,21:29:42
310,18,-598,1,0,-10,-7,-41,999,21:29:42
327,12,-613,2,0,-10,-7,-40,1000,21:29:42
324,24,-592,0,0,-9,-6,-40,1000,21:29:42
324,24,-592,0,0,-9,-4,-43,999,21:29:42
322,37,-609,1,0,-9,-5,-42,995,21:29:42
309,39,-588,2,-9,-7,-7,-39,990,21:29:42
309,39,-588,0,-1,-9,-9,-43,990,21:29:42
325,30,-604,0,0,-9,-10,-41,995,21:29:42
319,25,-609,2,0,-10,-7,-39,999,21:29:42
318,19,-624,2,0,-9,-5,-38,999,21:29:42
315,51,-613,0,0,-9,-5,-36,996,21:29:42
315,51,-613,2,0,-9,-5,-36,996,21:29:42
306,18,-603,3,1,-9,-4,-38,997,21:29:42
306,37,-595,2,2,-11,-4,-39,999,21:29:42
316,19,-600,0,1,-9,-5,-39,999,21:29:42
328,39,-619,0,-1,-9,-5,-41,997,21:29:42
309,34,-604,0,-1,-9,-7,-44,998,21:29:42
319,45,-607,0,-1,-9,-7,-43,1000,21:29:42
319,45,-607,0,0,-9,-4,-41,998,21:29:42
313,33,-598,1,4,-10,-5,-40,998,21:29:42
313,33,-598,0,0,-9,-6,-38,997,21:29:42
303,19,-619,-5,9,-6,0,-51,989,21:29:42
313,34,-616,-53,1,2,-10,-46,1000,21:29:42
304,46,-612,-33,-3,-1,-8,-30,991,21:29:42
309,16,-616,-6,0,0,-7,-33,986,21:29:42
316,30,-601,-4,-7,-7,-13,-36,999,21:29:42
316,30,-601,0,9,-6,-4,-37,996,21:29:42
325,24,-624,5,16,-14,-4,-38,1000,21:29:42
319,18,-600,7,24,-16,-6,-38,1000,21:29:42
306,6,-610,11,23,-16,-9,-38,1000,21:29:42
301,0,-619,7,21,-21,-13,-36,1005,21:29:43
310,21,-598,8,16,-32,-13,-36,1005,21:29:43
303,21,-616,14,23,-41,-9,-35,1003,21:29:43
303,21,-616,11,30,-50,-13,-35,1005,21:29:43
304,24,-600,14,39,-70,-17,-36,1007,21:29:43
324,28,-597,0,58,-59,-18,-35,998,21:29:43
334,33,-600,0,58,-59,-15,-37,1000,21:29:43
319,39,-619,-4,40,-33,-1,-55,1008,21:29:43
316,36,-619,-9,3,-11,6,-63,995,21:29:43
316,36,-619,-14,11,-8,0,-47,987,21:29:43
306,27,-610,-8,31,-9,-9,-37,995,21:29:43
306,27,-610,-13,26,-4,-11,-43,1001,21:29:43
319,24,-606,-16,15,5,-13,-41,999,21:29:43
300,34,-622,-21,-2,10,13,-31,998,21:29:43
318,31,-619,0,16,35,14,-31,997,21:29:43
316,22,-607,-11,28,23,-10,-45,995,21:29:43
316,22,-607,-11,26,25,-20,-41,996,21:29:43
309,34,-615,-14,23,-10,-27,-35,998,21:29:43
309,34,-616,-33,17,-35,-4,-44,997,21:29:43
328,27,-618,-19,23,-5,-10,-35,1001,21:29:43
321,27,-613,-14,-5,-2,-35,-28,1008,21:29:43
325,30,-631,-18,-14,-14,-35,-28,1008,21:29:43
319,25,-606,-22,-15,-9,-32,-33,1003,21:29:43
319,25,-606,-23,-22,5,-19,-36,998,21:29:43
327,46,-588,-21,-40,25,-9,-41,1004,21:29:43
327,46,-588,-18,-49,30,-10,-36,1005,21:29:43
315,27,-610,-18,-49,30,-15,-29,997,21:29:43
316,40,-618,-15,-39,12,-17,-27,996,21:29:43
310,30,-603,-9,-24,-4,-10,-30,996,21:29:43
313,22,-622,-2,-16,-11,-7,-32,998,21:29:43
313,22,-622,0,-21,-16,-13,-28,1001,21:29:43
333,25,-606,-15,-17,-41,-13,-25,996,21:29:43
324,7,-616,-4,-2,-33,-17,-28,994,21:29:43
327,19,-591,-2,-18,-38,-16,-37,995,21:29:43
312,10,-610,-1,-18,-35,-7,-34,996,21:29:43
318,36,-631,0,-20,-37,-9,-30,999,21:29:43
318,36,-631,1,-28,-24,-12,-33,997,21:29:43
324,31,-621,1,-32,-14,-12,-36,1000,21:29:43
313,31,-604,0,-46,-6,-10,-35,1001,21:29:43
330,24,-613,2,-43,-4,-4,-31,997,21:29:43
315,33,-612,6,-23,2,-8,-29,999,21:29:43
312,25,-622,2,-15,-11,-8,-29,999,21:29:43
318,22,-630,-2,0,-24,-10,-29,1000,21:29:43
318,22,-630,0,-7,-35,-5,-30,1000,21:29:43
322,24,-616,0,-30,-25,-14,-33,1006,21:29:43
312,19,-597,0,-30,-25,-12,-35,1007,21:29:43
312,19,-597,-9,-56,-15,7,-40,988,21:29:43
328,30,-607,0,-65,14,21,-46,991,21:29:43
321,25,-634,-9,-71,54,5,-33,1007,21:29:43
318,34,-606,-18,-51,77,-6,-29,991,21:29:43
318,34,-606,-16,-33,53,-19,-34,993,21:29:43
322,33,-621,-17,3,19,-19,-26,993,21:29:43
309,27,-597,-13,16,-5,-3,-23,981,21:29:43
325,33,-585,-4,28,-46,-5,-19,1002,21:29:43
318,24,-618,-4,25,-78,5,-20,997,21:29:43
304,34,-604,-7,44,-102,-2,-24,986,21:29:43
309,19,-607,-5,30,-76,-12,-31,1001,21:29:43
309,19,-607,-4,10,-51,-8,-32,1004,21:29:43
315,16,-609,-2,7,-46,-8,-23,995,21:29:43
315,33,-606,2,10,-39,-8,-23,995,21:29:43
315,33,-606,2,11,-32,-9,-34,1001,21:29:43
312,28,-609,2,9,-21,-9,-34,1001,21:29:43
315,4,-612,2,11,-16,-5,-33,998,21:29:43
318,30,-627,1,8,-17,-6,-31,1001,21:29:43
318,30,-627,1,8,-17,-6,-33,1000,21:29:43
318,34,-619,0,4,-16,-4,-33,998,21:29:43
310,27,-604,0,5,-11,-5,-30,998,21:29:43
298,21,-622,-4,-3,-6,-8,-30,998,21:29:43
315,22,-613,-4,-7,-4,-7,-31,996,21:29:43
336,31,-622,-2,-7,-6,-7,-29,997,21:29:43
343,25,-609,1,-3,-4,-8,-28,998,21:29:43
343,25,-609,5,1,-7,-5,-30,995,21:29:43
307,31,-601,8,9,-7,-3,-30,997,21:29:43
328,33,-604,14,14,-7,-5,-30,1001,21:29:43
316,40,-600,14,9,-2,-2,-31,997,21:29:43
336,21,-624,18,9,0,-3,-29,997,21:29:43
333,15,-610,22,7,2,-11,-21,1003,21:29:43
298,24,-609,29,7,4,-8,-20,1006,21:29:43
298,24,-609,32,10,6,-1,-24,1001,21:29:43
328,16,-612,37,11,49,1,3,1007,21:29:43
319,36,-600,57,20,59,1,3,1007,21:29:43
319,36,-600,-22,-40,172,0,18,1012,21:29:43
331,31,-613,-23,0,203,24,52,985,21:29:43
330,16,-615,4,-84,126,-61,149,932,21:29:43
291,37,-609,4,-84,126,-102,73,890,21:29:43
291,37,-609,21,-69,148,-26,20,937,21:29:43
315,36,-610,29,4,192,19,103,1019,21:29:43
328,31,-624,-23,-8,195,18,169,1059,21:29:43
319,39,-622,89,128,-58,-28,77,1114,21:29:43
313,31,-610,54,37,-183,-23,36,1103,21:29:43
313,28,-595,60,-28,-141,25,105,982,21:29:43
319,36,-601,-30,64,-305,10,161,1012,21:29:43
319,36,-601,6,102,-344,-40,180,1189,21:29:43
315,21,-633,47,107,-378,3,15,1129,21:29:43
316,25,-603,-350,-55,-375,-72,159,850,21:29:43
316,25,-603,-475,63,-551,-136,245,881,21:29:43
330,28,-622,-777,-20,-720,-10,44,789,21:29:43
333,27,-615,-291,343,-623,118,-108,930,21:29:43
328,24,-612,-80,116,-235,139,12,1208,21:29:43
328,24,-612,-131,4,-133,34,212,1058,21:29:43
342,40,-616,-168,-23,-328,34,212,1058,21:29:43
322,19,-615,-126,-72,-458,-54,199,961,21:29:43
316,27,-607,-170,-18,-466,-61,143,1010,21:29:43
318,36,-618,-116,-19,-375,-19,103,1010,21:29:43
315,33,-618,-109,-80,-320,-11,100,931,21:29:43
331,28,-607,-109,-80,-320,-40,108,947,21:29:43
331,28,-607,-72,-56,-314,-34,113,974,21:29:43
343,27,-619,-71,-86,-294,5,104,1016,21:29:44
321,19,-601,32,-105,-205,33,96,977,21:29:44
330,18,-597,56,-79,-177,34,67,1012,21:29:44
318,15,-604,-44,-123,-198,31,102,1000,21:29:44
330,34,-610,-38,10,-174,47,99,1051,21:29:44
318,9,-621,35,21,-137,60,78,1056,21:29:44
318,9,-621,42,30,-93,9,84,957,21:29:44
339,27,-627,10,30,-58,-45,70,1016,21:29:44
327,12,-586,-16,41,-36,-60,105,997,21:29:44
327,12,-586,13,16,-34,-45,127,934,21:29:44
330,37,-619,37,31,-74,-16,116,959,21:29:44
330,22,-619,46,63,-140,10,113,990,21:29:44
322,16,-613,-16,14,-149,45,122,991,21:29:44
322,16,-613,-35,-33,-132,45,122,991,21:29:44
328,4,-606,-23,-7,-28,102,121,1007,21:29:44
324,24,-604,-63,-48,130,139,100,1005,21:29:44
336,31,-603,-129,40,241,89,102,980,21:29:44
337,22,-613,-35,-10,257,-15,104,994,21:29:44
334,24,-604,-35,-10,257,-76,76,999,21:29:44
334,24,-604,93,54,209,-75,63,1076,21:29:44
325,45,-613,14,60,130,-24,95,1050,21:29:44
328,30,-612,5,-14,43,4,123,969,21:29:44
322,16,-591,24,2,-41,15,126,954,21:29:44
328,28,-622,-11,32,-110,24,130,955,21:29:44
333,19,-613,51,16,-158,-10,60,1052,21:29:44
328,24,-624,-29,30,-214,-48,46,1064,21:29:44
328,24,-624,-18,59,-204,-65,58,997,21:29:44
328,39,-618,4,-30,-177,-66,9,961,21:29:44
316,43,-625,-4,-13,-169,-66,-14,1047,21:29:44
324,4,-603,16,-43,-112,-28,-94,1134,21:29:44
331,45,-630,-102,-99,8,-10,-66,990,21:29:44
340,36,-621,-82,14,79,-18,-26,940,21:29:44
339,24,-603,-106,-55,143,-22,-17,942,21:29:44
339,24,-603,37,-60,210,-22,-17,942,21:29:44
331,22,-606,27,-82,168,-37,-36,1042,21:29:44
331,37,-598,-12,-64,62,-37,-64,1094,21:29:44
313,45,-577,19,-50,-51,-41,-55,1023,21:29:44
330,10,-595,19,-50,-51,-36,-90,1068,21:29:44
325,36,-622,-21,-5,-113,-29,-89,1040,21:29:44
324,45,-625,33,-51,-142,-13,-95,886,21:29:44
324,45,-625,44,-12,-110,-11,-141,913,21:29:44
325,25,-604,56,-23,-87,-32,-179,1000,21:29:44
333,45,-606,42,-30,-107,-66,-202,976,21:29:44
309,37,-585,-13,-55,-169,-96,-214,999,21:29:44
309,37,-585,-16,-45,-200,-87,-208,976,21:29:44
334,27,-610,-49,-47,-195,-68,-225,973,21:29:44
331,19,-600,-31,-11,-193,-54,-210,929,21:29:44
331,19,-600,-9,79,-175,-37,-196,931,21:29:44
321,49,-589,62,95,-133,-26,-236,1055,21:29:44
331,49,-588,-7,30,-147,-45,-234,1056,21:29:44
319,43,-609,-37,30,-199,-57,-184,923,21:29:44
334,28,-589,-10,51,-224,-24,-169,941,21:29:44
349,25,-588,0,47,-205,-24,-169,941,21:29:44
325,24,-588,80,39,-199,9,-185,1006,21:29:44
325,24,-588,-81,32,-151,8,-258,1038,21:29:44
346,28,-604,-102,40,-55,18,-187,1042,21:29:44
331,30,-622,-35,70,-15,67,-109,947,21:29:44
333,42,-591,-35,70,-15,45,-204,972,21:29:44
351,31,-579,-23,24,25,-42,-224,1051,21:29:44
351,37,-613,-23,-3,114,-57,-201,1007,21:29:44
324,19,-616,-9,10,131,-43,-161,1006,21:29:44
324,19,-616,-52,6,66,-23,-45,1010,21:29:44
337,30,-604,-38,4,95,21,3,999,21:29:44
330,42,-598,-22,-23,219,82,-28,999,21:29:44
328,19,-615,-5,15,301,66,-21,986,21:29:44
316,18,-598,4,25,389,19,-12,976,21:29:44
336,31,-604,9,15,449,18,-5,975,21:29:44
315,16,-612,35,21,438,-1,-3,973,21:29:44
315,16,-612,21,25,392,-19,15,991,21:29:44
330,52,-607,-11,25,338,-38,56,987,21:29:44
331,37,-606,-2,29,291,-30,60,971,21:29:44
330,37,-589,-14,0,254,-15,31,971,21:29:44
336,43,-598,-8,35,197,-15,31,971,21:29:44
330,39,-612,-4,54,142,-37,31,973,21:29:44
325,51,-613,-4,34,95,-64,63,989,21:29:44
325,51,-613,-9,48,38,-61,55,985,21:29:44
330,42,-615,-5,36,-6,-63,45,991,21:29:44
327,42,-613,-5,36,-6,-60,45,988,21:29:44
328,34,-585,-2,44,-15,-59,47,985,21:29:44
309,34,-585,7,32,-12,-52,44,1004,21:29:44
327,45,-619,11,13,-7,-24,26,1005,21:29:44
316,46,-603,11,6,-7,-20,26,1000,21:29:44
316,46,-603,15,8,-9,-20,28,998,21:29:44
322,60,-592,16,9,-9,-22,20,1004,21:29:44
324,45,-597,13,9,-10,-20,19,1005,21:29:44
336,36,-604,6,18,-11,-22,20,1006,21:29:44
319,37,-612,0,0,-10,-26,21,1009,21:29:44
312,51,-625,-2,-8,-8,-23,24,1003,21:29:44
339,39,-595,-6,-11,-7,-22,22,1000,21:29:44
339,39,-595,-6,-5,-6,-23,25,999,21:29:44
327,54,-601,-7,-7,-4,-25,27,1003,21:29:44
343,57,-613,13,19,2,116,15,799,21:29:44
307,45,-588,68,89,236,116,15,799,21:29:44
307,45,-588,21,73,230,96,-30,848,21:29:44
333,36,-613,9,38,116,-67,-1,1010,21:29:44
325,51,-613,-22,-116,-25,-101,69,982,21:29:44
325,51,-613,-22,-116,-25,53,-7,891,21:29:44
316,51,-600,4,32,-30,133,-66,867,21:29:44
321,52,-604,0,32,-14,-18,-5,1008,21:29:44
336,45,-607,8,-32,-11,-34,28,1002,21:29:44
321,58,-604,15,11,-11,-7,21,987,21:29:44
315,55,-603,9,34,-9,-23,20,999,21:29:44
336,48,-597,4,7,-7,-31,23,1002,21:29:44
336,48,-597,4,18,-2,-18,19,997,21:29:44
334,54,-604,0,21,4,-18,16,1006,21:29:44
328,60,-607,-16,5,104,0,21,1013,21:29:44
330,36,-586,-17,-20,119,-48,28,1031,21:29:44
309,46,-597,-20,-109,189,-53,27,1043,21:29:45
313,48,-618,-19,-66,75,-29,44,994,21:29:45
339,43,-597,-4,-49,6,-44,38,989,21:29:45
339,43,-597,-33,255,-18,101,6,962,21:29:45
318,39,-616,-9,624,-56,89,19,950,21:29:45
319,58,-607,6,594,-67,89,19,950,21:29:45
336,34,-588,0,365,-41,-128,28,1021,21:29:45
336,34,-588,1,63,-13,-128,28,1021,21:29:45
321,46,-607,-2,-206,4,-144,41,1019,21:29:45
321,46,-607,-2,-206,4,-115,24,1020,21:29:45
319,39,-630,-21,-303,25,-56,14,1013,21:29:45
345,60,-619,-21,-212,15,4,21,983,21:29:45
345,42,-622,0,0,-9,28,22,965,21:29:45
330,43,-616,16,154,-25,-12,26,981,21:29:45
331,55,-606,15,143,-30,-60,25,1004,21:29:45
331,55,-606,4,35,-16,-80,20,1015,21:29:45
331,45,-616,-4,-76,-4,-74,23,1015,21:29:45
343,58,-607,-11,-107,0,-41,22,1002,21:29:45
318,57,-619,-9,-46,-4,-16,24,988,21:29:45
331,43,-618,1,33,-11,-21,28,986,21:29:45
327,60,-597,4,48,-14,-43,25,997,21:29:45
321,24,-615,2,14,-11,-56,22,1006,21:29:45
321,24,-615,-2,-30,-7,-50,25,1005,21:29:45
337,40,-604,-5,-35,-7,-36,27,1001,21:29:45
337,49,-609,-2,-6,-9,-30,28,996,21:29:45
348,42,-601,2,15,-10,-30,28,996,21:29:45
321,25,-612,2,10,-10,-38,27,994,21:29:45
306,73,-606,-2,-16,-8,-48,25,1004,21:29:45
306,73,-606,-2,-16,-8,-43,24,1001,21:29:45
330,54,-607,0,-5,-9,-39,25,997,21:29:45
331,49,-627,0,3,-10,-39,25,996,21:29:45
316,63,-613,0,4,-10,-43,24,998,21:29:45
361,54,-610,0,-4,-8,-46,23,999,21:29:45
328,46,-618,0,-7,-9,-42,25,998,21:29:45
315,58,-606,0,-2,-9,-40,25,999,21:29:45
315,58,-606,0,1,-10,-39,27,999,21:29:45
321,57,-607,0,0,-10,-40,26,999,21:29:45
327,57,-601,0,-2,-9,-42,24,1000,21:29:45
331,48,-622,1,-5,-9,-42,24,1001,21:29:45
339,60,-612,0,-6,-9,-41,23,999,21:29:45
325,49,-597,1,-2,-9,-41,26,998,21:29:45
306,69,-616,0,-10,-8,-41,27,998,21:29:45
306,69,-616,0,-4,-9,-42,26,998,21:29:45
342,49,-604,0,-3,-8,-40,26,998,21:29:45
328,64,-598,0,-4,-9,-40,26,998,21:29:45
334,43,-619,1,-2,-9,-40,23,997,21:29:45
334,46,-610,0,-1,-9,-41,22,1001,21:29:45
334,48,-595,0,-1,-9,-41,25,1002,21:29:45
328,49,-588,0,-1,-9,-41,27,999,21:29:45
325,51,-610,0,-4,-9,-40,27,1000,21:29:45
325,51,-610,0,-3,-9,-42,25,1001,21:29:45
322,55,-612,0,-2,-9,-43,24,1000,21:29:45
339,43,-625,0,-2,-9,-41,24,1000,21:29:45
333,51,-621,0,-3,-9,-40,24,999,21:29:45
339,45,-609,1,-2,-9,-40,25,997,21:29:45
324,52,-589,4,2,-10,-39,26,998,21:29:45
327,48,-598,3,2,-10,-40,24,999,21:29:45
327,48,-598,2,0,-9,-41,24,998,21:29:45
312,49,-625,0,-3,-9,-41,25,998,21:29:45
342,43,-616,0,-2,-9,-41,25,999,21:29:45
333,48,-603,1,-1,-10,-41,24,999,21:29:45
337,55,-604,0,-2,-9,-38,25,998,21:29:45
334,37,-618,-1,-8,-8,-38,25,998,21:29:45
318,52,-612,0,-6,-9,-38,25,998,21:29:45
318,52,-612,2,-2,-9,-40,25,996,21:29:45
330,48,-619,2,0,-9,-42,25,997,21:29:45
337,51,-612,1,0,-9,-41,24,998,21:29:45
328,51,-631,1,-4,-9,-42,24,1000,21:29:45
355,55,-595,1,-4,-9,-42,27,1001,21:29:45
331,48,-592,0,-3,-9,-39,27,1001,21:29:45
337,55,-612,0,-2,-9,-38,27,998,21:29:45
337,55,-612,1,0,-10,-39,28,997,21:29:45
316,57,-609,1,-3,-10,-41,28,999,21:29:45
316,36,-610,0,-4,-9,-40,27,1000,21:29:45
342,45,-607,1,-1,-9,-39,25,1000,21:29:45
327,40,-624,2,0,-9,-38,24,998,21:29:45
336,55,-613,3,-2,-9,-38,25,998,21:29:45
333,51,-595,2,-1,-9,-41,26,999,21:29:45
333,51,-595,2,-2,-9,-42,27,999,21:29:45
312,51,-601,0,-2,-9,-40,27,999,21:29:45
334,40,-624,1,0,-10,-40,27,1000,21:29:45
348,64,-613,2,0,-9,-41,26,1000,21:29:45
313,43,-603,2,-1,-9,-41,26,999,21:29:45
334,73,-591,0,3,-10,-40,27,999,21:29:45
313,46,-618,0,-1,-10,-40,27,999,21:29:45
313,46,-618,1,-2,-9,-40,28,1000,21:29:45
333,51,-618,2,0,-9,-40,27,1000,21:29:45
331,60,-610,1,-1,-9,-40,26,1000,21:29:45
336,72,-622,1,-1,-9,-39,26,1000,21:29:45
337,43,-601,0,-2,-9,-39,26,1001,21:29:45
312,57,-607,0,-1,-9,-39,24,1001,21:29:45
322,61,-613,0,-2,-8,-42,24,1000,21:29:45
322,61,-613,0,-1,-10,-42,25,1000,21:29:45
342,61,-619,1,0,-10,-40,26,999,21:29:45
325,46,-604,0,-1,-9,-40,26,997,21:29:45
330,64,-607,1,-1,-10,-40,26,997,21:29:45
330,33,-610,0,-1,-10,-41,25,999,21:29:45
324,57,-610,0,-1,-9,-41,25,998,21:29:45
324,57,-610,0,-3,-9,-41,24,997,21:29:45
327,42,-618,2,0,-9,-42,25,998,21:29:45
319,58,-600,2,0,-10,-42,28,998,21:29:45
331,39,-612,1,0,-9,-40,25,998,21:29:45
337,39,-607,2,-1,-9,-41,24,999,21:29:45
330,49,-618,0,-2,-9,-41,24,999,21:29:45
321,42,-594,0,-14,-7,-42,26,1000,21:29:45
321,42,-594,0,-7,-9,-41,24,1000,21:29:46
324,33,-622,1,-3,-9,-41,25,999,21:29:46
325,40,-589,1,0,-10,-40,26,998,21:29:46
342,49,-610,1,0,-10,-41,26,998,21:29:46
333,48,-610,1,0,-9,-40,24,999,21:29:46
325,54,-612,1,-2,-9,-36,24,1000,21:29:46
322,39,-586,1,-2,-10,-38,27,1001,21:29:46
322,39,-586,1,0,-10,-40,28,1000,21:29:46
322,61,-615,1,1,-9,-42,27,1000,21:29:46
322,37,-613,1,0,-9,-43,25,998,21:29:46
340,45,-606,2,0,-9,-41,27,997,21:29:46
325,55,-592,2,0,-9,-43,28,999,21:29:46
327,54,-612,1,-1,-9,-43,26,999,21:29:46
327,54,-612,-2,-9,-8,-42,27,999,21:29:46
313,46,-612,0,-2,-9,-42,28,1000,21:29:46
313,46,-612,2,-2,-9,-40,27,999,21:29:46
337,51,-622,1,-3,-9,-41,27,999,21:29:46
321,48,-612,1,-2,-9,-40,25,1000,21:29:46
325,39,-613,1,0,-10,-40,25,1000,21:29:46
327,67,-616,2,0,-9,-38,25,999,21:29:46
327,51,-613,0,1,-10,-38,26,999,21:29:46
319,54,-612,2,0,-10,-40,25,1000,21:29:46
319,54,-612,2,0,-10,-42,26,1001,21:29:46
324,64,-612,0,-2,-9,-40,27,1000,21:29:46
331,63,-630,1,-1,-9,-38,26,998,21:29:46
330,43,-597,1,-2,-9,-38,25,998,21:29:46
345,55,-618,1,-2,-9,-41,25,1000,21:29:46
318,54,-609,0,-2,-9,-41,26,1000,21:29:46
337,49,-624,1,0,-9,-39,27,999,21:29:46
337,49,-624,0,-1,-9,-40,26,999,21:29:46
339,34,-609,1,0,-9,-40,27,1000,21:29:46
325,55,-613,2,0,-9,-41,26,1001,21:29:46
345,45,-610,2,-2,-9,-41,25,1000,21:29:46
336,63,-616,1,0,-10,-40,26,998,21:29:46
307,49,-597,2,2,-10,-41,26,998,21:29:46
328,33,-624,1,0,-9,-42,26,999,21:29:46
328,33,-624,1,-1,-9,-41,25,999,21:29:46
321,40,-639,1,-1,-11,-39,26,999,21:29:46
363,70,-624,1,0,-10,-39,26,999,21:29:46
331,54,-613,0,-1,-11,-40,27,1001,21:29:46
322,57,-618,1,-2,-10,-41,27,1000,21:29:46
343,36,-618,2,-2,-9,-39,25,998,21:29:46
328,34,-612,2,-2,-9,-40,25,999,21:29:46
328,34,-612,0,-4,-9,-40,26,998,21:29:46
324,58,-610,0,-2,-9,-41,25,998,21:29:46
333,58,-613,0,-3,-9,-43,26,1000,21:29:46
333,43,-606,2,-2,-9,-40,28,999,21:29:46
328,60,-604,1,-1,-9,-38,28,998,21:29:46
328,51,-589,2,1,-10,-39,25,997,21:29:46
355,60,-604,1,0,-9,-40,25,999,21:29:46
355,60,-604,1,0,-9,-40,24,1000,21:29:46
336,46,-633,1,0,-9,-40,25,998,21:29:46
319,36,-600,0,-1,-9,-40,26,998,21:29:46
321,45,-619,1,0,-9,-40,26,999,21:29:46
339,34,-616,1,0,-9,-41,26,998,21:29:46
330,61,-583,1,12,-11,-39,27,998,21:29:46
337,57,-621,2,4,-10,-40,26,998,21:29:46
337,57,-621,1,-1,-9,-39,24,998,21:29:46
324,40,-624,1,-2,-9,-39,24,998,21:29:46
342,48,-616,0,-2,-9,-41,26,998,21:29:46
312,60,-616,0,-1,-9,-42,26,999,21:29:46
327,57,-619,1,-1,-9,-40,26,1000,21:29:46
339,52,-610,1,-1,-9,-41,28,1000,21:29:46
339,52,-610,2,0,-9,-41,26,999,21:29:46
330,40,-612,0,0,-9,-41,25,999,21:29:46
312,42,-618,0,-1,-9,-38,25,999,21:29:46
351,54,-622,1,-1,-10,-37,24,998,21:29:46
351,36,-606,0,-1,-9,-39,24,1001,21:29:46
330,45,-625,2,0,-10,-40,24,1002,21:29:46
324,34,-610,2,-3,-9,-41,24,1000,21:29:46
324,34,-610,2,1,-9,-41,24,999,21:29:46
337,61,-612,1,-1,-9,-40,26,999,21:29:46
357,54,-616,0,-2,-10,-37,27,999,21:29:46
316,51,-609,1,-1,-9,-40,27,1000,21:29:46
325,61,-618,2,0,-9,-42,27,999,21:29:46
324,52,-592,0,0,-9,-39,25,998,21:29:46
319,33,-606,-4,-18,-7,-39,25,998,21:29:46
319,33,-606,0,-9,-9,-39,25,998,21:29:46
324,52,-621,0,-2,-10,-41,25,997,21:29:46
346,34,-630,0,0,-9,-39,25,997,21:29:46
342,52,-630,1,-2,-9,-38,27,1000,21:29:46
324,51,-601,1,-1,-9,-40,27,1000,21:29:46
321,55,-621,1,-1,-9,-40,25,998,21:29:46
325,42,-597,0,-1,-9,-40,24,998,21:29:46
336,55,-616,1,0,-9,-40,26,997,21:29:46
336,55,-616,1,-2,-9,-39,26,998,21:29:46
331,57,-607,1,-2,-8,-38,25,1001,21:29:46
336,69,-624,2,-1,-9,-36,23,999,21:29:46
318,55,-615,1,-1,-10,-38,26,998,21:29:46
333,61,-604,0,-2,-9,-41,27,999,21:29:46
331,45,-592,2,-2,-9,-40,26,999,21:29:46
328,54,-612,2,-2,-9,-40,25,1000,21:29:46
328,54,-612,0,0,-10,-43,24,999,21:29:46
330,48,-621,2,0,-9,-42,26,998,21:29:46
327,60,-603,2,-1,-10,-39,27,997,21:29:46
331,45,-600,2,-2,-10,-39,26,997,21:29:46
325,57,-616,2,0,-9,-39,26,997,21:29:46
330,52,-619,1,-2,-9,-40,25,998,21:29:46
328,51,-594,0,-4,-9,-40,25,998,21:29:46
328,51,-594,1,-2,-8,-40,26,1000,21:29:46
346,43,-603,1,0,-10,-40,26,999,21:29:46
345,52,-609,1,-1,-9,-40,26,1000,21:29:46
346,36,-607,1,-1,-9,-40,26,1000,21:29:46
336,40,-615,1,0,-9,-41,26,1001,21:29:46
322,61,-598,2,0,-9,-40,24,999,21:29:46
331,63,-613,2,-1,-9,-40,24,999,21:29:46
331,63,-613,0,0,-9,-39,25,1000,21:29:46
337,43,-615,1,-1,-10,-40,25,1000,21:29:47
342,60,-621,2,-2,-9,-40,25,1000,21:29:47
343,40,-616,1,-2,-9,-39,25,1000,21:29:47
337,42,-603,1,-2,-9,-40,26,998,21:29:47
328,39,-610,0,-1,-9,-40,28,997,21:29:47
322,52,-609,0,-3,-10,-40,28,997,21:29:47
322,52,-609,0,-1,-9,-40,25,998,21:29:47
303,48,-583,1,0,-9,-39,25,998,21:29:47
325,54,-613,0,0,-9,-40,25,998,21:29:47
331,43,-600,0,-1,-9,-40,26,998,21:29:47
327,48,-609,0,0,-9,-40,26,998,21:29:47
327,54,-601,2,0,-11,-39,24,1000,21:29:47
316,54,-624,2,0,-10,-38,23,999,21:29:47
316,54,-624,2,0,-10,-39,25,998,21:29:47
331,49,-606,2,0,-9,-43,25,999,21:29:47
321,49,-606,2,0,-9,-43,27,999,21:29:47
340,40,-607,1,0,-10,-41,27,998,21:29:47
330,61,-603,0,0,-9,-42,26,998,21:29:47
340,57,-601,1,2,-10,-43,25,998,21:29:47
336,61,-615,1,-2,-10,-40,26,1001,21:29:47
336,61,-615,2,-2,-9,-37,27,1000,21:29:47
345,49,-622,0,0,-9,-37,26,1000,21:29:47
304,33,-619,1,0,-9,-40,24,998,21:29:47
337,36,-616,1,0,-9,-42,25,999,21:29:47
339,40,-598,0,0,-10,-43,26,1001,21:29:47
340,48,-625,4,5,-11,-40,27,998,21:29:47
340,48,-625,2,0,-9,-38,26,998,21:29:47
328,60,-603,2,-1,-10,-41,26,998,21:29:47
351,37,-597,1,0,-9,-40,26,998,21:29:47
322,61,-613,0,0,-10,-38,27,997,21:29:47
348,52,-621,0,-2,-9,-38,27,997,21:29:47
330,48,-618,1,0,-9,-40,27,996,21:29:47
315,67,-591,0,-15,-7,-40,27,999,21:29:47
328,43,-604,0,-6,-8,-41,29,998,21:29:47
331,52,-618,1,-2,-9,-40,27,999,21:29:47
337,43,-598,1,-2,-9,-37,26,999,21:29:47
336,48,-619,0,0,-9,-37,24,999,21:29:47
342,37,-601,1,0,-9,-39,24,998,21:29:47
334,48,-597,1,-1,-9,-41,26,1000,21:29:47
330,66,-613,1,-2,-9,-41,27,997,21:29:47
319,46,-615,1,-1,-9,-41,30,997,21:29:47
319,46,-615,1,-1,-9,-43,28,998,21:29:47
327,45,-604,1,0,-9,-42,25,998,21:29:47
324,48,-609,2,-2,-9,-40,26,997,21:29:47
325,40,-618,0,-3,-9,-40,27,999,21:29:47
336,43,-618,0,-2,-9,-40,26,998,21:29:47
325,42,-606,0,-4,-9,-42,24,998,21:29:47
321,52,-604,1,-2,-9,-42,25,1000,21:29:47
321,52,-604,0,0,-9,-40,27,998,21:29:47
330,67,-600,0,-2,-9,-39,25,997,21:29:47
330,63,-630,1,-2,-9,-39,25,999,21:29:47
339,33,-606,1,0,-10,-39,27,999,21:29:47
322,51,-622,2,1,-11,-41,27,999,21:29:47
315,37,-598,0,2,-9,-41,24,1000,21:29:47
328,45,-607,1,-1,-9,-41,24,1001,21:29:47
328,45,-607,2,-1,-10,-41,25,1002,21:29:47
340,43,-606,1,0,-10,-41,25,1002,21:29:47
334,48,-606,2,0,-9,-40,24,1002,21:29:47
330,51,-618,1,-2,-9,-41,24,999,21:29:47
333,49,-634,1,-2,-8,-42,27,998,21:29:47
328,49,-601,2,0,-9,-40,28,999,21:29:47
337,48,-609,2,0,-9,-40,27,999,21:29:47
337,48,-609,0,-2,-9,-41,27,1000,21:29:47
330,46,-612,2,0,-9,-40,27,1000,21:29:47
313,55,-630,2,-2,-9,-42,28,999,21:29:47
324,48,-613,0,-3,-9,-42,27,998,21:29:47
345,28,-615,0,-2,-9,-40,26,999,21:29:47
315,63,-597,0,-3,-8,-40,26,999,21:29:47
343,58,-613,0,-4,-9,-40,27,998,21:29:47
343,58,-613,1,-3,-9,-41,27,999,21:29:47
330,64,-619,0,-2,-9,-40,27,999,21:29:47
349,49,-627,0,0,-9,-38,26,1000,21:29:47
340,42,-606,0,0,-10,-41,26,997,21:29:47
324,43,-615,1,-1,-9,-40,25,999,21:29:47
315,42,-603,1,-7,-9,-40,26,1001,21:29:47
339,46,-627,1,-3,-9,-40,26,1000,21:29:47
339,46,-627,0,0,-9,-40,26,1000,21:29:47
337,57,-609,1,0,-9,-38,29,1001,21:29:47
315,63,-613,1,-2,-10,-41,29,1001,21:29:47
316,46,-619,0,-3,-9,-41,26,999,21:29:47
330,30,-610,0,-3,-9,-39,26,999,21:29:47
343,45,-604,0,-3,-9,-39,25,999,21:29:47
343,45,-604,1,-1,-9,-40,25,1001,21:29:47
334,43,-607,1,0,-9,-40,25,1000,21:29:47
349,72,-618,0,0,-9,-40,24,997,21:29:47
324,30,-616,0,-1,-8,-41,25,999,21:29:47
331,49,-615,1,0,-9,-40,28,1001,21:29:47
334,57,-618,1,-1,-9,-41,27,999,21:29:47
327,55,-600,0,-2,-9,-42,25,999,21:29:47
327,55,-600,0,0,-9,-42,27,999,21:29:47
334,63,-594,0,0,-9,-43,27,998,21:29:47
310,60,-613,0,-2,-9,-42,27,998,21:29:47
328,46,-606,0,-3,-9,-39,28,996,21:29:47
324,49,-613,0,-1,-9,-40,27,998,21:29:47
328,55,-607,1,0,-9,-41,25,1000,21:29:48
313,54,-621,0,-10,-8,-41,25,1000,21:29:48
313,54,-621,0,-2,-9,-39,24,997,21:29:48
339,58,-624,2,0,-9,-39,25,998,21:29:48
306,36,-610,1,0,-10,-40,25,1000,21:29:48
342,57,-601,1,-3,-9,-42,24,1000,21:29:48
322,49,-621,1,-2,-9,-41,25,1000,21:29:48
331,49,-612,1,-2,-9,-41,24,999,21:29:48
316,66,-595,1,-2,-9,-40,24,1000,21:29:48
343,54,-618,1,0,-9,-40,25,999,21:29:48
343,54,-618,0,-2,-9,-42,26,999,21:29:48
337,45,-606,2,0,-10,-40,27,1000,21:29:48
327,49,-612,0,-2,-9,-38,28,999,21:29:48
352,55,-633,0,-2,-9,-41,26,999,21:29:48
327,40,-607,1,0,-9,-41,26,1000,21:29:48
325,61,-613,-2,-2,-8,-40,26,997,21:29:48
337,57,-597,0,-3,-9,-39,25,997,21:29:48
337,57,-597,1,-2,-9,-40,28,999,21:29:48
330,63,-622,1,-1,-9,-41,27,998,21:29:48
328,67,-609,2,0,-9,-42,24,998,21:29:48
327,60,-616,2,-2,-9,-41,27,998,21:29:48
336,60,-621,0,-1,-9,-40,26,998,21:29:48
342,46,-615,0,-7,-9,-40,26,998,21:29:48
339,46,-606,0,0,-11,-39,25,997,21:29:48
339,46,-606,1,-2,-10,-41,27,999,21:29:48
318,51,-601,0,-3,-10,-42,28,1000,21:29:48
336,36,-616,0,-3,-10,-42,27,1001,21:29:48
333,45,-607,0,-2,-11,-39,26,1000,21:29:48
327,58,-618,1,0,-10,-37,26,1000,21:29:48
322,55,-594,2,0,-9,-41,23,1000,21:29:48
318,54,-633,0,-2,-9,-41,25,1001,21:29:48
318,54,-633,1,0,-9,-41,28,999,21:29:48
319,55,-609,0,0,-9,-41,28,998,21:29:48
340,58,-616,0,-1,-9,-40,27,998,21:29:48
325,48,-597,0,-2,-9,-39,25,998,21:29:48
333,52,-609,1,-2,-9,-39,24,998,21:29:48
327,36,-601,2,0,-9,-40,25,997,21:29:48
322,36,-589,2,0,-9,-39,25,998,21:29:48
322,36,-589,0,-1,-9,-40,26,999,21:29:48
325,64,-618,0,-2,-9,-41,26,997,21:29:48
331,39,-610,1,0,-9,-40,25,997,21:29:48
340,55,-613,2,0,-9,-39,25,997,21:29:48
328,37,-612,1,0,-10,-39,25,997,21:29:48
331,43,-586,0,-5,-8,-39,26,998,21:29:48
328,63,-588,0,-5,-8,-41,26,999,21:29:48
328,63,-588,0,-5,-8,-41,26,1000,21:29:48
334,51,-610,1,-2,-9,-43,26,998,21:29:48
351,51,-613,1,0,-10,-41,26,998,21:29:48
331,43,-622,0,-2,-9,-39,26,1000,21:29:48
345,34,-609,1,-2,-9,-39,25,999,21:29:48
328,69,-598,2,0,-9,-39,24,999,21:29:48
318,51,-589,1,-3,-9,-40,27,998,21:29:48
318,51,-589,1,-1,-9,-41,28,999,21:29:48
322,45,-609,1,0,-9,-40,27,1001,21:29:48
330,43,-607,0,0,-9,-39,26,1000,21:29:48
325,57,-618,0,-1,-9,-39,26,999,21:29:48
337,37,-607,2,0,-10,-41,27,998,21:29:48
318,54,-609,3,10,-11,-40,26,999,21:29:48
318,54,-609,2,3,-10,-39,25,999,21:29:48
330,37,-615,0,-2,-9,-39,25,998,21:29:48
327,63,-621,0,-2,-9,-39,28,998,21:29:48
349,57,-603,1,-1,-9,-40,28,998,21:29:48
331,60,-619,2,0,-9,-40,28,998,21:29:48
316,58,-613,2,0,-9,-39,27,999,21:29:48
316,58,-613,0,0,-9,-41,26,999,21:29:48
330,52,-615,0,0,-9,-41,26,999,21:29:48
340,49,-598,0,-1,-9,-41,27,1000,21:29:48
336,55,-615,0,-2,-9,-41,25,999,21:29:48
331,66,-613,1,-2,-9,-42,23,999,21:29:48
343,43,-618,1,0,-9,-41,24,1001,21:29:48
325,51,-622,2,0,-10,-41,25,999,21:29:48
327,55,-612,0,-4,-8,-39,27,1000,21:29:48
327,55,-612,1,-2,-9,-39,27,1000,21:29:48
324,36,-615,2,0,-10,-38,27,999,21:29:48
328,55,-607,1,0,-10,-40,28,1000,21:29:48
319,39,-628,1,-1,-10,-41,26,998,21:29:48
343,36,-610,0,0,-9,-39,25,999,21:29:48
334,57,-609,1,0,-9,-38,26,999,21:29:48
321,46,-586,2,4,-11,-39,27,1000,21:29:48
330,66,-604,1,-2,-9,-39,28,1000,21:29:48
330,66,-604,0,-3,-9,-40,27,999,21:29:48
333,54,-619,1,0,-9,-40,27,999,21:29:48
334,61,-609,2,0,-9,-40,26,1002,21:29:48
318,58,-613,1,-2,-9,-40,25,1001,21:29:48
331,46,-600,1,-2,-9,-40,25,998,21:29:48
315,46,-609,1,-2,-9,-38,25,998,21:29:48
330,34,-618,3,2,-10,-40,26,999,21:29:48
330,34,-618,3,2,-10,-43,27,999,21:29:48
321,55,-600,2,0,-10,-41,24,998,21:29:48
339,28,-618,0,0,-9,-41,25,999,21:29:48
328,52,-603,0,-2,-9,-40,26,998,21:29:48
340,42,-598,0,-2,-10,-40,28,998,21:29:48
331,43,-598,3,-4,-9,-41,28,998,21:29:48
322,40,-616,1,-2,-10,-39,24,998,21:29:48
322,40,-616,2,-1,-9,-40,24,1000,21:29:48
333,37,-594,2,0,-9,-41,25,998,21:29:48
313,40,-606,2,-1,-9,-40,24,998,21:29:48
337,42,-610,1,-2,-9,-40,25,1001,21:29:48
328,57,-616,2,-2,-9,-40,25,1000,21:29:48
322,52,-610,3,4,-11,-39,26,999,21:29:48
331,37,-597,2,1,-10,-38,27,997,21:29:48
331,37,-597,0,0,-9,-38,27,997,21:29:48
342,48,-610,0,0,-9,-40,25,999,21:29:48
333,45,-621,0,-2,-9,-42,23,999,21:29:48
333,43,-607,0,-2,-11,-42,25,999,21:29:48
321,52,-613,1,0,-9,-39,25,999,21:29:48
340,39,-621,1,0,-9,-40,26,1000,21:29:48
301,61,-597,2,-2,-9,-41,27,1000,21:29:49
301,61,-597,2,0,-9,-40,27,999,21:29:49
321,66,-612,2,-1,-9,-41,27,999,21:29:49
333,67,-633,0,0,-9,-43,25,999,21:29:49
327,57,-615,1,0,-9,-41,25,998,21:29:49
334,43,-597,0,-1,-9,-40,28,998,21:29:49
319,46,-603,0,-5,-10,-37,26,998,21:29:49
331,48,-621,0,-2,-9,-37,23,997,21:29:49
331,48,-621,0,-1,-9,-42,24,998,21:29:49
333,24,-613,1,0,-10,-42,26,1000,21:29:49
330,24,-625,1,0,-10,-39,25,1000,21:29:49
336,57,-604,1,-2,-9,-38,23,999,21:29:49
