magX[mG],magY[mG],magZ[mG],gyroX[mdps],gyroY[mdps],gyroZ[mdps],accX[mg],accY[mg],accZ[mg],hh:mm:ss.ms
0,6,-558,3,-1,-6,-13,15,999,0:42:46
330,6,-558,3,-1,-6,-13,15,999,0:42:46
768,238,-537,2,-2,-5,-10,14,999,0:48:49
768,238,-537,2,-2,-5,-10,14,999,0:48:49
768,238,-537,2,-2,-5,-10,14,999,0:48:49
768,238,-537,2,-2,-5,-10,14,999,0:48:49
768,238,-537,2,-2,-6,-10,16,998,0:48:49
771,235,-541,2,-1,-6,-10,13,997,0:48:49
787,235,-553,2,-1,-6,-10,12,998,0:48:49
781,258,-540,3,-2,-6,-12,11,999,0:48:49
774,243,-549,3,-2,-6,-10,10,1001,0:48:49
781,240,-552,2,-2,-6,-7,12,1000,0:48:49
796,259,-537,2,-2,-6,-10,14,999,0:48:49
766,235,-549,2,-3,-5,-12,13,998,0:48:49
781,261,-544,2,-4,-6,-11,15,997,0:48:49
768,252,-544,2,-2,-7,-9,17,996,0:48:49
790,249,-538,3,-2,-6,-9,16,996,0:48:49
766,234,-553,3,0,-6,-9,15,997,0:48:49
768,237,-534,3,0,-6,-12,16,999,0:48:49
789,243,-580,3,-2,-5,-11,16,1000,0:48:49
789,243,-580,3,0,-6,-9,15,999,0:48:49
762,240,-532,2,0,-7,-11,13,999,0:48:49
762,240,-532,2,-1,-5,-11,11,998,0:48:49
777,259,-546,2,0,-6,-10,11,994,0:48:49
780,249,-549,3,0,-5,-10,14,997,0:48:49
772,241,-555,2,-3,-5,-11,15,998,0:48:49
772,241,-555,2,-1,-7,-11,14,997,0:48:49
774,235,-541,2,-1,-6,-10,15,1000,0:48:49
786,265,-553,1,-8,-4,-8,14,999,0:48:49
762,246,-544,1,-4,-4,-7,13,1000,0:48:49
783,238,-546,3,0,-6,-9,13,1001,0:48:49
772,226,-547,3,0,-6,-11,13,999,0:48:49
784,235,-547,3,-1,-6,-11,14,996,0:48:49
784,235,-547,2,-2,-5,-11,14,996,0:48:49
781,234,-559,2,-2,-7,-11,15,998,0:48:49
745,249,-538,3,1,-7,-8,13,1000,0:48:49
789,246,-550,2,-2,-5,-9,12,998,0:48:49
769,232,-549,2,-3,-5,-10,14,997,0:48:49
784,246,-538,2,-3,-5,-10,15,998,0:48:49
786,237,-556,3,0,-6,-9,14,1000,0:48:49
786,237,-556,4,0,-7,-8,12,999,0:48:49
786,250,-561,3,-1,-7,-10,11,998,0:48:49
760,252,-550,2,0,-6,-11,13,999,0:48:49
760,252,-550,2,0,-6,-11,14,1000,0:48:49
777,249,-558,2,-2,-6,-10,14,998,0:48:49
775,252,-534,2,-2,-5,-8,14,999,0:48:49
781,244,-561,2,-2,-6,-9,15,998,0:48:49
781,244,-561,2,-2,-4,-11,14,997,0:48:49
795,249,-538,3,-2,-5,-11,11,999,0:48:49
765,252,-535,2,-4,-6,-10,12,1001,0:48:49
783,235,-556,2,-2,-6,-11,13,1000,0:48:49
786,234,-546,2,0,-5,-11,13,998,0:48:49
783,223,-541,3,-1,-6,-11,13,998,0:48:49
783,223,-541,2,-2,-5,-11,13,999,0:48:49
795,253,-555,3,-1,-5,-9,12,1001,0:48:49
780,222,-549,3,0,-6,-7,12,1001,0:48:49
760,229,-529,4,-2,-6,-8,15,1001,0:48:49
760,229,-529,4,-2,-6,-10,15,999,0:48:49
792,249,-567,3,-1,-7,-11,15,998,0:48:49
757,258,-558,3,-1,-7,-11,14,999,0:48:49
757,258,-558,2,-1,-5,-10,12,1001,0:48:49
765,244,-540,2,-2,-5,-10,12,1000,0:48:49
783,250,-549,2,-2,-6,-12,13,1001,0:48:49
775,238,-526,0,-17,-3,-11,14,1000,0:48:49
790,244,-543,2,-7,-5,-11,15,999,0:48:49
774,250,-529,1,-2,-7,-11,14,999,0:48:49
762,237,-558,2,-2,-7,-10,14,999,0:48:49
762,237,-558,2,-3,-6,-9,15,999,0:48:50
784,232,-559,2,-3,-6,-9,14,1000,0:48:50
778,237,-538,2,-1,-5,-10,12,1000,0:48:50
778,244,-535,2,10,-7,-10,13,1000,0:48:50
778,244,-535,1,2,-6,-10,15,999,0:48:50
769,243,-561,2,-2,-6,-10,15,999,0:48:50
772,231,-552,3,-2,-6,-10,14,998,0:48:50
772,231,-552,2,-2,-5,-12,13,998,0:48:50
793,247,-537,3,0,-6,-10,14,998,0:48:50
772,240,-541,3,-2,-7,-7,15,998,0:48:50
769,249,-544,3,-2,-7,-8,14,998,0:48:50
771,249,-543,4,-2,-7,-10,12,998,0:48:50
766,247,-544,2,-2,-6,-10,13,999,0:48:50
777,240,-544,2,-2,-6,-10,16,999,0:48:50
777,240,-544,2,-2,-6,-9,15,998,0:48:50
777,241,-549,3,0,-6,-10,14,998,0:48:50
756,223,-550,2,0,-6,-10,13,998,0:48:50
763,252,-544,3,-6,-5,-9,14,998,0:48:50
775,249,-535,3,-4,-5,-9,15,999,0:48:50
772,250,-544,3,0,-5,-8,12,1000,0:48:50
777,237,-546,3,0,-6,-10,12,998,0:48:50
777,237,-546,2,0,-6,-12,13,998,0:48:50
774,255,-567,2,-2,-6,-10,12,998,0:48:50
783,246,-534,2,-2,-6,-9,14,998,0:48:50
763,252,-556,2,2,-6,-11,13,998,0:48:50
772,261,-522,3,1,-7,-11,13,998,0:48:50
774,241,-556,3,0,-7,-10,11,998,0:48:50
792,229,-528,2,0,-7,-10,11,999,0:48:50
792,229,-528,3,-3,-6,-12,14,999,0:48:50
783,253,-549,3,-4,-6,-11,15,1000,0:48:50
778,244,-543,3,-4,-6,-9,16,1001,0:48:50
763,246,-514,2,-1,-6,-10,15,999,0:48:50
775,258,-549,2,-1,-6,-12,12,998,0:48:50
787,246,-553,2,-1,-6,-12,13,998,0:48:50
765,265,-543,2,-2,-6,-11,14,999,0:48:50
765,265,-543,2,-3,-7,-11,15,998,0:48:50
798,252,-552,2,-2,-7,-11,14,999,0:48:50
774,241,-532,2,0,-5,-11,13,1001,0:48:50
775,240,-541,4,2,-6,-11,11,1000,0:48:50
786,246,-537,3,0,-7,-9,11,999,0:48:50
790,240,-555,2,-1,-7,-10,12,1001,0:48:50
777,231,-556,2,-1,-7,-11,12,1000,0:48:50
777,231,-556,3,-2,-7,-10,14,1000,0:48:50
772,232,-540,2,-3,-6,-11,16,999,0:48:50
769,232,-550,2,-2,-6,-12,15,998,0:48:50
775,235,-549,3,2,-6,-12,15,998,0:48:50
777,256,-565,2,0,-7,-11,11,999,0:48:50
762,258,-547,2,0,-6,-11,11,1001,0:48:50
784,256,-553,2,0,-6,-12,13,1001,0:48:50
784,256,-553,2,-1,-5,-11,14,1001,0:48:50
772,226,-559,2,-2,-6,-9,15,1001,0:48:50
796,250,-559,2,-1,-6,-8,13,999,0:48:50
786,229,-555,2,-2,-5,-9,13,997,0:48:50
775,264,-540,3,-2,-6,-11,15,999,0:48:50
771,246,-535,3,-1,-5,-11,15,1000,0:48:50
780,238,-534,2,0,-6,-10,13,1000,0:48:50
780,238,-534,2,-2,-6,-8,14,1002,0:48:50
784,246,-537,2,-1,-7,-10,15,1002,0:48:50
772,249,-556,2,-2,-6,-10,15,1000,0:48:50
784,252,-555,4,2,-6,-9,15,1000,0:48:50
774,237,-546,4,0,-5,-9,14,1000,0:48:50
784,238,-537,4,-2,-5,-9,11,1000,0:48:50
793,235,-549,2,-2,-6,-9,10,999,0:48:50
793,235,-549,2,-1,-7,-9,11,1000,0:48:50
799,234,-561,3,0,-5,-8,11,999,0:48:50
769,240,-562,3,0,-5,-8,11,999,0:48:50
769,237,-543,0,-8,-4,-9,12,997,0:48:50
769,237,-543,2,-4,-5,-11,12,999,0:48:50
763,255,-552,2,0,-6,-12,14,1000,0:48:50
775,255,-541,2,0,-6,-11,16,1000,0:48:50
775,255,-541,2,-2,-6,-11,15,999,0:48:50
774,238,-541,2,-4,-6,-11,13,999,0:48:50
783,246,-544,2,-1,-7,-11,13,1000,0:48:50
771,231,-547,1,-4,-6,-9,13,1000,0:48:50
763,249,-538,2,-2,-5,-10,13,999,0:48:50
774,249,-558,3,-1,-6,-12,16,998,0:48:50
765,247,-550,3,-2,-7,-11,14,999,0:48:50
765,247,-550,2,-2,-7,-8,15,1000,0:48:50
774,237,-547,2,-2,-5,-8,16,998,0:48:50
777,244,-535,2,-1,-6,-10,13,1001,0:48:50
784,259,-546,2,-2,-7,-10,14,1002,0:48:50
784,259,-546,2,-2,-6,-10,15,999,0:48:50
786,240,-526,2,0,-5,-10,14,999,0:48:50
784,232,-541,2,-1,-6,-9,14,999,0:48:50
784,232,-541,2,-2,-6,-9,14,999,0:48:50
781,255,-553,2,-1,-5,-11,13,1000,0:48:50
772,256,-555,2,-1,-5,-10,14,999,0:48:50
795,231,-553,3,-7,-4,-9,14,999,0:48:50
787,247,-543,2,-2,-5,-12,14,1000,0:48:50
772,237,-552,2,-2,-5,-12,16,1000,0:48:50
777,238,-537,2,-1,-4,-11,14,999,0:48:50
777,238,-537,3,-1,-5,-12,13,999,0:48:50
784,240,-562,2,0,-7,-10,13,999,0:48:50
781,243,-552,3,-1,-6,-11,14,1000,0:48:50
760,249,-531,0,0,-5,-12,14,1000,0:48:50
780,246,-550,0,0,-6,-9,12,999,0:48:50
777,234,-541,2,-2,-7,-9,14,999,0:48:50
777,249,-553,2,-1,-7,-10,14,1000,0:48:50
777,249,-553,3,-2,-5,-11,12,1000,0:48:50
771,237,-565,2,-2,-7,-9,14,999,0:48:50
778,246,-547,2,-1,-6,-9,14,999,0:48:50
789,241,-525,4,-3,-6,-11,12,999,0:48:50
790,238,-526,3,-1,-7,-12,11,999,0:48:50
775,267,-556,2,-2,-6,-12,11,999,0:48:50
774,253,-547,2,-2,-6,-12,11,1001,0:48:50
774,253,-547,2,-2,-5,-11,14,1002,0:48:50
774,249,-541,2,-2,-6,-11,14,1001,0:48:50
780,252,-534,3,-2,-7,-10,13,1000,0:48:51
760,237,-555,2,-2,-6,-9,14,1000,0:48:51
763,235,-540,2,-2,-6,-9,13,1000,0:48:51
768,234,-541,3,-2,-5,-11,11,998,0:48:51
769,235,-541,2,-2,-6,-11,12,998,0:48:51
769,235,-541,2,0,-7,-10,12,999,0:48:51
777,252,-556,2,-2,-7,-11,11,1000,0:48:51
793,232,-540,2,-1,-6,-11,12,998,0:48:51
784,235,-543,3,-4,-5,-11,12,997,0:48:51
763,241,-528,3,-3,-5,-10,12,1001,0:48:51
786,252,-531,2,-2,-6,-10,13,1000,0:48:51
778,252,-538,2,-2,-7,-11,15,998,0:48:51
778,252,-538,2,-1,-5,-13,15,999,0:48:51
781,232,-550,2,0,-5,-12,15,999,0:48:51
754,235,-540,3,-1,-6,-10,16,1000,0:48:51
757,252,-531,1,-7,-5,-11,15,999,0:48:51
781,243,-534,2,-4,-6,-12,12,1000,0:48:51
786,228,-550,2,-2,-6,-12,12,1000,0:48:51
790,238,-552,2,0,-7,-10,13,1001,0:48:51
790,238,-552,3,-2,-5,-8,15,1000,0:48:51
778,234,-535,3,-4,-5,-9,14,998,0:48:51
771,255,-541,3,-4,-5,-8,13,999,0:48:51
784,243,-550,2,-2,-6,-9,12,1000,0:48:51
769,249,-538,2,-2,-7,-11,11,999,0:48:51
772,232,-547,2,-2,-5,-11,12,998,0:48:51
774,246,-534,3,0,-6,-9,12,998,0:48:51
774,246,-534,3,-1,-7,-9,12,999,0:48:51
783,253,-537,3,-1,-6,-12,11,1001,0:48:51
783,253,-558,2,-2,-4,-12,11,1000,0:48:51
768,231,-537,2,4,-7,-9,13,1001,0:48:51
781,241,-537,3,0,-6,-9,12,1001,0:48:51
778,249,-549,3,-2,-6,-10,11,1001,0:48:51
781,244,-540,4,0,-6,-12,12,998,0:48:51
781,244,-540,2,-1,-5,-12,13,996,0:48:51
772,243,-553,3,-1,-6,-10,14,998,0:48:51
783,243,-540,3,-1,-5,-10,13,1000,0:48:51
760,255,-562,2,-8,-4,-10,13,1000,0:48:51
760,255,-562,2,-4,-5,-9,13,999,0:48:51
780,247,-546,2,0,-6,-9,13,998,0:48:51
783,243,-553,3,-2,-6,-11,14,1000,0:48:51
783,243,-553,3,-2,-6,-10,14,1001,0:48:51
778,234,-550,3,-2,-6,-11,14,999,0:48:51
780,267,-549,2,-2,-6,-12,15,999,0:48:51
769,261,-546,2,0,-5,-10,13,999,0:48:51
778,238,-558,1,-1,-5,-8,13,998,0:48:51
781,267,-549,2,-3,-6,-8,13,997,0:48:51
777,241,-544,2,-2,-7,-11,10,998,0:48:51
777,241,-544,2,-2,-7,-11,11,998,0:48:51
787,234,-555,3,-1,-6,-8,11,1000,0:48:51
766,264,-550,4,0,-6,-9,11,1002,0:48:51
772,238,-537,2,0,-6,-12,13,1000,0:48:51
777,232,-553,3,0,-7,-13,14,1000,0:48:51
777,249,-535,3,-2,-6,-12,12,999,0:48:51
777,249,-535,2,-2,-6,-9,12,1001,0:48:51
780,246,-541,2,-2,-6,-9,12,1001,0:48:51
760,235,-550,2,-2,-7,-8,13,1001,0:48:51
783,256,-555,2,-1,-6,-8,13,1000,0:48:51
760,255,-544,2,-2,-6,-8,13,999,0:48:51
784,238,-549,2,-2,-6,-9,13,999,0:48:51
795,247,-544,2,-2,-6,-10,15,1000,0:48:51
795,247,-544,2,-3,-6,-10,13,1000,0:48:51
775,235,-528,2,-3,-6,-10,13,1000,0:48:51
778,249,-537,3,-2,-5,-12,15,1001,0:48:51
799,232,-538,3,-1,-6,-12,15,1001,0:48:51
763,232,-544,1,-1,-6,-10,15,1000,0:48:51
778,234,-552,3,-1,-6,-10,13,1000,0:48:51
778,234,-552,2,-2,-5,-8,14,999,0:48:51
766,246,-540,4,-3,-6,-8,15,1000,0:48:51
793,256,-544,2,-4,-6,-11,14,1001,0:48:51
775,241,-531,2,-3,-7,-11,16,1002,0:48:51
769,243,-556,3,-2,-6,-10,15,999,0:48:51
772,229,-546,4,-1,-7,-11,14,999,0:48:51
768,253,-537,3,-1,-6,-11,15,1000,0:48:51
768,253,-537,2,-2,-7,-11,15,999,0:48:51
778,256,-543,2,-2,-7,-11,15,999,0:48:51
781,228,-541,3,-1,-6,-10,17,1000,0:48:51
778,247,-544,2,-2,-6,-10,15,1001,0:48:51
783,252,-544,3,-4,-6,-11,13,999,0:48:51
757,255,-520,3,-4,-6,-12,15,999,0:48:51
756,246,-547,2,-2,-6,-11,16,1000,0:48:51
756,246,-547,1,-2,-7,-11,14,1000,0:48:51
769,237,-543,2,-1,-6,-11,12,999,0:48:51
778,241,-540,3,0,-7,-10,12,999,0:48:51
756,241,-556,2,-2,-6,-10,14,1000,0:48:51
786,240,-532,3,-2,-5,-14,14,1000,0:48:51
766,231,-558,1,6,-7,-12,12,1001,0:48:51
789,240,-532,2,0,-7,-11,13,1002,0:48:51
789,240,-532,3,-4,-6,-11,14,1000,0:48:51
772,238,-538,2,-2,-6,-11,13,998,0:48:51
774,243,-531,2,0,-5,-13,13,1001,0:48:51
772,240,-556,3,-1,-7,-12,13,1001,0:48:51
772,235,-547,2,-1,-7,-10,12,1000,0:48:51
784,246,-544,2,-7,-5,-10,12,1000,0:48:51
763,249,-553,2,-4,-6,-10,12,1000,0:48:51
763,249,-553,1,-1,-7,-10,14,999,0:48:51
780,237,-559,2,-2,-6,-10,14,999,0:48:51
775,237,-561,2,-2,-5,-10,14,999,0:48:51
774,234,-544,2,-2,-6,-11,15,1000,0:48:51
777,237,-540,2,-2,-6,-13,13,998,0:48:51
778,247,-553,2,-1,-5,-11,14,999,0:48:51
780,238,-532,2,0,-4,-7,15,1000,0:48:51
780,238,-532,2,0,-5,-7,14,999,0:48:51
781,255,-541,2,-3,-5,-10,13,1000,0:48:51
774,228,-534,2,-2,-6,-9,13,1000,0:48:51
786,253,-552,2,0,-6,-10,13,1000,0:48:51
771,240,-553,2,-2,-6,-11,14,1000,0:48:52
769,226,-510,0,-4,-5,-10,13,999,0:48:52
792,250,-538,2,-2,-5,-10,12,999,0:48:52
792,250,-538,4,-1,-6,-11,15,1000,0:48:52
783,241,-540,3,-4,-5,-9,16,999,0:48:52
778,235,-556,2,-3,-6,-8,14,998,0:48:52
772,244,-556,2,-2,-5,-10,13,998,0:48:52
784,243,-555,2,-2,-5,-10,14,1000,0:48:52
783,237,-546,0,-2,-5,-10,14,1000,0:48:52
777,246,-543,1,-3,-5,-10,13,1001,0:48:52
777,246,-543,1,-3,-5,-10,12,1002,0:48:52
760,244,-541,3,-2,-5,-10,13,1000,0:48:52
775,234,-550,3,-1,-6,-11,14,998,0:48:52
775,262,-546,3,-1,-6,-9,14,999,0:48:52
774,244,-547,2,-2,-5,-9,16,1000,0:48:52
772,241,-528,3,-2,-5,-10,16,1002,0:48:52
771,267,-522,4,-2,-6,-10,14,1000,0:48:52
771,267,-522,2,0,-7,-9,12,998,0:48:52
781,243,-553,2,-1,-5,-8,13,1001,0:48:52
789,232,-541,2,0,-6,-8,13,1001,0:48:52
760,237,-559,2,-3,-6,-7,13,999,0:48:52
771,238,-543,3,-1,-6,-9,13,999,0:48:52
777,229,-537,3,-1,-6,-11,13,999,0:48:52
787,238,-556,2,-2,-7,-13,13,998,0:48:52
787,238,-556,2,-2,-7,-13,13,999,0:48:52
781,259,-547,2,-3,-5,-13,14,1000,0:48:52
778,246,-555,3,0,-6,-12,16,1000,0:48:52
775,228,-570,2,-1,-7,-12,16,1000,0:48:52
789,243,-559,2,0,-5,-11,16,999,0:48:52
781,241,-531,2,-2,-6,-11,14,1001,0:48:52
762,243,-541,2,-3,-5,-11,13,1003,0:48:52
762,243,-541,2,-3,-5,-11,13,1001,0:48:52
769,256,-537,2,-2,-5,-10,13,1001,0:48:52
784,240,-582,2,0,-7,-12,12,1001,0:48:52
762,229,-552,2,-2,-7,-12,11,1001,0:48:52
771,246,-544,3,-2,-6,-9,11,1002,0:48:52
774,244,-541,4,-2,-7,-10,13,1003,0:48:52
786,261,-549,4,-1,-7,-11,13,1000,0:48:52
786,261,-549,2,-1,-6,-10,12,1000,0:48:52
769,240,-549,2,-2,-6,-8,12,1000,0:48:52
768,250,-556,2,0,-6,-10,13,1001,0:48:52
765,241,-550,2,-2,-6,-10,12,1001,0:48:52
777,232,-547,2,-2,-7,-9,14,1001,0:48:52
774,247,-531,2,1,-7,-11,14,1001,0:48:52
760,217,-538,3,-1,-6,-12,13,1000,0:48:52
760,217,-538,3,-4,-6,-11,13,998,0:48:52
774,249,-540,2,-2,-6,-11,12,999,0:48:52
757,231,-550,2,-2,-5,-11,11,1000,0:48:52
786,231,-532,2,-2,-4,-11,11,1000,0:48:52
763,252,-552,3,-1,-6,-11,12,999,0:48:52
756,261,-544,2,-1,-6,-11,14,999,0:48:52
781,249,-541,2,-1,-6,-11,16,999,0:48:52
781,249,-541,4,0,-7,-11,15,999,0:48:52
781,225,-555,2,0,-7,-9,13,999,0:48:52
751,255,-550,2,-1,-6,-10,13,1000,0:48:52
781,237,-534,3,-1,-6,-13,13,1000,0:48:52
783,264,-540,2,-1,-5,-10,12,1000,0:48:52
777,237,-541,1,-2,-5,-10,12,1000,0:48:52
781,259,-543,1,-1,-5,-11,13,998,0:48:52
781,259,-543,2,-3,-5,-10,14,997,0:48:52
786,246,-538,2,-2,-6,-9,14,998,0:48:52
768,246,-547,2,0,-6,-9,11,1000,0:48:52
784,240,-561,2,-1,-5,-9,11,999,0:48:52
793,250,-556,2,-2,-6,-8,11,998,0:48:52
771,247,-540,4,0,-6,-9,13,998,0:48:52
769,246,-535,2,-1,-6,-10,14,1000,0:48:52
769,246,-535,3,-1,-6,-9,12,999,0:48:52
766,243,-546,3,0,-7,-9,12,999,0:48:52
790,249,-558,2,-2,-6,-10,12,999,0:48:52
780,234,-532,2,-2,-5,-8,11,1000,0:48:52
778,262,-553,3,-1,-7,-9,13,1000,0:48:52
772,225,-538,2,-1,-6,-11,15,999,0:48:52
780,271,-543,2,-1,-6,-12,15,1000,0:48:52
780,271,-543,2,0,-6,-12,14,1001,0:48:52
766,240,-543,2,-2,-5,-11,13,1000,0:48:52
777,250,-538,3,-2,-6,-10,14,1000,0:48:52
780,259,-535,2,-2,-6,-8,14,1001,0:48:52
765,247,-535,2,0,-7,-10,13,1000,0:48:52
768,246,-523,2,2,-7,-9,13,1000,0:48:52
771,249,-538,2,0,-7,-8,14,1001,0:48:52
771,249,-538,4,-1,-7,-11,13,1000,0:48:52
787,240,-555,3,-2,-6,-12,13,1000,0:48:52
772,247,-540,3,-2,-5,-13,12,1000,0:48:52
766,234,-532,2,-2,-4,-12,12,1000,0:48:52
762,250,-541,3,-2,-6,-10,13,1002,0:48:52
771,234,-552,4,0,-7,-11,13,1003,0:48:52
771,234,-552,3,-1,-6,-11,12,1002,0:48:52
774,243,-544,2,-2,-5,-9,12,1000,0:48:52
795,249,-552,3,-2,-5,-9,12,1000,0:48:52
786,243,-523,2,-2,-5,-10,12,999,0:48:52
774,223,-555,2,-2,-6,-10,13,998,0:48:52
787,240,-556,2,-2,-6,-10,15,998,0:48:52
772,249,-537,3,0,-6,-10,15,998,0:48:52
772,249,-537,2,-1,-6,-11,11,999,0:48:52
771,232,-537,2,0,-5,-13,11,1001,0:48:52
769,240,-546,2,-1,-5,-14,13,1002,0:48:52
796,228,-540,2,-1,-5,-12,12,1001,0:48:52
778,243,-543,2,-2,-7,-10,14,999,0:48:52
781,238,-555,2,-1,-7,-11,14,998,0:48:52
762,249,-528,3,-4,-6,-11,14,999,0:48:52
762,249,-528,3,-2,-6,-12,13,1000,0:48:52
786,249,-550,2,0,-6,-11,11,1000,0:48:52
762,237,-550,2,0,-7,-11,12,1000,0:48:52
796,247,-546,3,-2,-7,-11,14,1000,0:48:52
777,231,-543,2,-2,-6,-11,15,1001,0:48:52
781,246,-565,2,0,-6,-11,15,1001,0:48:53
789,243,-522,5,-1,-5,-12,13,999,0:48:53
789,243,-522,3,0,-6,-10,12,997,0:48:53
769,252,-541,2,-1,-7,-9,13,998,0:48:53
775,246,-550,2,-2,-6,-9,16,999,0:48:53
775,256,-555,2,-2,-6,-10,16,999,0:48:53
772,243,-552,2,-2,-6,-10,14,1000,0:48:53
790,225,-540,3,-2,-6,-10,12,1000,0:48:53
786,258,-526,2,-1,-6,-10,12,1001,0:48:53
786,258,-526,2,-2,-6,-13,13,1000,0:48:53
753,238,-558,2,-1,-4,-11,15,999,0:48:53
796,253,-549,3,0,-5,-9,15,999,0:48:53
784,243,-543,2,0,-6,-9,14,1000,0:48:53
766,228,-538,2,-2,-6,-10,11,998,0:48:53
781,250,-541,2,-1,-6,-11,11,999,0:48:53
768,234,-529,3,0,-6,-11,15,1001,0:48:53
768,234,-529,3,-1,-5,-9,15,999,0:48:53
769,247,-556,3,-2,-6,-9,14,998,0:48:53
777,228,-537,2,-2,-6,-9,13,999,0:48:53
772,244,-529,2,-4,-6,-10,10,1000,0:48:53
775,238,-531,2,-3,-6,-10,12,1002,0:48:53
766,249,-537,3,-1,-6,-10,12,1002,0:48:53
762,261,-534,2,-4,-6,-9,15,1001,0:48:53
784,258,-535,2,-5,-6,-8,14,999,0:48:53
784,258,-535,2,-5,-6,-9,14,999,0:48:53
756,247,-544,3,-1,-6,-11,13,1001,0:48:53
802,250,-546,2,0,-6,-11,13,1001,0:48:53
772,249,-552,2,0,-6,-10,14,1000,0:48:53
780,253,-547,2,0,-7,-12,13,999,0:48:53
780,241,-549,1,-4,-6,-10,12,1000,0:48:53
772,240,-547,2,-2,-6,-10,12,998,0:48:53
772,240,-547,3,-2,-6,-11,15,998,0:48:53
768,228,-544,2,-1,-6,-10,16,999,0:48:53
772,259,-550,2,-1,-7,-10,14,999,0:48:53
790,232,-555,2,0,-7,-11,14,999,0:48:53
787,232,-550,3,-1,-7,-12,13,999,0:48:53
766,237,-535,3,-1,-6,-10,12,999,0:48:53
766,241,-546,2,-2,-5,-10,13,999,0:48:53
766,241,-546,2,-2,-5,-13,14,999,0:48:53
780,247,-550,2,-2,-4,-13,10,999,0:48:53
771,243,-553,2,-2,-6,-13,10,999,0:48:53
792,247,-535,3,-1,-6,-12,10,999,0:48:53
766,235,-534,2,-1,-6,-10,12,999,0:48:53
754,226,-541,2,-2,-6,-10,14,1000,0:48:53
795,244,-537,2,-2,-6,-10,13,1000,0:48:53
795,244,-537,2,-4,-6,-10,13,1001,0:48:53
777,247,-549,2,-4,-5,-8,13,1001,0:48:53
762,247,-543,2,-2,-7,-9,13,999,0:48:53
783,252,-546,2,-2,-6,-9,13,998,0:48:53
786,234,-559,2,-2,-5,-9,14,997,0:48:53
792,252,-526,1,4,-6,-9,15,997,0:48:53
780,228,-535,3,0,-7,-8,14,997,0:48:53
780,228,-535,3,-1,-5,-10,14,999,0:48:53
780,240,-559,2,-2,-5,-10,14,1000,0:48:53
790,252,-538,2,-2,-6,-10,12,1000,0:48:53
768,240,-555,2,-2,-7,-8,13,998,0:48:53
790,249,-555,2,-2,-5,-6,13,998,0:48:53
777,241,-522,3,-3,-6,-9,14,998,0:48:53
769,246,-547,2,-2,-6,-12,15,998,0:48:53
769,246,-547,2,-2,-6,-12,14,999,0:48:53
769,228,-540,3,0,-6,-12,14,999,0:48:53
774,249,-531,3,-2,-5,-11,13,1000,0:48:53
778,258,-541,2,-1,-5,-10,15,998,0:48:53
771,262,-552,2,-1,-6,-10,16,998,0:48:53
769,256,-535,2,-1,-6,-10,14,1000,0:48:53
789,235,-538,4,-3,-6,-12,13,1000,0:48:53
789,235,-538,2,-1,-6,-11,12,1000,0:48:53
775,237,-537,2,-3,-6,-8,12,1002,0:48:53
796,235,-552,2,-3,-5,-10,13,1000,0:48:53
757,241,-547,2,-2,-4,-11,14,999,0:48:53
795,241,-541,3,-2,-5,-10,13,998,0:48:53
748,250,-534,7,-3,-5,-10,14,997,0:48:53
778,241,-553,5,-2,-7,-10,16,998,0:48:53
778,241,-553,3,-2,-7,-11,14,998,0:48:53
774,252,-552,2,-2,-7,-12,14,999,0:48:53
777,249,-558,2,-2,-6,-10,13,1000,0:48:53
781,247,-555,2,-2,-5,-10,13,1000,0:48:53
774,249,-535,2,-1,-6,-10,14,1000,0:48:53
771,247,-556,2,2,-7,-10,14,999,0:48:53
763,241,-534,2,0,-6,-11,14,999,0:48:53
763,241,-534,2,-2,-5,-12,12,999,0:48:53
780,250,-549,2,-2,-6,-11,13,999,0:48:53
784,253,-561,4,0,-5,-10,16,998,0:48:53
768,240,-568,3,-2,-6,-11,17,998,0:48:53
781,249,-540,3,-2,-6,-11,15,999,0:48:53
757,235,-544,3,-3,-6,-9,17,999,0:48:53
768,258,-553,2,-3,-6,-10,15,999,0:48:53
768,258,-553,2,-1,-5,-11,13,998,0:48:53
768,243,-552,2,-1,-6,-9,15,998,0:48:53
774,250,-541,2,-2,-6,-9,13,1000,0:48:53
781,247,-543,2,-2,-7,-8,14,1000,0:48:53
777,246,-541,2,-2,-6,-9,14,999,0:48:53
778,264,-540,4,3,-7,-11,14,999,0:48:53
769,259,-532,2,0,-7,-10,13,1001,0:48:53
769,259,-532,2,-1,-5,-11,14,1001,0:48:53
781,249,-540,2,-2,-5,-10,16,1001,0:48:53
781,252,-547,2,-1,-5,-10,15,1000,0:48:53
778,244,-555,2,-1,-7,-11,15,999,0:48:53
792,237,-546,3,-1,-7,-12,14,1001,0:48:53
768,244,-544,4,4,-7,-12,14,1001,0:48:53
774,225,-535,4,-2,-7,-11,12,1000,0:48:53
774,225,-535,2,-3,-6,-11,12,1001,0:48:53
765,241,-541,2,0,-6,-13,13,1000,0:48:53
784,237,-544,2,-2,-6,-11,13,999,0:48:53
771,253,-544,2,-2,-6,-9,13,999,0:48:53
778,259,-537,2,-3,-6,-8,15,1000,0:48:53
780,250,-555,2,-2,-5,-11,17,1002,0:48:53
793,252,-559,1,-1,-5,-13,14,1002,0:48:54
793,252,-559,2,0,-7,-10,13,1000,0:48:54
784,241,-544,3,0,-7,-9,13,1000,0:48:54
777,246,-556,2,0,-7,-10,12,1002,0:48:54
780,249,-562,2,-2,-6,-12,14,1001,0:48:54
792,240,-568,3,-2,-6,-12,16,1001,0:48:54
781,246,-528,4,1,-6,-12,15,1002,0:48:54
777,268,-534,4,-1,-7,-12,13,1001,0:48:54
777,268,-534,4,-2,-7,-10,13,999,0:48:54
771,247,-556,3,-2,-6,-11,13,998,0:48:54
792,243,-559,2,-2,-7,-12,12,1000,0:48:54
774,255,-574,2,-2,-7,-11,12,1002,0:48:54
790,240,-546,2,-2,-5,-11,12,1002,0:48:54
780,252,-549,4,0,-5,-9,15,1000,0:48:54
786,244,-553,4,0,-6,-10,15,999,0:48:54
786,244,-553,4,0,-6,-9,15,1001,0:48:54
774,231,-549,2,-2,-6,-9,15,1001,0:48:54
757,255,-541,2,-2,-6,-11,15,1001,0:48:54
781,244,-553,2,-2,-6,-10,13,999,0:48:54
768,237,-543,2,-2,-5,-11,14,999,0:48:54
768,255,-534,5,-2,-6,-12,16,998,0:48:54
775,244,-546,3,-2,-5,-11,15,999,0:48:54
775,244,-546,2,-1,-5,-11,13,999,0:48:54
783,256,-552,4,-1,-6,-11,13,997,0:48:54
784,270,-523,4,-2,-6,-10,14,999,0:48:54
774,238,-544,4,-2,-6,-11,12,1000,0:48:54
771,246,-556,2,-1,-6,-10,14,999,0:48:54
775,267,-543,0,-5,-5,-11,15,1000,0:48:54
769,256,-549,2,-3,-6,-12,13,1001,0:48:54
769,256,-549,2,-2,-6,-10,11,1000,0:48:54
780,234,-541,2,-1,-4,-11,13,1000,0:48:54
786,247,-546,2,-1,-6,-10,14,1000,0:48:54
777,238,-559,4,-1,-5,-10,14,1000,0:48:54
774,235,-544,2,-1,-6,-12,15,1000,0:48:54
780,241,-525,0,-6,-4,-15,13,998,0:48:54
774,250,-535,0,-6,-4,-13,11,998,0:48:54
774,250,-535,0,-4,-5,-10,12,999,0:48:54
768,246,-553,1,-2,-6,-8,12,999,0:48:54
787,244,-550,2,-1,-6,-9,12,999,0:48:54
771,223,-553,4,-2,-6,-10,12,999,0:48:54
780,256,-525,3,-2,-5,-9,13,1000,0:48:54
753,252,-544,2,4,-7,-9,15,1000,0:48:54
784,235,-534,2,1,-7,-10,15,998,0:48:54
784,235,-534,2,0,-6,-9,14,999,0:48:54
781,238,-547,2,-2,-6,-9,14,999,0:48:54
766,240,-550,3,-3,-5,-12,15,998,0:48:54
780,250,-550,3,-4,-6,-12,13,999,0:48:54
771,247,-532,4,-3,-6,-10,12,999,0:48:54
768,237,-531,2,-7,-5,-10,11,999,0:48:54
783,241,-543,2,-2,-6,-10,13,1001,0:48:54
783,241,-543,2,-2,-5,-11,15,1000,0:48:54
769,240,-573,3,-3,-5,-11,14,997,0:48:54
786,240,-543,3,-2,-5,-11,14,997,0:48:54
751,244,-535,-1,14,-13,-10,13,997,0:48:54
786,241,-558,-3,51,-13,0,11,994,0:48:54
774,241,-550,-2,35,-27,-6,15,1011,0:48:54
786,246,-538,-2,35,-27,-16,18,1018,0:48:54
786,246,-538,-2,51,-39,-8,18,1010,0:48:54
786,250,-549,0,2,-14,-29,22,1014,0:48:54
792,229,-555,0,-20,-1,-19,18,1005,0:48:54
790,247,-547,2,-14,-2,-4,9,1000,0:48:54
780,247,-555,3,-14,-2,-13,11,1002,0:48:54
784,250,-541,3,-16,0,-9,16,1002,0:48:54
787,231,-546,2,-15,0,-10,16,1000,0:48:54
787,231,-546,3,-14,0,-9,13,997,0:48:54
781,252,-559,4,-11,-2,-9,14,997,0:48:54
772,250,-546,2,-10,-1,-11,16,998,0:48:54
790,247,-550,0,-12,-2,-11,14,999,0:48:54
796,235,-561,1,-5,-3,-10,10,1000,0:48:54
781,244,-535,1,-2,-7,-12,13,1001,0:48:54
777,252,-540,4,2,4,-5,17,993,0:48:54
777,252,-540,6,4,-4,-5,17,993,0:48:54
777,247,-540,6,0,-10,-15,20,995,0:48:54
771,249,-537,5,-4,-16,-19,15,1004,0:48:54
766,246,-550,6,-9,-14,-14,14,1001,0:48:54
765,250,-546,5,-14,-13,-15,13,1004,0:48:54
798,240,-547,5,-14,-13,-11,10,1004,0:48:54
766,246,-558,5,-10,-10,-4,11,1001,0:48:54
766,246,-558,4,-6,-4,-8,11,1001,0:48:54
765,253,-541,5,-10,2,-13,13,1001,0:48:54
786,252,-564,6,-8,2,-7,12,999,0:48:54
775,238,-553,7,-3,3,-7,12,999,0:48:54
777,213,-547,7,-4,0,-9,13,998,0:48:54
774,249,-532,7,-7,0,-12,13,997,0:48:54
796,247,-538,9,-7,-2,-15,15,999,0:48:54
796,247,-538,12,-14,-4,-13,18,1001,0:48:54
765,243,-553,12,-14,-10,-12,17,999,0:48:54
787,253,-541,12,-9,-16,-14,15,1001,0:48:54
778,234,-561,12,-19,-17,-14,18,1003,0:48:54
786,253,-571,13,-18,-16,-10,12,996,0:48:54
777,249,-549,11,-4,-14,-5,4,993,0:48:54
766,238,-547,9,-4,-7,-5,4,993,0:48:54
766,238,-547,9,-10,-4,-4,8,999,0:48:54
762,261,-537,11,-16,1,-7,14,1004,0:48:54
760,244,-552,15,-18,4,-6,15,1001,0:48:54
769,244,-561,15,-18,4,-12,8,1000,0:48:54
783,247,-546,20,-13,13,-11,17,992,0:48:54
750,240,-540,22,0,-3,0,-5,989,0:48:54
765,250,-559,19,-7,-4,0,-22,1000,0:48:54
765,250,-559,12,-14,-18,2,7,1007,0:48:54
774,255,-549,9,-11,-5,6,11,1009,0:48:54
783,256,-552,8,0,26,2,5,1004,0:48:54
780,244,-561,8,0,55,0,9,996,0:48:54
771,235,-556,9,3,51,-4,1,1010,0:48:54
795,235,-549,4,-7,50,-7,0,1019,0:48:54
790,250,-544,2,0,81,-3,5,1004,0:48:54
790,250,-544,9,-7,197,0,8,995,0:48:54
766,253,-541,21,-16,316,43,-31,981,0:48:55
775,232,-553,18,-10,431,46,-46,986,0:48:55
762,240,-543,38,-18,672,-14,-25,985,0:48:55
772,235,-552,4,-69,964,37,-66,904,0:48:55
777,244,-538,-25,-61,1197,37,-66,904,0:48:55
771,223,-531,18,-148,1448,85,-81,965,0:48:55
771,223,-531,14,-242,1756,66,-48,994,0:48:55
784,219,-550,3,-207,2183,108,-128,886,0:48:55
774,226,-558,3,-207,2183,59,-199,978,0:48:55
789,211,-555,11,86,2517,-52,-105,919,0:48:55
802,199,-562,44,-46,2734,-51,-85,942,0:48:55
804,171,-543,5,-112,2751,22,-107,989,0:48:55
816,159,-543,28,-59,2735,46,-95,966,0:48:55
816,159,-543,-44,38,2774,30,-46,940,0:48:55
786,144,-567,-52,9,2909,58,21,800,0:48:55
802,126,-564,29,-181,3028,9,-114,727,0:48:55
792,117,-561,21,-163,3166,-12,-147,884,0:48:55
802,99,-553,58,-53,3319,28,-147,1171,0:48:55
781,73,-544,-13,-184,3480,118,-129,1121,0:48:55
792,73,-568,-39,-147,3741,133,0,827,0:48:55
792,73,-568,-38,-90,4161,45,-58,770,0:48:55
786,43,-565,0,-75,4653,56,-235,1018,0:48:55
768,37,-564,31,-84,5240,66,-411,1054,0:48:55
784,3,-562,19,-56,5815,66,-411,1054,0:48:55
745,-24,-540,71,-42,6140,-49,-407,1212,0:48:55
730,-49,-543,-4,-8,6146,-112,-309,1124,0:48:55
702,-57,-553,-2,13,5791,-161,-171,883,0:48:55
702,-57,-553,-2,13,5791,-205,-1,1001,0:48:55
687,-88,-565,0,33,5241,-232,97,999,0:48:55
664,-91,-550,-22,-2,4675,-310,200,955,0:48:55
652,-90,-558,46,18,4019,-356,187,1179,0:48:55
640,-118,-555,9,-30,3448,-333,122,1115,0:48:55
630,-108,-564,25,-93,3219,-156,84,1041,0:48:55
615,-123,-564,39,60,3311,-12,-98,1267,0:48:55
615,-123,-564,82,44,3752,-6,-142,1307,0:48:55
574,-135,-559,30,17,4269,-59,-72,1451,0:48:55
582,-130,-538,51,-77,4829,-81,-69,1405,0:48:55
531,-120,-558,53,-98,5333,-168,-92,1068,0:48:55
516,-123,-549,42,-56,5524,-243,-98,905,0:48:55
465,-118,-553,28,56,5184,-267,-3,1047,0:48:55
472,-123,-558,10,-79,4205,-293,180,1011,0:48:55
472,-123,-558,28,-81,2968,-228,246,952,0:48:55
438,-102,-570,-2,42,2205,-136,62,1189,0:48:55
429,-121,-561,11,-58,2229,-136,62,1189,0:48:55
420,-115,-547,-4,-106,2659,-68,-39,1107,0:48:55
412,-115,-543,-6,-75,3042,-56,-55,619,0:48:55
393,-94,-565,4,-25,3131,-57,-75,757,0:48:55
394,-82,-552,4,-25,3131,-76,-91,1106,0:48:55
394,-82,-552,68,-58,2823,-85,-157,1057,0:48:55
382,-82,-570,80,-34,2215,20,-55,854,0:48:55
379,-73,-532,39,-54,1556,118,100,752,0:48:55
375,-73,-538,38,-4,1297,197,41,879,0:48:55
358,-51,-564,21,-42,1439,256,-39,932,0:48:55
354,-58,-538,2,-70,1602,196,-44,917,0:48:55
358,-60,-543,-8,-16,1659,43,-62,942,0:48:55
358,-60,-543,-16,-22,1573,-94,3,1035,0:48:55
333,-52,-544,-14,-14,1246,-157,72,1102,0:48:55
334,-45,-567,3,-17,908,-145,96,1066,0:48:55
339,-39,-561,9,10,445,-128,120,994,0:48:55
348,-33,-555,11,8,245,-87,80,992,0:48:55
342,-46,-546,2,-12,253,-28,22,981,0:48:55
334,-54,-550,2,-7,329,-39,-17,1009,0:48:55
334,-54,-550,-8,-34,550,44,-61,1045,0:48:55
340,-34,-555,-3,-9,790,44,-61,1045,0:48:55
313,-31,-537,-19,-4,1110,83,-111,1071,0:48:55
345,-34,-579,-9,-64,1315,22,-99,1099,0:48:55
337,-39,-552,7,-86,1240,24,-64,996,0:48:55
315,-21,-552,7,-86,1240,81,-66,893,0:48:55
319,0,-565,11,-14,1165,121,-72,929,0:48:55
319,0,-565,7,-19,1045,57,-3,954,0:48:55
322,-12,-552,-4,17,1010,11,40,1053,0:48:55
316,-28,-552,14,2,1115,-54,32,1130,0:48:55
313,-18,-546,-4,-18,1221,-98,22,982,0:48:55
313,-6,-559,-5,-18,1319,-13,19,966,0:48:55
285,16,-537,0,-46,1406,86,-18,955,0:48:55
282,18,-546,-5,-25,1370,44,-15,960,0:48:55
282,18,-546,0,19,1305,-88,61,1137,0:48:55
298,13,-559,21,-41,1171,-96,76,1028,0:48:55
303,42,-552,17,-11,960,-77,109,1006,0:48:55
310,33,-553,7,26,697,-107,135,1078,0:48:55
292,39,-555,4,25,533,-111,114,1034,0:48:55
277,39,-528,7,36,478,-111,114,1034,0:48:55
295,43,-537,7,16,332,-170,130,1055,0:48:55
295,43,-537,2,-9,219,-220,101,1030,0:48:55
297,33,-549,0,-1,137,-129,29,1012,0:48:55
286,30,-543,2,4,54,-91,50,998,0:48:55
304,49,-562,0,2,1,-79,49,991,0:48:55
292,31,-565,0,2,1,-32,19,1001,0:48:55
276,34,-535,-2,-2,-21,-26,16,1002,0:48:55
294,58,-561,-6,-4,-34,-19,12,1002,0:48:55
294,58,-561,-4,-3,-37,-10,10,1002,0:48:55
285,36,-552,-2,1,-35,-6,10,997,0:48:55
285,28,-537,-2,1,-26,-8,6,997,0:48:55
292,30,-559,0,1,-18,-11,9,1000,0:48:55
288,25,-562,0,6,-16,-11,9,999,0:48:55
292,40,-535,-4,7,-20,-9,7,997,0:48:55
282,40,-562,-7,16,-37,-9,8,996,0:48:55
282,40,-562,-6,19,-57,-10,8,997,0:48:55
303,27,-544,-4,12,-56,-13,9,999,0:48:55
295,46,-562,-3,11,-49,-10,11,1000,0:48:55
285,49,-552,-3,14,-51,-7,12,1002,0:48:55
289,49,-546,-2,18,-73,-2,9,1001,0:48:55
289,49,-535,-3,1,-103,-2,9,1001,0:48:55
313,45,-577,-2,4,-121,-11,15,1008,0:48:55
313,45,-577,1,7,-89,-23,13,1009,0:48:55
295,42,-553,2,2,-47,-23,9,996,0:48:55
292,55,-534,0,-4,-24,-27,10,996,0:48:55
294,31,-549,0,-4,-24,-25,11,1000,0:48:56
285,42,-550,-1,-4,-16,-17,14,1000,0:48:56
288,30,-570,0,0,-14,-12,12,998,0:48:56
303,33,-546,0,4,-16,-11,10,998,0:48:56
303,33,-546,1,7,-18,-13,10,998,0:48:56
286,27,-555,-1,10,-34,-18,12,1001,0:48:56
286,37,-552,-3,12,-64,-21,14,1002,0:48:56
288,34,-550,-5,13,-112,-34,20,999,0:48:56
298,25,-552,-2,6,-213,-54,17,1015,0:48:56
297,30,-549,15,-7,-308,-11,-6,1069,0:48:56
297,30,-549,0,-17,-324,-51,14,1039,0:48:56
297,33,-561,-24,18,-275,19,2,974,0:48:56
303,21,-556,51,23,-494,-69,11,1013,0:48:56
291,30,-561,20,49,-548,-104,-4,1066,0:48:56
294,22,-556,18,34,-624,-104,-4,1066,0:48:56
300,18,-553,10,39,-639,-43,-8,1044,0:48:56
310,28,-568,14,28,-622,-69,38,1016,0:48:56
310,28,-568,14,28,-622,-64,53,1013,0:48:56
304,27,-552,-16,30,-520,40,9,1003,0:48:56
286,13,-547,-4,32,-368,26,11,953,0:48:56
315,12,-556,25,28,-382,-67,34,1010,0:48:56
288,9,-540,4,35,-287,-40,18,1072,0:48:56
298,4,-567,4,25,-312,-47,16,996,0:48:56
295,13,-550,4,-15,-384,-17,11,954,0:48:56
295,13,-550,25,7,-520,-17,6,968,0:48:56
307,6,-553,9,-21,-490,18,-3,992,0:48:56
322,-4,-571,10,0,-294,4,14,983,0:48:56
327,-1,-573,-9,2,-106,-9,7,985,0:48:56
301,3,-564,-16,-2,-41,21,0,1000,0:48:56
307,-6,-561,-14,-2,-24,-9,10,1000,0:48:56
291,-7,-556,-9,-4,-13,-7,9,998,0:48:56
291,-7,-556,-4,-1,-2,-7,11,998,0:48:56
316,3,-544,-1,0,-4,-13,15,998,0:48:56
322,-4,-547,0,0,-6,-12,15,1000,0:48:56
315,1,-567,0,2,-9,-12,15,1000,0:48:56
318,-12,-553,2,4,-14,-14,14,1001,0:48:56
303,22,-549,3,10,-26,-13,14,998,0:48:56
295,-1,-541,4,12,-61,-16,19,1000,0:48:56
303,19,-567,4,12,-61,-21,22,1003,0:48:56
303,19,-567,-7,-11,-110,-36,54,1011,0:48:56
325,12,-562,-21,-53,-243,-36,87,934,0:48:56
298,12,-549,-5,-51,-315,-12,57,888,0:48:56
318,-12,-555,6,-22,-321,2,4,956,0:48:56
327,-1,-567,-6,-44,-316,-3,-18,987,0:48:56
321,-1,-576,-29,53,-258,15,-27,957,0:48:56
319,3,-550,-6,1,-29,5,0,975,0:48:56
319,3,-550,0,-6,2,-18,27,1010,0:48:56
316,-1,-534,3,-7,1,-10,11,999,0:48:56
318,6,-562,1,-2,-10,-11,12,1001,0:48:56
306,-13,-529,2,-2,-6,-14,17,1000,0:48:56
300,-13,-555,2,-2,-4,-19,14,1000,0:48:56
306,21,-562,0,-1,-7,-12,12,998,0:48:56
309,-3,-541,2,0,-7,-11,13,996,0:48:56
309,-3,-541,3,-2,-6,-11,13,996,0:48:56
298,3,-559,2,-3,-6,-12,14,997,0:48:56
325,-7,-570,2,-3,-6,-12,12,998,0:48:56
319,7,-558,1,-3,-6,-12,12,999,0:48:56
307,15,-561,2,-2,-6,-12,11,1001,0:48:56
312,-13,-574,2,-2,-6,-11,14,1001,0:48:56
315,-3,-559,2,-2,-7,-12,16,1000,0:48:56
315,-3,-559,2,-1,-7,-12,15,998,0:48:56
313,3,-559,3,-2,-6,-10,14,999,0:48:56
303,16,-553,1,-2,-5,-13,13,1000,0:48:56
312,-18,-561,2,-3,-5,-13,12,999,0:48:56
300,-19,-544,2,-2,-6,-12,13,998,0:48:56
294,-13,-549,2,0,-6,-12,16,998,0:48:56
321,-18,-556,2,0,-6,-12,16,998,0:48:56
321,-18,-556,2,-2,-7,-11,15,1000,0:48:56
295,4,-559,2,-2,-6,-13,14,1000,0:48:56
315,-4,-556,2,-2,-6,-13,15,999,0:48:56
318,-12,-564,1,-2,-6,-13,16,997,0:48:56
309,0,-565,1,-4,-7,-12,13,998,0:48:56
309,-13,-543,2,3,-7,-12,13,1001,0:48:56
298,-1,-553,2,0,-6,-12,13,1001,0:48:56
298,-1,-553,2,-2,-6,-14,13,1001,0:48:56
301,-10,-546,2,0,-7,-14,11,1001,0:48:56
318,12,-553,2,-2,-6,-11,9,1001,0:48:56
318,-6,-549,2,-1,-7,-12,9,1000,0:48:56
321,1,-556,2,-1,-7,-14,12,1000,0:48:56
309,-18,-550,2,-2,-7,-14,13,1000,0:48:56
298,-6,-546,1,-2,-7,-13,14,998,0:48:56
298,-6,-546,2,-1,-7,-14,15,998,0:48:56
336,-9,-543,2,-2,-6,-12,15,999,0:48:56
303,-4,-559,2,-2,-7,-11,13,998,0:48:56
307,4,-546,2,-1,-7,-12,12,999,0:48:56
310,-15,-552,2,-2,-6,-13,14,999,0:48:56
291,-10,-559,0,-6,-5,-12,13,998,0:48:56
322,-12,-550,0,-4,-7,-13,11,999,0:48:56
322,-12,-550,2,-2,-6,-14,14,999,0:48:56
304,-6,-556,2,-2,-7,-11,16,999,0:48:56
309,-7,-567,2,-2,-6,-10,15,1001,0:48:56
303,1,-556,2,-2,-6,-12,15,1002,0:48:56
310,-10,-567,2,-2,-5,-12,16,1001,0:48:56
313,0,-574,2,-5,-5,-12,16,1001,0:48:56
319,6,-562,2,-1,-5,-12,16,999,0:48:56
319,6,-562,2,0,-5,-12,13,997,0:48:56
309,-3,-562,2,-1,-6,-13,13,997,0:48:56
309,3,-559,2,-1,-6,-14,16,998,0:48:56
321,-13,-529,4,0,-6,-12,14,999,0:48:56
315,-6,-561,2,-1,-7,-12,14,1000,0:48:56
289,7,-531,2,0,-6,-14,14,1000,0:48:56
309,7,-559,2,0,-5,-13,14,999,0:48:56
309,7,-559,2,-2,-7,-10,14,999,0:48:56
316,-7,-553,3,0,-7,-10,14,1000,0:48:56
325,3,-568,3,-1,-7,-9,15,999,0:48:56
316,-16,-562,2,-2,-6,-12,14,1000,0:48:57
318,-3,-549,3,-1,-7,-13,14,1001,0:48:57
316,-12,-562,1,-9,-5,-12,16,1000,0:48:57
315,-9,-552,2,-4,-5,-13,17,1000,0:48:57
315,-9,-552,3,-2,-5,-11,15,1001,0:48:57
306,-7,-550,2,-2,-6,-11,14,1000,0:48:57
319,10,-562,2,-2,-5,-12,14,1000,0:48:57
309,1,-556,2,-2,-7,-12,14,1000,0:48:57
316,-7,-562,2,-1,-7,-12,15,999,0:48:57
300,-15,-525,2,-1,-7,-13,16,1000,0:48:57
315,1,-573,2,-1,-6,-14,16,1000,0:48:57
315,1,-573,2,-1,-6,-14,17,1001,0:48:57
322,6,-550,2,-1,-6,-12,14,1000,0:48:57
307,6,-555,2,-2,-6,-13,14,1000,0:48:57
307,-6,-576,2,-1,-6,-11,16,999,0:48:57
303,4,-559,2,-1,-6,-9,15,999,0:48:57
303,4,-559,2,-2,-6,-10,14,1000,0:48:57
306,-3,-558,2,-2,-7,-10,16,998,0:48:57
306,-3,-558,2,-1,-7,-10,14,998,0:48:57
294,3,-562,2,-1,-5,-10,14,999,0:48:57
306,1,-574,2,-1,-5,-10,15,999,0:48:57
301,-21,-547,3,-1,-7,-10,14,1000,0:48:57
322,-27,-552,2,-1,-7,-11,14,999,0:48:57
309,-1,-544,2,-5,-5,-11,15,999,0:48:57
306,7,-568,2,-3,-5,-10,15,1001,0:48:57
306,7,-568,2,0,-6,-10,15,1000,0:48:57
312,0,-565,2,0,-6,-13,17,1000,0:48:57
309,-13,-570,2,-2,-5,-13,17,1000,0:48:57
327,-7,-550,2,-2,-7,-14,16,1000,0:48:57
307,-7,-558,3,-1,-6,-13,13,1000,0:48:57
289,-7,-538,1,-6,-6,-15,13,998,0:48:57
298,0,-559,1,-2,-7,-14,14,999,0:48:57
298,0,-559,1,-2,-7,-12,15,1000,0:48:57
312,3,-559,2,-3,-6,-11,16,1000,0:48:57
315,-3,-559,2,-2,-4,-10,16,1000,0:48:57
330,-18,-567,2,-3,-4,-10,15,999,0:48:57
309,-6,-550,2,-2,-5,-11,15,1000,0:48:57
319,-18,-549,5,4,-7,-12,15,999,0:48:57
306,6,-577,4,0,-7,-12,14,999,0:48:57
306,6,-577,2,-2,-6,-10,14,1000,0:48:57
310,-6,-571,2,-2,-6,-10,14,999,0:48:57
309,3,-565,2,-2,-6,-12,12,999,0:48:57
321,-6,-558,2,-1,-6,-14,12,1000,0:48:57
309,9,-556,2,-2,-7,-14,13,998,0:48:57
301,0,-538,2,-5,-5,-12,15,1001,0:48:57
303,7,-537,2,-2,-5,-12,16,1003,0:48:57
303,7,-537,3,-1,-5,-11,15,1002,0:48:57
303,-16,-561,3,-2,-5,-11,15,1002,0:48:57
303,-6,-550,2,-2,-5,-12,14,1001,0:48:57
306,-6,-555,2,-2,-5,-13,14,997,0:48:57
280,-7,-550,2,-2,-6,-13,15,997,0:48:57
315,3,-546,2,-2,-6,-13,15,999,0:48:57
313,1,-528,4,3,-7,-13,14,999,0:48:57
313,1,-528,2,-1,-6,-14,12,998,0:48:57
309,18,-561,2,-4,-5,-13,14,998,0:48:57
327,-1,-555,2,-2,-6,-11,14,1001,0:48:57
298,4,-556,3,0,-6,-12,14,1003,0:48:57
313,-10,-568,2,-2,-6,-12,15,1002,0:48:57
300,-3,-556,2,2,-7,-11,14,999,0:48:57
309,-18,-555,3,0,-7,-11,13,999,0:48:57
309,-18,-555,3,-2,-6,-12,13,1001,0:48:57
313,1,-576,2,-2,-6,-11,13,1002,0:48:57
315,-13,-570,2,-2,-6,-9,11,1001,0:48:57
316,-24,-552,2,-2,-6,-9,11,1001,0:48:57
304,6,-552,2,0,-7,-12,15,1001,0:48:57
319,4,-567,3,-1,-6,-12,17,1001,0:48:57
309,-12,-559,2,-3,-6,-12,17,1001,0:48:57
309,-12,-559,2,-1,-6,-12,14,1000,0:48:57
325,-18,-541,2,0,-5,-14,11,997,0:48:57
324,-3,-546,2,0,-7,-14,12,999,0:48:57
318,-10,-571,2,-2,-5,-12,15,1001,0:48:57
312,13,-555,2,-2,-5,-10,15,999,0:48:57
304,1,-549,2,-1,-6,-11,15,999,0:48:57
309,-10,-562,2,-3,-6,-12,15,1001,0:48:57
309,-10,-562,2,-2,-6,-12,16,1002,0:48:57
303,13,-547,2,0,-7,-11,14,1000,0:48:57
328,-3,-556,2,-2,-6,-10,12,1001,0:48:57
303,-6,-552,2,-2,-6,-11,13,1002,0:48:57
303,-1,-564,3,-2,-6,-12,14,1001,0:48:57
303,-24,-547,4,-3,-5,-11,16,999,0:48:57
298,-10,-550,2,-1,-6,-12,15,998,0:48:57
298,-10,-550,2,-1,-6,-12,14,998,0:48:57
294,-7,-543,2,-2,-5,-10,15,998,0:48:57
298,1,-535,3,-1,-5,-11,13,998,0:48:57
322,-9,-561,2,-2,-5,-11,12,999,0:48:57
309,-4,-555,2,-1,-5,-12,14,1001,0:48:57
300,6,-525,4,1,-6,-10,17,1000,0:48:57
310,-4,-538,3,2,-6,-10,17,1000,0:48:57
310,-4,-538,2,-1,-7,-10,17,999,0:48:57
306,-10,-562,2,-2,-7,-11,15,999,0:48:57
322,-3,-564,2,-2,-6,-12,15,1000,0:48:57
318,-4,-546,2,-2,-6,-13,15,998,0:48:57
315,-10,-567,3,0,-7,-13,15,1000,0:48:57
336,9,-553,2,-1,-6,-13,14,1001,0:48:57
312,-1,-565,2,-2,-6,-13,15,1001,0:48:57
312,-1,-565,2,-3,-6,-12,15,1001,0:48:57
312,6,-555,2,-4,-6,-10,15,1001,0:48:57
316,9,-570,2,-4,-5,-10,14,1000,0:48:57
310,-13,-543,2,-2,-5,-12,14,1000,0:48:57
300,-3,-568,2,-2,-5,-12,14,1001,0:48:57
306,1,-540,0,-5,-4,-11,14,999,0:48:57
310,-4,-537,2,-3,-5,-11,16,998,0:48:57
310,-4,-537,2,0,-6,-10,17,1000,0:48:57
313,-6,-567,2,-2,-6,-13,16,1000,0:48:57
298,-6,-568,2,-2,-6,-14,14,1000,0:48:57
303,-1,-559,2,-1,-6,-11,13,1000,0:48:57
310,-24,-546,2,-1,-6,-11,13,1000,0:48:58
298,21,-538,2,1,-6,-12,12,1001,0:48:58
301,-6,-562,2,0,-7,-14,12,999,0:48:58
301,-6,-562,2,0,-7,-12,13,998,0:48:58
301,-15,-537,2,-1,-5,-10,13,999,0:48:58
307,-15,-553,2,-1,-5,-11,13,999,0:48:58
313,-9,-541,3,-2,-6,-12,14,997,0:48:58
318,-6,-553,2,-2,-6,-12,13,999,0:48:58
307,-15,-538,3,-2,-7,-12,13,1000,0:48:58
306,4,-546,3,-2,-7,-11,14,1000,0:48:58
306,4,-546,2,-2,-6,-12,16,1001,0:48:58
333,6,-574,3,-2,-6,-13,17,1000,0:48:58
312,6,-538,2,-2,-6,-13,15,1000,0:48:58
303,-13,-559,2,-1,-6,-11,15,1000,0:48:58
318,0,-547,2,-1,-6,-9,16,1000,0:48:58
307,-10,-552,2,-4,-6,-11,15,998,0:48:58
316,-13,-547,2,-2,-6,-12,14,998,0:48:58
316,-13,-547,3,-1,-6,-13,15,1001,0:48:58
315,-18,-544,3,-2,-6,-13,16,1000,0:48:58
301,-1,-561,4,-2,-6,-10,15,999,0:48:58
319,-24,-567,2,-1,-6,-10,15,999,0:48:58
312,-1,-546,2,-2,-5,-11,14,1000,0:48:58
315,-13,-553,3,0,-6,-11,14,1000,0:48:58
313,-6,-537,3,0,-6,-13,14,999,0:48:58
313,-6,-537,2,0,-6,-14,14,999,0:48:58
310,1,-552,2,-2,-7,-13,14,998,0:48:58
295,-4,-547,2,-3,-6,-12,15,999,0:48:58
307,-15,-544,1,-2,-7,-12,15,1000,0:48:58
319,6,-541,2,-2,-7,-11,16,1001,0:48:58
301,10,-532,1,-5,-5,-10,20,999,0:48:58
312,7,-549,1,-2,-5,-12,18,997,0:48:58
312,7,-549,2,0,-6,-13,16,1000,0:48:58
298,-3,-553,2,-2,-6,-11,15,1000,0:48:58
307,6,-553,2,-2,-5,-11,14,1000,0:48:58
312,4,-553,2,-2,-7,-12,14,1001,0:48:58
306,9,-550,2,-2,-6,-12,14,999,0:48:58
301,-3,-538,0,-7,-4,-13,16,999,0:48:58
312,6,-561,1,-2,-6,-12,16,1000,0:48:58
312,6,-561,3,-2,-6,-11,15,1001,0:48:58
337,18,-562,2,-2,-6,-12,16,1000,0:48:58
316,-13,-556,3,-1,-5,-12,16,1000,0:48:58
313,9,-562,3,-1,-6,-12,14,1000,0:48:58
315,1,-559,2,-3,-6,-12,14,999,0:48:58
301,1,-523,2,-3,-6,-12,15,998,0:48:58
316,-6,-558,2,1,-7,-11,17,1001,0:48:58
316,-6,-558,2,0,-7,-11,17,1001,0:48:58
304,-1,-565,3,0,-6,-12,14,1000,0:48:58
319,4,-553,2,0,-6,-13,13,999,0:48:58
318,-3,-555,2,-2,-6,-11,14,998,0:48:58
322,-15,-541,2,-2,-5,-11,15,999,0:48:58
307,9,-570,2,1,-5,-11,13,999,0:48:58
309,0,-568,2,-1,-6,-12,13,998,0:48:58
309,0,-568,3,-1,-7,-13,14,996,0:48:58
304,-10,-555,2,-2,-6,-13,15,998,0:48:58
304,-16,-567,2,-2,-5,-14,15,1001,0:48:58
292,-9,-552,3,-1,-5,-14,15,1001,0:48:58
324,9,-559,2,-2,-5,-11,16,1000,0:48:58
286,-15,-543,2,-7,-5,-11,16,999,0:48:58
301,-4,-550,2,-2,-6,-13,14,997,0:48:58
301,-4,-550,3,0,-6,-13,14,997,0:48:58
288,-13,-559,3,0,-6,-12,13,999,0:48:58
324,1,-573,4,0,-5,-12,15,1002,0:48:58
327,-3,-564,3,-1,-6,-12,14,1001,0:48:58
312,6,-546,3,-2,-6,-13,14,1002,0:48:58
295,-13,-550,3,-2,-6,-13,13,1000,0:48:58
303,-3,-561,3,-2,-7,-15,11,999,0:48:58
303,-3,-561,1,-2,-5,-15,12,1000,0:48:58
303,-6,-544,2,-3,-5,-14,12,1000,0:48:58
295,3,-544,2,-3,-6,-10,12,1000,0:48:58
310,12,-555,2,-3,-7,-12,15,1002,0:48:58
304,12,-556,2,-2,-6,-13,15,1001,0:48:58
306,-7,-535,3,-10,-5,-11,15,1000,0:48:58
318,4,-555,3,-3,-6,-11,15,1000,0:48:58
318,4,-555,2,-1,-5,-11,15,999,0:48:58
310,3,-570,4,-2,-6,-13,15,1000,0:48:58
309,-10,-556,3,-1,-6,-12,14,1000,0:48:58
325,13,-549,3,-1,-6,-11,13,1001,0:48:58
315,-1,-565,3,-3,-5,-9,13,1001,0:48:58
318,7,-546,7,0,-7,-10,14,999,0:48:58
315,-1,-553,4,0,-7,-10,14,999,0:48:58
315,-1,-553,1,-2,-6,-10,15,999,0:48:58
345,4,-558,2,-2,-5,-11,14,1000,0:48:58
313,-7,-561,2,-2,-6,-12,14,1000,0:48:58
313,-3,-550,2,-2,-6,-12,15,1000,0:48:58
324,3,-565,3,0,-6,-12,16,1000,0:48:58
294,0,-543,3,0,-7,-12,16,1002,0:48:58
322,-10,-546,2,0,-6,-14,14,1001,0:48:58
322,-10,-546,3,-1,-6,-15,12,1001,0:48:58
333,-7,-538,2,-2,-5,-15,12,999,0:48:58
336,-4,-553,2,-4,-5,-14,14,999,0:48:58
310,3,-553,2,-1,-6,-13,16,1000,0:48:58
312,0,-547,2,-1,-7,-13,15,999,0:48:58
316,9,-532,2,-5,-6,-14,15,999,0:48:58
316,7,-540,2,-3,-6,-14,13,998,0:48:58
316,7,-540,2,-2,-6,-14,15,1001,0:48:58
316,4,-555,2,-2,-7,-14,15,1001,0:48:58
324,3,-555,2,-2,-6,-12,15,998,0:48:58
322,9,-543,2,-1,-6,-12,17,998,0:48:58
307,-1,-567,2,-1,-5,-12,14,999,0:48:58
306,1,-565,2,-6,-5,-12,13,1001,0:48:58
312,4,-540,2,-3,-6,-13,13,1001,0:48:58
312,4,-540,3,-2,-5,-12,14,1001,0:48:58
300,0,-552,2,-2,-5,-12,15,1000,0:48:58
298,4,-567,2,-2,-5,-11,13,999,0:48:58
312,-6,-567,2,0,-5,-13,11,999,0:48:58
321,4,-559,2,-2,-7,-15,12,1000,0:48:58
304,-13,-541,2,-1,-7,-14,14,1000,0:48:58
303,3,-562,2,-1,-7,-13,14,999,0:48:58
303,3,-562,2,0,-6,-14,14,998,0:48:59
330,3,-555,2,0,-6,-16,15,1000,0:48:59
303,-3,-538,2,0,-5,-15,15,1000,0:48:59
331,1,-559,2,-1,-5,-13,13,998,0:48:59
307,21,-553,2,-2,-5,-12,15,999,0:48:59
313,-1,-550,4,2,-7,-11,15,1000,0:48:59
321,-16,-550,2,0,-7,-12,15,999,0:48:59
321,-16,-550,2,-2,-6,-12,15,998,0:48:59
321,-1,-555,3,0,-7,-11,12,999,0:48:59
319,12,-544,2,-1,-6,-12,11,1000,0:48:59
325,9,-538,2,-2,-6,-12,11,1000,0:48:59
304,-3,-561,2,0,-6,-12,13,999,0:48:59
300,4,-547,1,-7,-5,-12,13,999,0:48:59
315,-4,-550,2,-4,-6,-10,14,1001,0:48:59
315,-4,-550,2,-4,-6,-10,15,1001,0:48:59
324,-3,-556,2,-3,-6,-11,13,999,0:48:59
301,7,-555,1,-2,-6,-11,15,1000,0:48:59
322,-1,-520,2,-2,-6,-13,16,999,0:48:59
331,-10,-558,3,-3,-6,-13,15,998,0:48:59
301,-13,-549,2,-9,-4,-12,14,998,0:48:59
307,-3,-552,2,-2,-6,-12,15,998,0:48:59
307,-3,-552,3,-2,-5,-11,16,999,0:48:59
322,-7,-552,4,-2,-5,-11,14,999,0:48:59
304,1,-553,2,-1,-5,-12,14,1000,0:48:59
309,6,-529,2,-2,-6,-12,15,1000,0:48:59
294,-9,-553,1,0,-6,-11,17,1001,0:48:59
300,18,-534,2,-2,-6,-11,17,1001,0:48:59
330,7,-564,2,-2,-6,-12,18,1000,0:48:59
330,7,-564,2,0,-6,-10,17,998,0:48:59
319,1,-573,2,0,-5,-12,14,998,0:48:59
322,16,-549,3,-1,-5,-12,14,998,0:48:59
309,-18,-558,4,-2,-5,-13,14,1000,0:48:59
316,0,-552,2,-2,-6,-13,15,1000,0:48:59
306,-1,-544,3,-4,-5,-13,14,1000,0:48:59
309,-1,-555,3,-4,-5,-12,14,1001,0:48:59
309,-1,-555,2,-4,-5,-11,15,1000,0:48:59
318,0,-552,2,-2,-6,-11,16,999,0:48:59
313,-3,-541,1,-1,-6,-11,15,1002,0:48:59
316,-18,-562,2,-1,-6,-11,14,1001,0:48:59
306,-6,-550,2,-2,-6,-12,13,998,0:48:59
301,1,-544,2,-12,-4,-11,14,1000,0:48:59
316,1,-546,2,-4,-5,-11,12,1000,0:48:59
316,1,-546,2,-2,-5,-10,12,998,0:48:59
303,4,-561,2,-2,-5,-11,14,1000,0:48:59
318,-15,-570,2,-2,-6,-13,13,1002,0:48:59
327,12,-552,2,-1,-6,-12,12,1000,0:48:59
304,1,-543,2,-2,-6,-11,14,999,0:48:59
319,-22,-540,4,-3,-6,-10,13,999,0:48:59
319,-6,-550,3,-2,-6,-8,14,998,0:48:59
319,-6,-550,2,-2,-5,-12,14,999,0:48:59
298,-1,-544,2,-3,-4,-12,14,999,0:48:59
316,-4,-541,2,-1,-5,-14,15,1002,0:48:59
331,0,-549,2,0,-6,-12,15,1002,0:48:59
321,0,-552,2,0,-6,-13,14,999,0:48:59
327,18,-555,2,0,-6,-14,16,1000,0:48:59
318,1,-547,2,-3,-6,-13,15,1001,0:48:59
318,1,-547,2,-2,-5,-13,12,1001,0:48:59
309,18,-543,3,-2,-6,-14,13,1000,0:48:59
309,-12,-565,2,-2,-5,-12,17,998,0:48:59
321,4,-552,2,-3,-5,-10,18,997,0:48:59
307,-3,-570,3,-2,-6,-10,16,999,0:48:59
295,10,-540,2,-2,-6,-9,12,1001,0:48:59
316,-4,-552,2,-2,-5,-9,12,1002,0:48:59
316,-4,-552,2,-1,-5,-13,16,1001,0:48:59
318,3,-565,2,-2,-5,-13,15,1000,0:48:59
316,-1,-561,2,-2,-5,-12,14,1000,0:48:59
304,7,-538,2,-1,-6,-14,14,1000,0:48:59
325,-1,-550,2,-2,-7,-14,15,1001,0:48:59
307,3,-555,2,-3,-5,-11,15,1002,0:48:59
321,-15,-564,2,0,-6,-11,15,1002,0:48:59
321,-15,-564,2,0,-6,-11,16,1002,0:48:59
313,-7,-552,3,0,-6,-12,15,1001,0:48:59
325,7,-568,2,-2,-6,-13,14,1000,0:48:59
315,0,-556,2,0,-6,-13,13,1001,0:48:59
313,-12,-565,2,0,-6,-12,13,1001,0:48:59
300,10,-552,3,0,-5,-11,13,1001,0:48:59
300,-1,-549,3,-2,-4,-11,13,1000,0:48:59
300,-1,-549,3,0,-5,-12,13,1000,0:48:59
300,1,-541,2,0,-6,-13,14,1001,0:48:59
319,-4,-553,2,-3,-6,-12,14,999,0:48:59
306,6,-567,2,-4,-5,-11,14,1000,0:48:59
309,3,-552,2,-2,-5,-11,15,1000,0:48:59
322,-12,-567,2,0,-6,-12,16,1000,0:48:59
298,10,-547,2,-2,-5,-12,16,999,0:48:59
298,10,-547,2,-2,-6,-10,16,998,0:48:59
319,1,-544,2,-1,-6,-12,16,998,0:48:59
318,-12,-559,3,-2,-6,-15,13,997,0:48:59
300,-4,-537,2,-1,-6,-14,13,997,0:48:59
324,3,-556,2,-1,-6,-14,15,998,0:48:59
297,-4,-552,2,0,-6,-14,15,998,0:48:59
334,12,-561,1,-2,-4,-14,14,1001,0:48:59
334,12,-561,2,-2,-5,-12,15,1000,0:48:59
316,-3,-549,2,-2,-5,-10,15,1000,0:48:59
306,9,-574,2,-2,-6,-11,13,1001,0:48:59
324,-15,-553,2,-2,-6,-12,13,999,0:48:59
300,10,-565,2,0,-6,-12,13,999,0:48:59
312,10,-558,2,-2,-6,-13,13,1000,0:48:59
321,7,-555,2,-2,-5,-13,14,1000,0:48:59
321,7,-555,2,-2,-5,-14,13,998,0:48:59
301,-7,-567,1,-3,-5,-15,12,996,0:48:59
319,-10,-559,2,-2,-5,-12,14,996,0:48:59
319,-12,-555,2,0,-6,-12,15,997,0:48:59
304,4,-556,2,0,-7,-13,13,1001,0:48:59
297,-3,-525,4,0,-7,-12,14,1001,0:48:59
312,19,-544,4,-2,-6,-11,16,997,0:48:59
312,19,-544,2,-2,-6,-11,14,996,0:48:59
319,1,-550,3,-1,-6,-11,15,998,0:49:00
313,7,-555,4,-2,-6,-11,15,998,0:49:00
318,-16,-562,2,-2,-6,-12,15,998,0:49:00
310,-15,-546,2,-2,-6,-12,15,998,0:49:00
313,-16,-525,2,5,-7,-14,15,1000,0:49:00
307,1,-564,2,2,-7,-12,14,999,0:49:00
307,1,-564,2,2,-7,-11,14,998,0:49:00
322,-6,-570,2,-1,-5,-14,16,998,0:49:00
304,-6,-573,2,-3,-6,-13,16,1000,0:49:00
319,-7,-550,3,0,-7,-12,16,1000,0:49:00
319,0,-570,3,0,-5,-13,16,1001,0:49:00
318,-21,-537,2,-2,-5,-11,17,1001,0:49:00
315,15,-549,2,-2,-5,-12,16,999,0:49:00
315,15,-549,4,0,-6,-13,13,998,0:49:00
327,-18,-549,4,0,-7,-13,13,1001,0:49:00
313,4,-550,3,0,-7,-13,14,1002,0:49:00
304,-13,-553,2,0,-6,-12,14,1002,0:49:00
294,3,-561,2,-1,-5,-11,13,1001,0:49:00
288,24,-535,3,-1,-6,-11,11,999,0:49:00
330,1,-538,3,-2,-6,-11,13,1000,0:49:00
330,1,-538,2,-2,-6,-11,13,1000,0:49:00
306,3,-559,2,-1,-6,-11,14,999,0:49:00
310,-16,-558,2,-1,-5,-11,14,999,0:49:00
321,-10,-559,2,-2,-6,-11,14,999,0:49:00
313,10,-564,2,-2,-5,-11,13,1000,0:49:00
318,-16,-558,3,0,-7,-11,14,1002,0:49:00
330,0,-547,3,0,-7,-10,15,1001,0:49:00
330,0,-547,3,-3,-6,-10,16,999,0:49:00
325,9,-559,2,-1,-5,-12,15,998,0:49:00
333,9,-544,3,-2,-5,-12,13,999,0:49:00
325,-6,-543,3,-1,-7,-11,15,999,0:49:00
321,-7,-570,3,0,-6,-10,16,999,0:49:00
312,1,-538,0,-7,-5,-12,14,998,0:49:00
318,4,-534,2,-3,-6,-12,13,999,0:49:00
318,4,-534,2,-1,-6,-11,13,999,0:49:00
307,9,-555,3,-2,-5,-11,13,998,0:49:00
322,-9,-564,3,-4,-5,-11,13,998,0:49:00
300,0,-528,3,-2,-5,-12,15,999,0:49:00
318,0,-552,3,-1,-7,-12,14,999,0:49:00
309,-15,-547,4,7,-7,-10,14,999,0:49:00
307,3,-559,3,0,-6,-13,16,999,0:49:00
307,3,-559,3,-1,-5,-13,17,1000,0:49:00
306,3,-550,2,-2,-6,-13,17,1000,0:49:00
312,1,-549,2,-2,-6,-11,15,1001,0:49:00
330,10,-558,3,-3,-5,-9,13,1000,0:49:00
336,19,-547,3,-1,-6,-11,15,999,0:49:00
301,-3,-541,2,-6,-6,-13,18,1001,0:49:00
307,4,-549,2,-6,-6,-14,18,1001,0:49:00
307,4,-549,4,-1,-5,-13,17,1001,0:49:00
313,6,-562,3,-2,-5,-14,15,999,0:49:00
321,-3,-562,2,-2,-6,-15,13,1000,0:49:00
313,10,-549,2,-2,-6,-13,14,1001,0:49:00
310,7,-538,2,-1,-5,-15,16,1000,0:49:00
325,12,-553,0,-3,-5,-13,14,998,0:49:00
300,6,-561,2,-3,-5,-12,13,997,0:49:00
300,6,-561,2,-2,-5,-12,14,999,0:49:00
298,4,-532,3,-3,-5,-13,14,1000,0:49:00
318,3,-549,3,-1,-7,-13,14,1000,0:49:00
319,-13,-555,4,-2,-5,-14,14,1002,0:49:00
310,9,-531,2,-2,-5,-12,14,1002,0:49:00
315,6,-553,2,-2,-5,-10,16,999,0:49:00
315,6,-553,2,-2,-7,-11,16,998,0:49:00
298,-13,-550,2,-2,-6,-12,14,999,0:49:00
313,6,-562,2,-1,-7,-12,14,1000,0:49:00
304,-1,-538,3,0,-7,-11,17,1001,0:49:00
328,0,-558,4,0,-6,-11,15,1000,0:49:00
313,4,-544,4,0,-6,-13,13,999,0:49:00
301,12,-538,2,0,-6,-14,16,1001,0:49:00
301,12,-538,2,-2,-6,-12,17,1002,0:49:00
322,-10,-537,2,-2,-4,-11,17,999,0:49:00
310,-3,-538,2,-3,-4,-12,14,998,0:49:00
318,-12,-552,3,-2,-5,-11,13,998,0:49:00
298,-24,-540,3,-2,-5,-13,16,1000,0:49:00
295,-3,-567,2,-2,-5,-13,15,1000,0:49:00
303,-7,-544,3,0,-7,-11,14,998,0:49:00
303,-7,-544,2,-1,-7,-12,16,999,0:49:00
310,-1,-544,2,-2,-7,-13,17,999,0:49:00
303,1,-576,3,-2,-6,-14,16,1000,0:49:00
324,7,-553,2,-2,-6,-17,15,1000,0:49:00
319,4,-558,2,-2,-5,-14,13,1000,0:49:00
