magX[mG],magY[mG],magZ[mG],gyroX[mdps],gyroY[mdps],gyroZ[mdps],accX[mg],accY[mg],accZ[mg],hh:mm:ss.ms
307,-22,-555,2,-1,-5,-13,19,997,0:20:49
336,-27,-549,3,-2,-6,-15,18,998,0:20:49
318,-31,-574,3,-3,-5,-15,16,998,0:20:49
319,-18,-565,2,-1,-5,-15,16,997,0:20:49
310,-28,-570,2,-1,-5,-15,16,997,0:20:49
310,-28,-570,2,-2,-5,-14,17,997,0:20:49
306,-13,-568,2,-2,-4,-17,17,997,0:20:49
313,-31,-540,2,-1,-5,-16,16,998,0:20:49
313,-31,-540,3,-2,-4,-15,15,999,0:20:49
333,-45,-570,2,-2,-5,-16,18,999,0:20:49
330,-27,-564,3,-2,-5,-14,18,998,0:20:49
321,-31,-562,3,-2,-5,-14,17,998,0:20:49
321,-31,-562,2,-2,-6,-15,15,997,0:20:49
319,-19,-573,3,-2,-7,-14,14,997,0:20:49
327,-24,-556,0,-1,-5,-13,15,997,0:20:49
319,-40,-576,2,-2,-4,-13,15,996,0:20:49
319,-36,-553,2,0,-6,-13,15,996,0:20:49
307,-42,-553,2,0,-6,-14,15,998,0:20:49
330,-33,-559,3,-1,-6,-16,15,999,0:20:49
330,-33,-559,2,-2,-6,-16,15,999,0:20:49
321,-22,-555,3,0,-6,-17,16,999,0:20:49
294,-27,-550,2,-2,-4,-16,16,998,0:20:49
324,-42,-564,2,-2,-6,-16,17,1000,0:20:49
312,-33,-568,2,0,-6,-16,17,998,0:20:49
322,-1,-567,2,0,-6,-14,15,997,0:20:49
336,-36,-558,2,-2,-6,-14,15,999,0:20:49
336,-36,-558,3,-2,-6,-14,16,1001,0:20:49
315,-18,-571,2,-2,-5,-15,17,999,0:20:49
327,-40,-553,4,-4,-5,-17,17,997,0:20:49
306,-34,-550,4,-2,-6,-17,17,997,0:20:49
324,-30,-558,4,-1,-5,-15,17,997,0:20:49
316,-33,-561,3,-1,-5,-14,17,1001,0:20:49
309,-28,-583,2,-2,-6,-14,17,1001,0:20:49
309,-28,-583,2,-2,-6,-16,16,998,0:20:49
325,-33,-561,2,-2,-6,-16,17,998,0:20:49
321,-25,-552,2,-6,-5,-14,16,998,0:20:49
325,-25,-571,3,-4,-5,-14,17,1000,0:20:49
327,-22,-582,2,-2,-5,-13,17,1002,0:20:49
336,-37,-558,3,-1,-5,-12,15,1001,0:20:49
313,-33,-573,3,0,-4,-12,15,1001,0:20:50
321,-30,-564,2,-2,-4,-14,18,996,0:20:50
321,-30,-564,3,-2,-5,-14,18,995,0:20:50
312,-21,-576,3,-1,-5,-15,16,997,0:20:50
312,-21,-576,3,-1,-5,-16,16,997,0:20:50
312,-40,-564,3,-1,-6,-15,16,998,0:20:50
336,-24,-565,3,-1,-4,-16,16,1000,0:20:50
315,-31,-561,2,-1,-5,-16,15,1000,0:20:50
304,-25,-547,2,-2,-5,-14,14,999,0:20:50
304,-25,-547,2,-2,-5,-13,18,999,0:20:50
319,-24,-564,1,-2,-4,-14,20,999,0:20:50
309,-34,-576,2,-2,-5,-16,19,999,0:20:50
325,-33,-570,2,-3,-5,-16,17,999,0:20:50
316,-19,-562,2,-2,-6,-16,16,999,0:20:50
313,-18,-564,2,-1,-5,-16,16,998,0:20:50
316,-21,-568,2,-1,-6,-14,16,998,0:20:50
316,-21,-568,2,-2,-5,-14,15,998,0:20:50
313,-19,-556,2,-4,-5,-16,16,998,0:20:50
313,-19,-556,2,-2,-5,-17,15,999,0:20:50
310,-25,-556,2,-2,-4,-17,0,999,0:20:50
321,-30,-564,2,-4,-5,-16,15,1000,0:20:50
339,-21,-565,2,-1,-5,-15,16,998,0:20:50
339,-21,-565,2,-2,-6,-13,15,998,0:20:50
331,-28,-564,2,0,-7,-15,15,997,0:20:50
327,-24,-570,2,0,-7,-16,13,999,0:20:50
325,-25,-565,1,-1,-5,-13,15,999,0:20:50
327,-25,-558,2,-2,-5,-12,17,997,0:20:50
316,-36,-562,2,-2,-5,-11,17,998,0:20:50
325,-18,-564,2,-2,-5,-13,18,999,0:20:50
325,-18,-564,3,-1,-5,-16,16,1000,0:20:50
322,-30,-568,2,-1,-5,-15,17,1000,0:20:50
315,-6,-562,2,0,-5,-16,18,998,0:20:50
315,-6,-562,2,-1,-6,-17,17,996,0:20:50
312,-37,-567,2,-1,-5,-16,18,998,0:20:50
333,-31,-553,2,-2,-5,-15,20,1001,0:20:50
331,-21,-567,2,-2,-5,-14,17,999,0:20:50
331,-21,-567,2,-2,-4,-15,15,999,0:20:50
328,-27,-555,2,-2,-5,-16,16,1000,0:20:50
328,-31,-558,0,3,-6,-17,16,1000,0:20:50
312,-37,-558,2,2,-6,-17,16,1000,0:20:50
327,-33,-556,3,0,-6,-15,15,1001,0:20:50
336,-21,-567,3,0,-6,-15,15,1001,0:20:50
319,-30,-561,3,-2,-5,-18,17,1000,0:20:50
319,-30,-561,3,-2,-5,-17,18,998,0:20:50
327,-48,-570,2,-4,-5,-13,16,999,0:20:50
321,-19,-543,2,-2,-6,-12,14,1000,0:20:50
321,-37,-567,3,-2,-6,-15,15,999,0:20:50
331,-25,-562,3,-2,-6,-14,17,999,0:20:50
330,1,-567,2,-3,-5,-15,18,999,0:20:50
330,1,-567,2,-1,-6,-14,17,998,0:20:50
327,-37,-576,2,0,-6,-14,16,998,0:20:50
318,-36,-552,2,-1,-6,-15,17,998,0:20:50
312,-30,-555,3,7,-7,-16,17,997,0:20:50
309,-40,-555,2,0,-6,-16,17,995,0:20:50
328,-31,-552,2,-2,-5,-16,18,996,0:20:50
328,-31,-552,3,-1,-6,-15,17,999,0:20:50
327,-16,-570,3,0,-6,-13,18,1000,0:20:50
331,-33,-555,2,-2,-4,-14,19,998,0:20:50
304,-25,-564,2,-2,-4,-15,19,998,0:20:50
318,-25,-541,0,-3,-5,-15,19,998,0:20:50
330,-34,-568,2,-1,-6,-14,16,999,0:20:50
309,-31,-571,2,0,-5,-16,15,999,0:20:50
312,-18,-567,2,-3,-4,-17,16,999,0:20:50
312,-18,-567,2,-3,-4,-14,15,999,0:20:50
324,-22,-564,2,-2,-4,-13,13,1000,0:20:50
316,-27,-564,3,-1,-4,-13,15,999,0:20:50
321,-28,-565,3,-2,-5,-14,14,1000,0:20:50
321,-28,-565,2,-1,-5,-14,14,999,0:20:50
325,-39,-553,2,-2,-5,-14,14,997,0:20:50
325,-39,-553,2,-1,-5,-17,15,998,0:20:50
327,-40,-553,2,-1,-6,-16,17,998,0:20:50
316,-36,-556,3,-2,-6,-14,18,998,0:20:50
310,-46,-552,3,-1,-6,-15,17,998,0:20:50
322,-10,-550,2,2,-7,-15,15,998,0:20:50
319,-34,-565,3,0,-6,-15,15,999,0:20:50
319,-34,-565,3,-1,-6,-16,14,1000,0:20:50
322,-46,-568,2,-1,-6,-16,16,1000,0:20:50
322,-10,-577,2,-1,-6,-15,18,999,0:20:50
333,-30,-568,2,-2,-5,-15,17,997,0:20:50
309,-21,-576,3,0,-5,-15,17,997,0:20:50
298,-30,-553,2,-1,-5,-16,16,998,0:20:50
312,-28,-565,2,-2,-5,-13,16,998,0:20:50
312,-28,-565,2,-2,-5,-13,17,997,0:20:50
330,-46,-574,2,-2,-5,-15,17,999,0:20:50
301,-37,-553,3,-2,-5,-14,18,1001,0:20:50
300,-22,-553,3,-1,-6,-12,19,1001,0:20:50
325,-46,-553,3,-2,-6,-13,16,1000,0:20:50
330,-13,-549,2,-2,-5,-15,15,998,0:20:50
315,-21,-568,2,-2,-6,-12,18,999,0:20:50
315,-21,-568,2,-2,-6,-13,17,1000,0:20:50
325,-37,-571,2,-2,-5,-16,14,999,0:20:50
315,-25,-558,3,-2,-5,-17,14,997,0:20:50
316,-33,-564,2,-3,-4,-16,17,997,0:20:50
328,-25,-573,2,-2,-5,-15,16,999,0:20:50
313,-33,-549,3,-10,-4,-14,15,998,0:20:50
337,-37,-574,3,-4,-4,-13,15,996,0:20:50
337,-37,-574,3,-2,-5,-15,16,997,0:20:50
337,-30,-588,2,-2,-4,-15,17,999,0:20:50
330,-39,-568,3,-2,-5,-15,17,999,0:20:50
310,-15,-568,2,-3,-5,-15,17,998,0:20:50
328,-19,-555,2,-3,-6,-13,17,998,0:20:50
324,-21,-582,2,-2,-6,-13,17,1000,0:20:50
319,-33,-583,2,-2,-6,-15,16,1001,0:20:50
319,-33,-583,2,-1,-6,-17,16,999,0:20:50
301,-40,-564,2,-2,-4,-16,17,999,0:20:50
309,-39,-573,2,-2,-5,-15,15,999,0:20:50
321,-30,-550,2,-1,-5,-15,17,999,0:20:50
324,-28,-570,2,-2,-4,-13,17,1001,0:20:51
318,-25,-561,3,-2,-4,-13,16,1000,0:20:51
309,-31,-561,1,0,-5,-13,18,998,0:20:51
309,-31,-561,2,-1,-5,-15,17,998,0:20:51
319,-18,-561,2,-2,-5,-17,15,997,0:20:51
324,-43,-555,2,-1,-5,-16,15,997,0:20:51
331,-34,-562,3,0,-6,-15,16,997,0:20:51
319,-25,-546,2,-2,-4,-15,17,999,0:20:51
319,-54,-547,2,-3,-4,-13,18,1000,0:20:51
319,-54,-547,2,-2,-5,-14,16,999,0:20:51
321,-27,-574,2,-2,-5,-15,15,998,0:20:51
328,-36,-585,2,0,-5,-15,15,998,0:20:51
310,-43,-564,4,0,-6,-13,15,999,0:20:51
324,-16,-582,3,0,-6,-15,15,1001,0:20:51
307,-34,-573,3,-2,-5,-17,14,1001,0:20:51
289,-12,-544,2,-2,-6,-16,17,999,0:20:51
289,-12,-544,2,-2,-6,-14,16,999,0:20:51
322,-31,-564,2,0,-5,-12,16,1000,0:20:51
307,-24,-573,2,-1,-5,-14,18,1001,0:20:51
319,-33,-561,3,-2,-5,-15,16,1000,0:20:51
322,-27,-564,2,-3,-5,-16,15,998,0:20:51
328,-21,-556,2,-4,-4,-15,16,1001,0:20:51
313,-19,-556,4,1,-4,-12,17,1000,0:20:51
313,-19,-556,2,-1,-5,-14,17,999,0:20:51
325,-21,-564,2,-2,-4,-14,15,999,0:20:51
318,-28,-549,2,-2,-4,-13,14,998,0:20:51
324,-12,-558,2,-3,-5,-14,17,998,0:20:51
318,-28,-556,2,-2,-5,-15,17,999,0:20:51
312,-30,-568,2,0,-6,-14,14,999,0:20:51
322,-36,-549,2,-7,-4,-13,13,999,0:20:51
307,-31,-564,3,-4,-6,-13,13,999,0:20:51
307,-31,-564,3,-2,-5,-15,15,1000,0:20:51
312,-12,-576,2,-2,-5,-17,17,1002,0:20:51
322,-37,-546,2,-3,-6,-16,17,1001,0:20:51
304,-30,-568,2,-4,-5,-15,17,1001,0:20:51
310,-34,-576,2,-4,-5,-17,16,999,0:20:51
312,-36,-558,2,-2,-5,-17,17,998,0:20:51
313,-19,-574,3,-1,-5,-16,16,998,0:20:51
313,-19,-574,2,-1,-5,-17,16,1000,0:20:51
321,-27,-562,2,-2,-5,-16,17,1001,0:20:51
325,-21,-547,2,-2,-4,-15,16,999,0:20:51
316,-30,-564,3,-2,-5,-15,17,999,0:20:51
315,-43,-571,3,-1,-6,-15,17,1001,0:20:51
297,-34,-555,4,-4,-5,-15,17,1000,0:20:51
312,-28,-562,3,-3,-4,-12,16,999,0:20:51
312,-28,-562,2,-3,-4,-15,16,1000,0:20:51
307,-31,-564,3,-1,-5,-15,18,1000,0:20:51
315,-30,-577,2,-2,-4,-13,17,1000,0:20:51
318,-25,-570,2,-3,-4,-14,16,1000,0:20:51
327,-28,-565,3,-1,-4,-13,16,1000,0:20:51
325,-42,-534,1,0,-5,-13,16,1000,0:20:51
324,-31,-558,2,-2,-6,-13,17,1002,0:20:51
324,-31,-558,2,-2,-5,-15,16,1002,0:20:51
328,-39,-558,2,-2,-6,-14,17,1000,0:20:51
309,-34,-570,3,-4,-5,-15,16,999,0:20:51
325,-30,-555,3,-4,-5,-17,14,997,0:20:51
322,-37,-564,2,-2,-6,-15,16,999,0:20:51
319,-27,-573,2,-2,-6,-14,16,998,0:20:51
333,-27,-558,2,-1,-5,-15,17,996,0:20:51
333,-27,-558,2,-3,-5,-16,18,998,0:20:51
334,-16,-564,2,-2,-5,-15,17,1000,0:20:51
325,-30,-582,2,-1,-6,-15,14,1001,0:20:51
310,-42,-574,3,-2,-6,-15,15,999,0:20:51
312,-33,-568,2,-1,-6,-15,18,997,0:20:51
313,-34,-553,0,-6,-4,-13,18,999,0:20:51
319,-22,-552,2,-3,-5,-15,16,999,0:20:51
319,-22,-552,2,-2,-6,-16,14,998,0:20:51
331,-25,-579,2,-1,-6,-16,16,997,0:20:51
327,-36,-574,3,-2,-5,-15,17,998,0:20:51
321,-49,-544,2,-2,-4,-15,16,1000,0:20:51
318,-21,-577,2,-3,-4,-15,16,1000,0:20:51
324,-30,-561,3,-4,-4,-15,14,1000,0:20:51
301,-34,-571,2,0,-5,-15,15,998,0:20:51
301,-34,-571,2,-2,-5,-13,15,998,0:20:51
313,-34,-559,2,-2,-5,-15,16,999,0:20:51
330,-28,-555,2,-2,-5,-16,17,998,0:20:51
327,-34,-571,2,-2,-5,-16,17,998,0:20:51
318,-27,-571,2,-2,-5,-16,14,999,0:20:51
312,-28,-549,2,-1,-5,-14,12,998,0:20:51
312,-28,-549,3,-1,-6,-14,14,997,0:20:51
337,-13,-564,4,-2,-6,-15,14,997,0:20:51
321,-31,-550,3,0,-5,-15,13,997,0:20:51
325,-42,-565,3,0,-6,-15,14,999,0:20:51
333,-30,-568,3,-2,-6,-15,14,1000,0:20:51
312,-33,-585,3,-2,-4,-15,15,999,0:20:51
316,-40,-552,3,1,-6,-14,16,998,0:20:51
316,-40,-552,2,0,-5,-15,16,999,0:20:51
327,-43,-573,2,-2,-4,-17,16,999,0:20:51
322,-54,-568,2,-2,-5,-18,16,999,0:20:51
321,-19,-559,2,-3,-6,-17,18,998,0:20:51
324,-28,-567,2,-2,-5,-17,18,998,0:20:51
315,-25,-573,2,-2,-5,-15,17,999,0:20:51
297,-18,-546,1,-3,-5,-16,16,1000,0:20:51
297,-18,-546,1,-3,-5,-17,16,999,0:20:51
292,-22,-561,3,-2,-6,-16,15,1000,0:20:51
328,-36,-567,3,-1,-6,-15,16,1001,0:20:51
321,-33,-580,3,-1,-6,-15,12,999,0:20:51
330,-22,-570,2,-1,-6,-15,14,999,0:20:51
331,-40,-567,3,-1,-6,-15,18,1000,0:20:51
309,-31,-564,3,0,-5,-14,17,999,0:20:51
319,-25,-568,3,0,-6,-13,16,999,0:20:51
319,-25,-568,2,-2,-6,-15,14,997,0:20:51
333,-19,-565,2,-2,-4,-16,15,996,0:20:51
321,-40,-564,2,-2,-4,-16,18,998,0:20:51
327,-48,-585,3,-1,-4,-15,17,999,0:20:51
336,-18,-562,2,-2,-4,-15,14,999,0:20:51
318,-24,-546,1,-1,-5,-12,15,998,0:20:51
322,-33,-574,2,-1,-6,-14,17,999,0:20:52
322,-33,-574,3,-1,-5,-14,15,1000,0:20:52
315,-19,-565,2,-1,-5,-13,16,999,0:20:52
321,-13,-553,2,-2,-6,-13,16,999,0:20:52
325,-25,-577,2,-2,-5,-13,16,999,0:20:52
334,-30,-561,2,-1,-6,-14,15,1001,0:20:52
309,-19,-544,2,-2,-6,-15,14,1000,0:20:52
313,-27,-558,2,-2,-6,-15,13,998,0:20:52
313,-27,-558,2,-3,-5,-14,14,997,0:20:52
318,-27,-568,2,-3,-4,-13,15,998,0:20:52
327,-37,-570,2,-2,-6,-15,15,998,0:20:52
327,-24,-576,2,-2,-5,-16,15,995,0:20:52
313,-36,-562,2,-1,-6,-14,15,997,0:20:52
319,-24,-583,1,-3,-6,-14,16,999,0:20:52
316,-45,-562,3,-2,-6,-15,16,998,0:20:52
316,-45,-562,3,-2,-6,-15,16,1000,0:20:52
334,-21,-585,2,-2,-6,-14,16,1001,0:20:52
306,-43,-573,2,-2,-4,-14,15,1001,0:20:52
327,-48,-568,2,0,-5,-15,15,1000,0:20:52
315,-31,-561,2,-2,-5,-15,15,999,0:20:52
313,-19,-574,4,0,-6,-17,16,1000,0:20:52
331,-24,-576,2,-1,-5,-18,15,1000,0:20:52
331,-24,-576,2,-2,-6,-18,15,1000,0:20:52
327,-40,-586,2,-1,-6,-14,15,1000,0:20:52
331,-28,-555,2,-1,-6,-14,14,1000,0:20:52
324,-27,-561,3,-2,-6,-16,17,999,0:20:52
331,-33,-556,2,-2,-5,-17,16,1000,0:20:52
309,-37,-562,2,-2,-5,-16,16,999,0:20:52
324,-30,-553,2,-2,-6,-14,18,997,0:20:52
324,-30,-553,3,-2,-4,-14,17,998,0:20:52
304,-40,-561,3,-1,-5,-16,15,1000,0:20:52
307,-15,-537,3,-2,-5,-15,17,1000,0:20:52
315,-28,-565,4,0,-5,-14,17,999,0:20:52
306,-28,-577,4,0,-5,-14,16,998,0:20:52
301,-36,-571,4,1,-7,-15,16,998,0:20:52
327,-21,-567,2,0,-6,-16,15,999,0:20:52
327,-21,-567,2,-2,-5,-16,14,999,0:20:52
319,-19,-567,2,-2,-6,-19,14,1000,0:20:52
325,-36,-570,2,-2,-5,-18,16,998,0:20:52
324,-36,-571,2,-2,-5,-15,17,997,0:20:52
319,-16,-562,4,0,-6,-14,15,1001,0:20:52
310,-21,-559,2,0,-5,-14,15,1001,0:20:52
310,-21,-559,1,0,-5,-16,17,1000,0:20:52
319,-31,-564,2,-1,-5,-16,19,998,0:20:52
307,-36,-568,3,-1,-6,-17,17,998,0:20:52
316,-19,-555,2,-1,-5,-17,17,998,0:20:52
313,-49,-561,2,-2,-5,-15,15,999,0:20:52
319,-30,-565,2,-2,-5,-14,15,999,0:20:52
300,-34,-552,2,-2,-5,-13,16,999,0:20:52
300,-34,-552,1,-2,-4,-12,14,998,0:20:52
313,-27,-568,2,-1,-5,-14,14,998,0:20:52
318,-25,-559,2,0,-5,-15,16,999,0:20:52
322,-34,-564,2,0,-4,-15,15,998,0:20:52
324,-37,-553,2,-1,-4,-14,16,997,0:20:52
322,-33,-561,2,-2,-5,-14,17,997,0:20:52
322,-33,-561,4,3,-6,-14,16,999,0:20:52
325,-25,-562,4,0,-5,-13,15,998,0:20:52
307,-15,-564,2,-2,-4,-13,15,998,0:20:52
319,-31,-549,2,-4,-4,-15,15,999,0:20:52
307,-30,-582,4,-2,-6,-16,15,999,0:20:52
322,-43,-556,4,-1,-5,-16,17,1000,0:20:52
307,-30,-574,2,-2,-5,-16,17,1000,0:20:52
307,-30,-574,2,4,-7,-15,17,999,0:20:52
319,-30,-558,2,0,-5,-15,16,999,0:20:52
334,-31,-559,2,-2,-4,-16,16,1000,0:20:52
318,-36,-570,2,-2,-6,-16,16,1001,0:20:52
307,-28,-558,2,-2,-6,-16,14,1001,0:20:52
325,-39,-558,2,-1,-6,-15,15,999,0:20:52
328,-30,-567,2,-2,-6,-16,18,999,0:20:52
328,-30,-567,3,-1,-6,-15,18,999,0:20:52
318,-21,-558,2,-1,-6,-15,17,1000,0:20:52
324,-15,-567,2,-1,-4,-16,16,1000,0:20:52
325,-28,-577,2,-3,-5,-17,17,998,0:20:52
336,-42,-565,2,-1,-5,-17,17,998,0:20:52
319,-36,-558,2,0,-5,-16,16,998,0:20:52
306,-24,-562,2,-1,-5,-14,14,996,0:20:52
306,-24,-562,0,-9,-4,-15,15,998,0:20:52
315,-33,-564,1,-3,-4,-15,18,1001,0:20:52
312,-30,-553,2,-2,-4,-15,18,999,0:20:52
330,-31,-559,2,-2,-6,-15,17,999,0:20:52
327,-31,-567,3,-1,-7,-15,16,1002,0:20:52
310,-37,-574,2,-1,-6,-15,16,1002,0:20:52
304,-33,-555,4,-1,-5,-16,17,1000,0:20:52
304,-33,-555,3,-3,-5,-16,16,999,0:20:52
327,-39,-546,3,-2,-5,-16,14,1000,0:20:52
319,-16,-571,2,-2,-5,-16,14,1000,0:20:52
306,-24,-562,2,-2,-5,-16,15,999,0:20:52
328,-22,-570,2,-2,-5,-16,14,999,0:20:52
331,-27,-565,2,-2,-5,-16,14,999,0:20:52
331,-27,-565,2,-3,-5,-15,15,1000,0:20:52
319,-42,-547,2,-7,-5,-15,15,999,0:20:52
325,-22,-562,2,-3,-4,-15,15,998,0:20:52
330,-36,-571,2,-3,-5,-14,17,999,0:20:52
324,-36,-562,2,-2,-6,-15,16,999,0:20:52
327,-31,-546,3,-2,-5,-15,16,998,0:20:52
312,-25,-597,3,-2,-5,-15,14,998,0:20:52
312,-25,-597,2,-2,-5,-14,13,999,0:20:52
313,-18,-555,0,-5,-4,-16,16,1001,0:20:52
313,-18,-555,3,-2,-4,-15,16,1002,0:20:52
324,-21,-565,3,-2,-5,-14,17,1002,0:20:52
312,-33,-592,3,0,-4,-15,17,1001,0:20:52
316,-42,-555,2,0,-4,-15,17,1001,0:20:52
331,-27,-570,3,-2,-5,-15,17,999,0:20:52
331,-27,-570,1,-1,-6,-15,17,999,0:20:52
322,-22,-556,1,0,-5,-16,17,1002,0:20:52
324,-34,-564,2,-1,-4,-16,17,1002,0:20:52
310,-22,-553,2,-1,-4,-15,15,999,0:20:52
307,-24,-573,2,-2,-5,-13,16,998,0:20:53
310,-31,-553,2,-2,-5,-12,15,999,0:20:53
310,-31,-553,2,-2,-5,-15,13,999,0:20:53
315,-39,-561,2,-2,-4,-16,16,998,0:20:53
313,-15,-556,3,-4,-4,-15,18,998,0:20:53
313,-15,-556,2,-2,-4,-15,19,999,0:20:53
325,-22,-561,2,0,-5,-16,18,999,0:20:53
337,-21,-562,2,-1,-4,-16,17,999,0:20:53
322,-42,-573,2,-1,-4,-15,19,1001,0:20:53
322,-42,-573,2,-1,-5,-14,17,1001,0:20:53
336,-31,-565,1,0,-5,-15,16,1000,0:20:53
322,-34,-564,2,-1,-7,-14,17,999,0:20:53
322,-30,-570,3,-2,-5,-14,16,999,0:20:53
309,-36,-576,3,-1,-5,-13,15,1000,0:20:53
312,-31,-558,2,0,-5,-13,15,1000,0:20:53
322,-18,-567,3,-1,-5,-13,17,998,0:20:53
322,-18,-567,2,-2,-5,-14,16,999,0:20:53
324,-28,-579,2,-2,-5,-13,15,1000,0:20:53
312,-25,-549,2,-2,-5,-14,15,1000,0:20:53
312,-25,-549,2,0,-7,-14,13,1000,0:20:53
312,-27,-564,2,-2,-7,-16,15,999,0:20:53
339,-28,-565,2,-3,-6,-16,17,999,0:20:53
336,-30,-571,2,-2,-6,-14,17,999,0:20:53
336,-30,-571,2,-1,-5,-12,17,998,0:20:53
309,-40,-574,3,-1,-4,-13,15,999,0:20:53
304,-48,-559,4,1,-7,-15,15,1000,0:20:53
307,-33,-568,3,0,-6,-16,15,999,0:20:53
328,-33,-555,2,-2,-5,-17,16,1001,0:20:53
307,-25,-573,2,-2,-5,-18,17,1001,0:20:53
307,-25,-573,2,-1,-5,-15,17,1001,0:20:53
319,-39,-582,3,-2,-6,-12,18,1002,0:20:53
313,-27,-561,3,-2,-5,-13,17,1000,0:20:53
307,-42,-546,2,-6,-4,-15,16,998,0:20:53
322,-18,-568,2,-3,-5,-15,15,998,0:20:53
328,-27,-571,2,-1,-6,-15,15,998,0:20:53
343,-49,-552,2,-1,-6,-17,15,999,0:20:53
343,-49,-552,4,-2,-5,-16,17,1000,0:20:53
309,-28,-564,2,-1,-5,-14,17,999,0:20:53
306,-28,-567,2,-1,-5,-16,17,999,0:20:53
297,-42,-561,2,-1,-6,-15,18,1001,0:20:53
297,-42,-561,2,0,-5,-14,17,1000,0:20:53
306,-36,-547,2,0,-5,-16,17,999,0:20:53
336,-16,-568,2,-2,-5,-15,16,1000,0:20:53
336,-16,-568,2,-2,-4,-15,18,1000,0:20:53
315,-39,-564,2,-2,-5,-15,17,998,0:20:53
328,-19,-577,2,-2,-5,-13,16,999,0:20:53
324,-27,-579,1,-5,-4,-14,16,1000,0:20:53
307,-31,-565,1,-2,-5,-14,17,1000,0:20:53
337,-30,-561,2,-1,-6,-14,19,1000,0:20:53
315,-28,-582,2,-2,-7,-13,17,1000,0:20:53
315,-28,-582,2,-2,-6,-14,17,1000,0:20:53
333,-33,-555,2,-1,-6,-15,18,999,0:20:53
322,-19,-580,3,-1,-7,-16,17,999,0:20:53
301,-21,-561,3,-3,-4,-16,17,999,0:20:53
313,-30,-559,3,-3,-5,-16,16,1000,0:20:53
322,-33,-549,2,-1,-6,-16,16,1001,0:20:53
331,-28,-561,2,-1,-6,-18,16,999,0:20:53
331,-28,-561,2,-1,-6,-15,17,998,0:20:53
331,-33,-558,2,-2,-5,-12,17,1000,0:20:53
333,-21,-562,2,-1,-5,-12,16,1001,0:20:53
312,-34,-573,2,-2,-5,-15,17,999,0:20:53
318,-33,-556,0,-2,-5,-15,16,996,0:20:53
313,-36,-558,1,-2,-5,-15,16,997,0:20:53
316,-22,-559,2,-3,-4,-16,17,998,0:20:53
316,-22,-559,2,-2,-4,-16,17,998,0:20:53
321,-30,-567,1,-2,-5,-16,17,998,0:20:53
318,-21,-570,2,-1,-5,-16,18,997,0:20:53
312,-27,-546,1,-1,-5,-14,18,998,0:20:53
331,-27,-591,2,-2,-4,-13,16,998,0:20:53
318,-30,-567,2,-3,-4,-15,17,997,0:20:53
322,-46,-568,2,-2,-5,-14,18,996,0:20:53
322,-46,-568,2,-1,-6,-14,17,997,0:20:53
318,-31,-573,2,-2,-4,-14,15,998,0:20:53
324,-21,-565,2,-2,-5,-14,15,998,0:20:53
315,-34,-564,1,-5,-5,-16,16,998,0:20:53
339,-13,-570,2,-2,-4,-17,16,998,0:20:53
333,-16,-576,2,-1,-5,-15,16,1001,0:20:53
316,-18,-565,2,-1,-5,-14,18,1000,0:20:53
316,-18,-565,3,0,-6,-15,19,998,0:20:53
337,-34,-577,3,0,-4,-16,17,998,0:20:53
330,-33,-562,3,-1,-6,-14,15,998,0:20:53
316,-36,-541,2,-2,-6,-15,17,999,0:20:53
307,-25,-573,2,-2,-5,-17,16,998,0:20:53
310,-28,-564,2,0,-5,-14,16,999,0:20:53
330,-21,-564,2,0,-5,-12,16,999,0:20:53
330,-21,-564,2,-1,-5,-13,15,1000,0:20:53
331,-34,-570,3,-1,-6,-15,16,1000,0:20:53
321,-30,-561,3,0,-6,-17,16,998,0:20:53
324,-40,-579,5,0,-6,-14,17,998,0:20:53
322,-40,-573,4,-2,-5,-15,19,1001,0:20:53
310,-30,-582,2,-2,-6,-17,16,1002,0:20:53
321,-40,-570,2,-2,-6,-16,14,1001,0:20:53
321,-40,-570,3,-2,-5,-13,17,1000,0:20:53
319,-42,-550,2,-1,-5,-13,17,1000,0:20:53
324,0,-562,2,-1,-6,-13,15,1002,0:20:53
318,-25,-543,2,-4,-4,-13,13,1002,0:20:53
318,-36,-547,2,-2,-6,-13,16,1000,0:20:53
319,-34,-538,2,-2,-6,-14,16,1000,0:20:53
319,-31,-571,3,0,-7,-14,17,1000,0:20:53
319,-31,-571,2,-2,-5,-14,17,999,0:20:53
330,-36,-555,2,-2,-6,-16,15,997,0:20:53
325,-27,-579,2,-2,-6,-17,14,997,0:20:53
316,-21,-574,2,-1,-6,-15,17,999,0:20:53
312,-31,-555,3,-1,-6,-14,18,997,0:20:53
321,-42,-553,3,0,-7,-16,16,997,0:20:53
322,-31,-571,2,-2,-5,-16,15,1000,0:20:53
322,-31,-571,2,-2,-5,-16,15,1001,0:20:54
330,-9,-567,2,-2,-5,-15,15,999,0:20:54
310,-22,-573,1,-2,-5,-14,17,999,0:20:54
324,-36,-544,0,-7,-4,-15,19,1000,0:20:54
334,-49,-571,2,-2,-5,-14,16,1000,0:20:54
334,-24,-583,2,-1,-5,-14,16,1000,0:20:54
312,-36,-562,2,-2,-6,-14,15,999,0:20:54
312,-36,-562,2,-1,-4,-15,16,998,0:20:54
321,-18,-579,3,-3,-5,-15,15,1000,0:20:54
331,-25,-558,3,-2,-5,-17,16,1000,0:20:54
289,-39,-540,3,-2,-5,-17,19,997,0:20:54
289,-39,-540,1,-9,-4,-15,17,999,0:20:54
312,-30,-571,2,-4,-4,-14,15,1000,0:20:54
333,-42,-559,2,-2,-5,-15,16,998,0:20:54
333,-42,-559,2,-3,-4,-17,18,999,0:20:54
322,-34,-565,2,-2,-5,-16,17,1000,0:20:54
316,-28,-558,2,-2,-5,-16,16,1000,0:20:54
316,-43,-568,2,2,-4,-16,18,998,0:20:54
309,-24,-552,2,0,-4,-15,18,998,0:20:54
330,-33,-552,2,-2,-5,-15,16,999,0:20:54
330,-33,-552,3,-2,-6,-13,16,999,0:20:54
312,-24,-568,3,-1,-6,-14,16,1000,0:20:54
312,-19,-546,3,-2,-4,-15,14,998,0:20:54
322,-39,-538,3,-2,-6,-15,13,999,0:20:54
301,-30,-553,3,-5,-4,-16,13,1001,0:20:54
310,-31,-562,4,-3,-5,-16,13,1001,0:20:54
316,-42,-562,4,-2,-5,-15,14,999,0:20:54
316,-42,-562,2,-1,-7,-16,17,999,0:20:54
327,-31,-585,2,-1,-7,-17,16,999,0:20:54
324,-24,-571,3,-2,-5,-17,16,998,0:20:54
330,-36,-574,4,-1,-5,-15,16,998,0:20:54
307,-34,-565,4,-1,-5,-14,16,998,0:20:54
319,-15,-571,3,-2,-5,-15,19,998,0:20:54
316,-19,-547,2,-1,-5,-16,18,999,0:20:54
316,-19,-547,2,-2,-4,-13,16,1000,0:20:54
319,-36,-550,2,-1,-5,-15,16,1000,0:20:54
321,-25,-574,2,-2,-4,-14,16,999,0:20:54
321,-42,-559,3,-2,-5,-14,15,998,0:20:54
307,-28,-556,4,-4,-5,-15,15,1000,0:20:54
321,-27,-585,4,-3,-6,-15,16,1000,0:20:54
322,-28,-574,2,0,-5,-17,15,999,0:20:54
322,-28,-574,3,-2,-4,-16,15,998,0:20:54
300,-15,-562,2,-4,-5,-15,15,998,0:20:54
327,-46,-579,2,-1,-5,-14,13,999,0:20:54
321,-36,-567,3,0,-5,-12,15,1000,0:20:54
321,-34,-552,4,-2,-6,-15,16,1001,0:20:54
313,-37,-565,4,-2,-6,-15,16,1001,0:20:54
324,-33,-568,3,-3,-5,-17,16,1000,0:20:54
324,-33,-568,2,-2,-5,-15,15,997,0:20:54
315,-36,-573,2,-2,-5,-14,13,997,0:20:54
298,-31,-544,2,-2,-5,-16,14,998,0:20:54
327,-19,-567,2,-3,-5,-16,16,998,0:20:54
303,-22,-564,3,0,-6,-16,17,999,0:20:54
322,-36,-561,4,-2,-5,-17,16,999,0:20:54
322,-36,-561,3,-2,-5,-15,17,998,0:20:54
319,-36,-576,3,-2,-6,-14,17,998,0:20:54
324,-30,-558,3,0,-5,-14,15,997,0:20:54
321,-24,-573,3,-1,-4,-14,14,998,0:20:54
319,-43,-553,3,-1,-5,-14,15,1000,0:20:54
303,-22,-550,4,2,-6,-13,15,998,0:20:54
312,-43,-567,4,0,-6,-12,16,999,0:20:54
312,-43,-567,3,0,-6,-12,18,1000,0:20:54
321,-36,-562,2,-2,-5,-15,18,1001,0:20:54
306,-40,-577,2,-1,-6,-14,17,1000,0:20:54
316,-27,-555,3,-1,-5,-14,17,999,0:20:54
324,-31,-571,4,-3,-5,-14,17,999,0:20:54
310,-43,-564,2,0,-6,-15,15,998,0:20:54
310,-43,-564,2,-2,-4,-12,13,1001,0:20:54
330,-19,-583,3,-2,-4,-13,15,1002,0:20:54
325,-18,-562,2,-2,-4,-16,15,999,0:20:54
303,-9,-570,2,-2,-4,-14,15,999,0:20:54
333,-39,-564,3,-2,-5,-15,16,1000,0:20:54
327,-28,-567,2,0,-7,-16,17,999,0:20:54
322,-39,-568,2,0,-6,-16,17,998,0:20:54
322,-39,-568,3,-2,-5,-15,15,1000,0:20:54
324,-30,-564,2,-2,-5,-15,15,1000,0:20:54
336,-18,-570,2,-2,-5,-12,17,999,0:20:54
319,-48,-574,2,-2,-5,-13,17,1000,0:20:54
316,-36,-568,2,-2,-5,-17,15,1000,0:20:54
313,-31,-571,2,-2,-6,-15,15,999,0:20:54
330,-27,-564,1,-2,-4,-14,16,999,0:20:54
330,-27,-564,2,-1,-6,-15,17,1000,0:20:54
337,-36,-571,3,-1,-6,-15,17,999,0:20:54
328,-36,-564,2,-2,-6,-14,16,997,0:20:54
324,-21,-558,3,-2,-5,-14,16,998,0:20:54
315,-34,-570,2,-2,-5,-14,16,998,0:20:54
322,-39,-562,2,-2,-4,-15,16,997,0:20:54
322,-39,-562,1,-2,-4,-15,16,998,0:20:54
307,-36,-546,2,-1,-4,-14,16,1000,0:20:54
309,-39,-567,3,-2,-5,-15,17,999,0:20:54
313,-25,-579,3,-2,-5,-15,18,999,0:20:54
325,-22,-562,3,-1,-6,-16,18,999,0:20:54
324,-33,-568,2,-2,-5,-13,18,1000,0:20:54
327,-16,-565,3,0,-5,-11,17,1001,0:20:54
327,-16,-565,3,-2,-5,-14,17,1000,0:20:54
334,-25,-564,3,-2,-6,-16,17,996,0:20:54
306,-21,-561,2,-2,-4,-16,15,998,0:20:54
339,-43,-576,0,-1,-5,-16,14,998,0:20:54
325,-40,-558,1,-2,-4,-16,14,998,0:20:54
328,-42,-571,3,-2,-5,-15,15,999,0:20:54
334,-19,-580,2,-2,-6,-14,17,1000,0:20:54
334,-19,-580,0,-7,-4,-14,17,1000,0:20:54
324,-22,-550,2,-2,-6,-15,17,999,0:20:54
312,-39,-589,3,-1,-5,-15,16,1000,0:20:54
318,-33,-574,2,-2,-4,-14,16,1000,0:20:54
330,-39,-589,2,-2,-5,-14,16,1000,0:20:54
318,-46,-579,2,-3,-5,-15,17,999,0:20:54
324,-45,-553,3,-2,-6,-17,15,999,0:20:55
310,-21,-550,3,-2,-6,-15,14,998,0:20:55
333,-25,-558,3,-2,-6,-17,13,999,0:20:55
331,-24,-556,2,-1,-5,-17,15,1000,0:20:55
309,-37,-577,2,-1,-5,-17,16,999,0:20:55
321,-27,-570,2,-2,-5,-17,16,1000,0:20:55
309,-21,-573,1,-2,-5,-15,15,999,0:20:55
309,-21,-573,2,-2,-5,-15,14,998,0:20:55
315,-34,-568,4,-2,-5,-17,15,999,0:20:55
315,-34,-568,3,-2,-6,-16,15,999,0:20:55
336,-13,-558,2,-2,-4,-14,14,998,0:20:55
303,-28,-579,2,-2,-5,-15,15,999,0:20:55
319,-33,-553,3,-2,-5,-16,15,999,0:20:55
324,-33,-565,2,-1,-4,-17,14,998,0:20:55
324,-33,-565,2,-2,-4,-16,14,999,0:20:55
325,-30,-573,4,-4,-6,-15,14,998,0:20:55
337,-24,-565,3,-3,-5,-12,14,1000,0:20:55
319,-37,-574,2,-2,-5,-12,14,1000,0:20:55
321,-22,-565,2,-2,-5,-12,14,1001,0:20:55
333,-34,-549,2,-3,-5,-13,15,999,0:20:55
319,-37,-574,2,-3,-5,-12,17,998,0:20:55
319,-37,-574,3,-2,-6,-12,17,999,0:20:55
318,-25,-564,4,-2,-5,-15,15,1002,0:20:55
318,-25,-564,2,-3,-5,-16,15,1000,0:20:55
319,-31,-568,4,-2,-5,-15,15,999,0:20:55
313,-34,-580,3,-2,-4,-13,15,1000,0:20:55
328,-39,-579,3,0,-5,-14,15,1000,0:20:55
336,-42,-577,4,0,-6,-14,16,1000,0:20:55
336,-42,-577,3,-1,-5,-13,15,1000,0:20:55
309,-28,-574,8,-2,-5,-15,16,999,0:20:55
303,-39,-556,4,-2,-6,-14,17,1000,0:20:55
310,-30,-561,2,-2,-5,-14,15,999,0:20:55
319,-27,-562,2,-1,-5,-17,14,996,0:20:55
336,-30,-564,3,0,-5,-17,15,999,0:20:55
327,-24,-546,2,-1,-5,-13,14,1000,0:20:55
327,-24,-546,2,-2,-5,-15,15,998,0:20:55
307,-34,-546,3,-6,-4,-15,15,998,0:20:55
307,-34,-546,3,-2,-6,-17,17,1000,0:20:55
318,-31,-574,2,0,-6,-15,19,1001,0:20:55
313,-25,-553,2,-1,-5,-15,17,1001,0:20:55
324,-13,-561,3,-1,-5,-15,16,1000,0:20:55
325,-28,-564,3,-1,-5,-14,14,999,0:20:55
325,-28,-564,2,0,-6,-15,15,998,0:20:55
313,-30,-561,2,0,-5,-15,16,1001,0:20:55
307,-39,-556,2,-1,-5,-15,14,1002,0:20:55
337,-43,-561,2,-2,-6,-17,16,1000,0:20:55
324,-25,-574,2,-1,-5,-16,17,998,0:20:55
306,-27,-571,2,-2,-6,-15,17,998,0:20:55
334,-25,-564,2,-1,-5,-14,15,1000,0:20:55
334,-25,-564,4,-1,-5,-16,13,1000,0:20:55
306,-25,-555,4,-2,-5,-15,15,1001,0:20:55
316,-34,-555,2,-2,-5,-14,16,1002,0:20:55
318,-39,-546,2,-2,-4,-14,17,1001,0:20:55
330,-31,-571,3,-4,-5,-16,16,1000,0:20:55
315,-36,-564,2,-2,-5,-17,16,1000,0:20:55
315,-36,-564,3,-2,-6,-17,16,1000,0:20:55
304,-39,-562,2,-2,-5,-15,16,1000,0:20:55
303,-31,-549,1,-6,-4,-15,16,1001,0:20:55
303,-31,-549,1,-3,-5,-16,17,1000,0:20:55
319,-31,-568,2,-2,-6,-16,16,998,0:20:55
313,-28,-553,2,-2,-6,-15,16,998,0:20:55
336,-25,-540,3,-1,-5,-15,15,999,0:20:55
336,-25,-540,4,-1,-5,-14,16,1000,0:20:55
318,-42,-573,2,-3,-6,-14,17,999,0:20:55
336,-39,-558,2,-2,-5,-14,16,999,0:20:55
319,-31,-567,3,-2,-6,-13,15,999,0:20:55
331,-39,-564,2,-1,-6,-14,14,998,0:20:55
330,-43,-550,3,-1,-5,-14,13,998,0:20:55
313,-31,-552,2,-2,-4,-13,14,998,0:20:55
313,-31,-552,2,-2,-5,-15,16,999,0:20:55
322,-34,-550,2,-4,-5,-14,17,1000,0:20:55
306,-30,-547,3,3,-7,-13,16,999,0:20:55
306,-30,-547,2,0,-5,-14,14,998,0:20:55
324,-42,-561,2,0,-5,-15,16,998,0:20:55
324,-40,-562,3,-1,-6,-15,16,998,0:20:55
327,-21,-561,2,-1,-6,-15,16,999,0:20:55
327,-21,-561,2,-2,-4,-15,14,999,0:20:55
321,-12,-565,2,0,-5,-12,15,999,0:20:55
327,-40,-564,3,0,-5,-13,16,999,0:20:55
328,-40,-561,3,0,-5,-17,16,999,0:20:55
330,-22,-562,3,-2,-5,-16,15,999,0:20:55
322,-37,-568,1,-2,-6,-14,15,999,0:20:55
339,-30,-550,2,-2,-6,-13,16,999,0:20:55
339,-30,-550,2,-2,-6,-13,17,999,0:20:55
337,-24,-559,2,-2,-5,-14,17,999,0:20:55
328,-12,-552,3,-1,-5,-14,15,998,0:20:55
328,-12,-552,1,0,-6,-15,14,998,0:20:55
309,-25,-556,1,-1,-6,-17,15,998,0:20:55
322,-19,-565,2,-1,-5,-15,17,997,0:20:55
321,-31,-574,2,-1,-6,-14,16,998,0:20:55
303,-27,-564,2,-2,-6,-15,17,996,0:20:55
303,-27,-564,3,-2,-6,-14,18,996,0:20:55
316,-39,-562,2,0,-6,-16,17,999,0:20:55
318,-36,-562,4,0,-6,-16,16,999,0:20:55
324,-28,-556,3,0,-6,-18,14,998,0:20:55
313,-24,-564,2,-2,-5,-18,14,998,0:20:55
327,-31,-583,3,-2,-5,-18,14,998,0:20:55
334,-27,-562,3,-2,-5,-16,14,1000,0:20:55
334,-27,-562,3,-2,-5,-17,14,1000,0:20:55
319,-16,-546,2,-2,-5,-16,15,999,0:20:55
319,-16,-546,3,-2,-5,-15,16,999,0:20:55
339,-16,-567,2,-2,-4,-14,18,999,0:20:55
345,-18,-564,2,-3,-4,-14,15,998,0:20:55
334,-31,-550,2,-1,-4,-15,15,998,0:20:55
334,-31,-550,3,0,-6,-15,15,1000,0:20:55
309,-37,-574,2,0,-4,-15,14,998,0:20:56
304,-45,-574,2,-6,-4,-16,15,997,0:20:56
304,-45,-574,4,-3,-5,-16,17,998,0:20:56
327,-12,-564,2,-2,-6,-13,18,1000,0:20:56
330,-39,-565,2,-1,-6,-14,15,1000,0:20:56
324,-21,-558,2,-1,-6,-15,13,999,0:20:56
318,-21,-543,2,-2,-5,-12,16,1000,0:20:56
318,-21,-543,4,-1,-7,-13,16,1000,0:20:56
295,-33,-540,1,-2,-5,-14,13,1000,0:20:56
295,-33,-540,2,-2,-5,-14,13,1000,0:20:56
312,-13,-562,2,-2,-6,-15,15,999,0:20:56
319,-22,-553,2,-2,-5,-15,18,998,0:20:56
328,-27,-576,3,-3,-4,-14,17,998,0:20:56
328,-27,-576,3,-3,-4,-14,15,997,0:20:56
319,-34,-568,2,-2,-4,-14,15,999,0:20:56
318,-39,-561,2,-2,-5,-15,17,1000,0:20:56
318,-39,-561,3,-2,-4,-16,16,997,0:20:56
327,-30,-562,2,-2,-5,-18,16,995,0:20:56
312,-27,-579,2,-1,-7,-16,18,997,0:20:56
330,-31,-565,2,-2,-5,-13,16,999,0:20:56
330,-31,-565,2,-2,-5,-16,15,1000,0:20:56
298,-12,-555,2,-2,-6,-20,16,999,0:20:56
313,-33,-534,2,-4,-6,-16,14,998,0:20:56
319,-15,-552,2,-2,-6,-13,13,997,0:20:56
327,-18,-567,3,-1,-5,-15,15,998,0:20:56
334,-33,-559,2,-1,-4,-16,16,999,0:20:56
327,-24,-565,2,-2,-5,-18,17,999,0:20:56
327,-24,-565,2,-2,-5,-18,16,998,0:20:56
315,-10,-546,3,-4,-5,-13,15,999,0:20:56
333,-12,-546,1,-8,-4,-12,16,999,0:20:56
333,-12,-546,2,-3,-5,-12,16,999,0:20:56
316,-10,-550,3,-2,-5,-14,16,1000,0:20:56
313,-34,-529,2,-2,-4,-16,15,1003,0:20:56
319,-21,-559,2,-2,-4,-16,15,1001,0:20:56
319,-21,-559,3,-2,-5,-15,15,998,0:20:56
316,-3,-519,2,-2,-6,-16,14,1000,0:20:56
322,-9,-552,2,-4,-5,-18,16,1001,0:20:56
313,-7,-531,3,-2,-6,-16,16,1000,0:20:56
310,-9,-507,2,-1,-6,-15,14,997,0:20:56
303,-12,-522,2,-2,-5,-16,13,997,0:20:56
316,-19,-525,2,-4,-5,-16,14,999,0:20:56
316,-19,-525,2,-2,-5,-14,14,1001,0:20:56
322,-22,-514,2,-1,-4,-15,16,999,0:20:56
298,-4,-502,1,-4,-5,-19,17,996,0:20:56
298,-4,-502,3,-4,-4,-17,14,997,0:20:56
306,-28,-510,4,-1,-5,-14,12,998,0:20:56
325,-30,-507,2,-1,-5,-17,16,999,0:20:56
321,-21,-526,3,-2,-5,-17,16,1000,0:20:56
321,-21,-526,3,-1,-6,-16,15,1000,0:20:56
307,-34,-505,3,-1,-6,-16,15,1000,0:20:56
303,-31,-505,4,-5,-5,-14,15,998,0:20:56
316,-24,-514,2,-4,-4,-13,16,996,0:20:56
304,-43,-505,1,-1,-4,-14,16,998,0:20:56
309,-36,-526,1,-1,-4,-17,15,999,0:20:56
309,-36,-526,2,0,-5,-16,17,996,0:20:56
321,-42,-523,2,-2,-5,-15,18,998,0:20:56
327,-42,-508,2,-1,-5,-16,18,1000,0:20:56
303,-46,-531,3,-2,-5,-15,16,1000,0:20:56
303,-46,-531,2,-2,-6,-15,16,999,0:20:56
324,-36,-544,3,-2,-6,-13,15,998,0:20:56
312,-51,-555,2,-2,-5,-13,13,997,0:20:56
322,-64,-555,3,-2,-4,-13,15,998,0:20:56
325,-55,-556,2,-2,-4,-12,15,1000,0:20:56
325,-55,-556,2,-2,-5,-11,16,1000,0:20:56
325,-70,-547,3,-5,-4,-11,17,999,0:20:56
310,-49,-565,2,-3,-5,-11,15,998,0:20:56
319,-45,-550,3,0,-5,-14,14,1000,0:20:56
328,-52,-579,2,-2,-5,-16,16,1002,0:20:56
324,-37,-561,2,-1,-6,-16,16,1002,0:20:56
324,-19,-573,2,-2,-5,-17,17,1001,0:20:56
324,-19,-573,2,-2,-5,-16,17,998,0:20:56
325,-52,-561,2,-3,-4,-15,18,999,0:20:56
325,-52,-561,2,-3,-6,-16,15,1000,0:20:56
333,-42,-564,2,-3,-6,-16,14,1000,0:20:56
319,-36,-576,1,-2,-5,-14,16,1000,0:20:56
312,-16,-564,2,-1,-5,-14,16,999,0:20:56
312,-16,-564,3,-2,-5,-14,14,1000,0:20:56
321,-28,-580,4,-1,-5,-14,15,1001,0:20:56
319,-36,-553,3,-5,-4,-17,17,999,0:20:56
319,-36,-553,2,-5,-4,-16,15,998,0:20:56
315,-39,-567,2,-2,-5,-14,15,998,0:20:56
315,-24,-574,3,-2,-6,-14,18,1000,0:20:56
313,-6,-567,3,-2,-5,-14,17,1001,0:20:56
313,-6,-567,2,0,-5,-15,15,999,0:20:56
315,-25,-565,2,-1,-4,-14,17,999,0:20:56
321,-37,-553,1,-6,-4,-15,18,1000,0:20:56
315,-19,-576,3,-4,-5,-17,17,1000,0:20:56
319,-42,-570,2,-2,-7,-17,17,999,0:20:56
330,-24,-562,3,-1,-7,-17,17,999,0:20:56
316,-24,-558,3,-1,-5,-15,14,999,0:20:56
316,-24,-558,2,-1,-6,-14,13,1000,0:20:56
339,-10,-561,2,-2,-5,-14,15,999,0:20:56
322,-42,-561,2,-3,-5,-13,17,997,0:20:56
322,-42,-561,2,-3,-5,-16,19,999,0:20:56
331,-24,-567,2,-1,-6,-16,17,1001,0:20:56
334,-18,-552,3,-2,-6,-14,15,1000,0:20:56
316,-21,-562,2,-2,-6,-18,12,946,0:20:56
316,-21,-562,8,-14,-11,-8,-9,988,0:20:56
307,-16,-558,9,0,-10,-6,1,1127,0:20:56
304,-34,-556,-5,14,0,-26,45,1017,0:20:56
310,-33,-582,2,-12,-5,-15,17,926,0:20:56
310,-25,-556,7,-6,-9,-6,-2,1007,0:20:56
312,-27,-582,0,5,-4,-22,27,999,0:20:56
325,-10,-561,1,-2,-4,-20,24,976,0:20:56
315,-36,-573,3,-7,-6,-13,13,984,0:20:56
315,-36,-573,4,-5,-7,-11,8,1006,0:20:56
309,-12,-561,4,0,-7,-14,11,1019,0:20:56
309,-12,-561,2,0,-4,-19,14,964,0:20:57
298,-46,-562,0,-15,-4,-19,14,964,0:20:57
322,-18,-568,18,-9,-13,-10,0,939,0:20:57
319,-18,-568,0,15,-1,-4,-7,1110,0:20:57
313,-13,-571,-2,-3,-5,-24,32,1073,0:20:57
313,-13,-571,-2,-3,-5,-24,37,919,0:20:57
315,-25,-574,0,-10,-7,-8,13,962,0:20:57
334,-33,-558,1,-4,-5,-13,17,982,0:20:57
310,-27,-574,2,-5,-4,-15,13,993,0:20:57
316,-36,-562,2,-3,-6,-13,15,993,0:20:57
318,-10,-552,2,-4,-6,-13,17,996,0:20:57
313,-45,-549,2,0,-7,-15,19,996,0:20:57
313,-45,-549,2,0,-5,-17,22,990,0:20:57
304,-31,-549,0,-4,-6,-15,16,997,0:20:57
304,-31,-549,2,-2,-6,-14,14,1006,0:20:57
312,-36,-568,3,-1,-5,-16,15,1003,0:20:57
318,-36,-543,2,-1,-5,-17,15,997,0:20:57
322,-30,-571,2,-2,-5,-18,15,999,0:20:57
321,-34,-556,2,-2,-5,-16,16,1001,0:20:57
321,-34,-556,2,0,-5,-15,20,994,0:20:57
309,-27,-555,6,0,-7,-14,18,996,0:20:57
321,-34,-546,4,-2,-6,-14,18,996,0:20:57
321,-31,-574,2,-1,-5,-13,13,1007,0:20:57
324,-12,-565,2,0,-4,-12,15,1009,0:20:57
300,-24,-547,1,-2,-5,-15,17,1003,0:20:57
309,-37,-574,1,-2,-5,-16,17,994,0:20:57
309,-37,-574,2,-3,-6,-14,15,997,0:20:57
318,-30,-549,3,-1,-7,-14,12,1005,0:20:57
318,-30,-549,3,0,-4,-17,17,1000,0:20:57
294,-27,-571,3,-1,-6,-16,17,996,0:20:57
324,-25,-568,3,0,-7,-16,18,996,0:20:57
304,-22,-550,2,-1,-6,-14,19,991,0:20:57
334,-28,-553,4,-2,-7,-13,16,998,0:20:57
334,-28,-553,3,-2,-6,-16,16,1005,0:20:57
315,-36,-561,3,-8,-4,-17,17,1000,0:20:57
319,-34,-544,2,-4,-4,-15,17,999,0:20:57
306,-39,-567,2,-1,-6,-13,17,997,0:20:57
315,-39,-562,2,-2,-6,-12,17,1000,0:20:57
313,-36,-582,3,-3,-5,-14,19,1003,0:20:57
313,-36,-582,4,-2,-6,-14,17,1001,0:20:57
328,-30,-558,0,-14,1,-14,17,1001,0:20:57
313,-34,-553,14,-7,-6,-8,7,1022,0:20:57
319,-39,-561,5,9,-5,-5,-5,1092,0:20:57
327,-28,-561,4,7,-10,-17,3,1072,0:20:57
304,-15,-564,2,0,-8,-18,14,1011,0:20:57
327,-37,-562,2,0,-8,-13,18,1011,0:20:57
327,-37,-562,2,-2,-2,-19,26,996,0:20:57
306,-46,-573,3,-2,-4,-20,17,992,0:20:57
306,-46,-573,0,-2,-6,-16,11,978,0:20:57
324,-30,-558,2,-2,-4,-13,17,982,0:20:57
319,-30,-567,3,-2,-4,-15,17,1002,0:20:57
324,-37,-552,3,-2,-4,-15,14,998,0:20:57
303,-45,-568,4,-4,-5,-14,13,1000,0:20:57
321,-40,-564,2,0,-6,-16,14,1001,0:20:57
321,-40,-564,2,-1,-5,-16,17,993,0:20:57
301,-39,-547,2,-4,-4,-13,15,997,0:20:57
327,-37,-561,2,-2,-4,-14,12,1005,0:20:57
312,-31,-558,3,-2,-6,-14,14,1000,0:20:57
334,-46,-561,2,-2,-5,-14,17,999,0:20:57
318,-6,-567,2,-2,-4,-15,16,1002,0:20:57
318,-6,-567,2,0,-4,-15,16,1002,0:20:57
321,-34,-558,2,-2,-5,-17,14,1000,0:20:57
303,-30,-550,2,2,-7,-16,16,997,0:20:57
303,-30,-550,4,0,-5,-14,19,998,0:20:57
313,-19,-565,4,-3,-5,-14,20,1000,0:20:57
325,-42,-568,4,-3,-5,-14,16,1002,0:20:57
313,-46,-568,2,-1,-6,-16,13,1000,0:20:57
313,-46,-568,2,0,-6,-17,14,1000,0:20:57
295,-37,-577,3,-2,-4,-16,15,1000,0:20:57
319,-13,-559,2,-2,-5,-14,15,998,0:20:57
325,-42,-550,2,-2,-5,-13,17,998,0:20:57
325,-18,-565,2,-3,-6,-15,18,998,0:20:57
318,-33,-571,3,-2,-5,-14,17,998,0:20:57
333,-25,-564,3,-1,-5,-12,17,998,0:20:57
333,-25,-564,2,-2,-4,-13,17,999,0:20:57
334,-34,-573,2,-1,-5,-15,16,998,0:20:57
295,-21,-556,0,-2,-5,-14,15,1000,0:20:57
295,-21,-556,2,-2,-5,-13,16,1000,0:20:57
324,-37,-577,4,-2,-4,-15,18,999,0:20:57
324,-27,-570,3,-2,-4,-15,18,999,0:20:57
319,-34,-553,2,-1,-5,-17,17,999,0:20:57
319,-34,-553,2,-1,-4,-15,15,1000,0:20:57
310,-22,-553,2,-1,-4,-12,16,1000,0:20:57
312,-28,-577,2,-1,-4,-13,18,999,0:20:57
321,-39,-559,1,-7,-4,-14,18,1000,0:20:57
306,-24,-564,2,-4,-5,-15,17,999,0:20:57
298,-28,-555,2,-2,-5,-14,16,1001,0:20:57
322,-33,-571,2,-2,-5,-15,16,1000,0:20:57
300,-42,-558,2,-2,-5,-17,15,997,0:20:57
300,-42,-558,2,-2,-6,-18,15,998,0:20:57
319,-28,-550,4,-2,-7,-16,15,997,0:20:57
319,-28,-550,2,-1,-7,-16,15,997,0:20:57
318,-21,-562,4,0,-6,-16,14,998,0:20:57
315,-43,-564,3,-3,-5,-15,14,998,0:20:57
325,-36,-576,4,-3,-5,-15,15,998,0:20:57
324,-22,-561,2,-2,-5,-16,17,999,0:20:57
324,-22,-561,3,-2,-5,-16,18,1000,0:20:57
319,-39,-573,4,0,-7,-15,18,1000,0:20:57
322,-19,-552,3,-2,-5,-16,17,1001,0:20:57
318,-30,-570,3,-2,-5,-15,16,1000,0:20:57
331,-36,-540,2,-3,-5,-15,16,1000,0:20:57
319,-33,-550,3,-2,-5,-13,17,998,0:20:57
319,-33,-550,4,-2,-5,-15,17,1000,0:20:57
337,-30,-558,2,-1,-5,-16,16,1002,0:20:57
315,-22,-550,2,-1,-5,-15,16,1000,0:20:57
315,-22,-550,2,-4,-4,-15,16,998,0:20:57
301,-36,-564,3,-2,-5,-15,16,1000,0:20:58
328,-22,-577,3,-1,-4,-15,17,999,0:20:58
331,-21,-567,2,-2,-5,-13,15,999,0:20:58
300,-24,-571,2,-1,-5,-13,15,1000,0:20:58
300,-24,-571,2,-1,-4,-15,17,1000,0:20:58
316,-27,-562,5,0,-6,-15,16,1002,0:20:58
316,-27,-562,4,-2,-5,-17,17,1002,0:20:58
306,-42,-564,1,-4,-4,-15,17,1000,0:20:58
318,-30,-573,2,-4,-5,-15,16,1001,0:20:58
315,-31,-583,3,-2,-5,-15,18,1001,0:20:58
315,-31,-583,2,-2,-6,-15,17,999,0:20:58
313,-30,-564,2,-2,-5,-14,16,999,0:20:58
309,-31,-558,2,-5,-4,-14,16,999,0:20:58
313,-39,-592,2,-2,-4,-15,17,999,0:20:58
330,-37,-558,3,-1,-4,-15,18,999,0:20:58
303,-33,-559,2,-3,-4,-15,20,1001,0:20:58
316,-36,-562,2,-3,-4,-16,17,1000,0:20:58
316,-36,-562,2,-3,-4,-16,16,998,0:20:58
318,-19,-555,2,-2,-5,-14,16,999,0:20:58
310,-21,-567,2,0,-5,-14,15,999,0:20:58
310,-21,-567,1,-2,-6,-15,17,999,0:20:58
310,-39,-565,2,-1,-6,-16,17,1001,0:20:58
328,-30,-565,2,-2,-6,-15,15,1000,0:20:58
310,-39,-562,2,-1,-6,-14,15,997,0:20:58
327,-28,-556,2,-1,-6,-14,17,997,0:20:58
327,-28,-556,3,-1,-5,-15,15,1001,0:20:58
333,-24,-570,5,5,-7,-14,15,1001,0:20:58
304,-42,-564,2,0,-7,-12,16,1001,0:20:58
298,-37,-561,2,-2,-6,-13,17,1000,0:20:58
322,-34,-561,1,-2,-5,-13,17,1000,0:20:58
319,-36,-568,2,-2,-5,-14,15,1000,0:20:58
319,-36,-568,2,-2,-5,-14,14,1000,0:20:58
312,-31,-570,2,-1,-5,-14,15,1000,0:20:58
328,-28,-540,2,-2,-5,-14,16,1000,0:20:58
328,-28,-540,2,0,-4,-14,16,1000,0:20:58
309,-45,-555,2,-2,-5,-16,15,1002,0:20:58
322,-46,-549,2,-2,-6,-16,14,1000,0:20:58
312,-19,-564,2,-2,-6,-16,16,998,0:20:58
312,-19,-564,2,-2,-6,-17,16,998,0:20:58
327,-24,-571,2,-2,-6,-15,17,999,0:20:58
316,-21,-571,3,-3,-5,-15,19,997,0:20:58
327,-40,-559,4,-2,-6,-16,18,997,0:20:58
316,-43,-553,4,0,-6,-15,15,996,0:20:58
307,-25,-565,2,-1,-5,-16,16,995,0:20:58
304,-34,-579,2,-2,-5,-15,16,999,0:20:58
321,-24,-567,2,-2,-4,-15,16,1001,0:20:58
321,-24,-567,2,-1,-5,-14,16,1000,0:20:58
307,-40,-541,4,-9,-4,-13,15,998,0:20:58
307,-40,-541,3,-4,-5,-14,15,999,0:20:58
342,-27,-567,2,-2,-5,-13,15,1000,0:20:58
307,-40,-562,2,-3,-5,-14,16,999,0:20:58
333,-22,-571,3,-2,-6,-15,14,996,0:20:58
333,-22,-571,2,-1,-5,-14,14,999,0:20:58
300,-24,-567,2,-2,-5,-14,14,999,0:20:58
313,-31,-562,3,-7,-4,-16,15,1000,0:20:58
336,-36,-567,3,-4,-4,-16,15,998,0:20:58
321,-25,-568,3,-2,-4,-15,15,1000,0:20:58
339,-22,-579,3,-2,-4,-13,15,1001,0:20:58
316,-30,-561,3,-2,-5,-12,15,1000,0:20:58
333,-25,-565,2,-2,-5,-14,16,999,0:20:58
333,-25,-565,2,-2,-4,-16,15,998,0:20:58
316,-28,-543,2,3,-7,-16,14,999,0:20:58
316,-28,-543,4,0,-6,-16,15,999,0:20:58
310,-28,-576,2,-2,-5,-15,15,999,0:20:58
322,-13,-558,3,-1,-6,-14,16,1001,0:20:58
316,-36,-588,2,-2,-7,-15,16,1001,0:20:58
316,-36,-588,3,-2,-7,-16,15,999,0:20:58
321,-27,-586,3,-2,-5,-17,15,998,0:20:58
303,-31,-550,2,2,-6,-16,15,999,0:20:58
303,-31,-550,2,-2,-5,-13,17,998,0:20:58
313,-25,-558,2,-2,-4,-12,17,997,0:20:58
313,-30,-586,3,-2,-5,-12,16,998,0:20:58
319,-42,-561,2,-2,-4,-12,16,998,0:20:58
319,-27,-561,2,-2,-6,-15,17,996,0:20:58
319,-27,-561,2,-1,-6,-17,17,997,0:20:58
321,-37,-564,3,-3,-5,-16,17,999,0:20:58
321,-37,-564,3,-4,-4,-14,16,998,0:20:58
316,-36,-561,3,-4,-4,-16,14,999,0:20:58
333,-28,-562,2,0,-5,-18,14,1000,0:20:58
319,-42,-556,2,-2,-5,-15,15,1002,0:20:58
319,-42,-556,2,-1,-6,-17,17,1003,0:20:58
327,-37,-562,2,-3,-6,-18,17,1000,0:20:58
298,-36,-555,2,-5,-5,-15,15,998,0:20:58
298,-36,-555,4,-3,-4,-14,15,997,0:20:58
327,-21,-561,3,-2,-4,-13,16,997,0:20:58
309,-37,-580,3,-2,-6,-15,15,1000,0:20:58
318,-40,-582,3,-2,-5,-16,14,1001,0:20:58
313,-37,-553,3,-2,-5,-15,17,1000,0:20:58
313,-37,-553,2,-3,-4,-14,18,998,0:20:58
304,-28,-558,2,-3,-5,-14,16,999,0:20:58
313,-48,-550,2,-1,-5,-15,16,999,0:20:58
315,-18,-555,2,0,-6,-15,18,997,0:20:58
325,-34,-562,3,0,-4,-15,18,997,0:20:58
307,-30,-564,4,-2,-4,-14,17,998,0:20:58
307,-30,-564,3,-1,-5,-13,15,1000,0:20:58
309,-30,-567,3,-2,-5,-14,16,1000,0:20:58
307,-34,-576,2,-2,-5,-13,15,998,0:20:58
307,-34,-576,2,-2,-5,-15,14,999,0:20:58
321,-40,-577,2,-3,-4,-17,15,1001,0:20:58
309,-27,-576,2,-1,-5,-16,16,1001,0:20:58
315,-31,-565,2,-2,-5,-15,16,999,0:20:58
315,-31,-565,2,-2,-6,-15,14,999,0:20:58
304,-43,-564,2,-1,-5,-14,16,998,0:20:58
313,-30,-561,2,-3,-6,-14,17,996,0:20:58
309,-39,-558,3,-2,-5,-15,16,998,0:20:58
333,-28,-564,2,-4,-4,-13,16,999,0:20:58
325,-33,-583,2,-2,-5,-15,16,1000,0:20:58
322,-30,-567,2,-2,-5,-17,14,1000,0:20:59
322,-30,-567,3,-2,-6,-15,15,1000,0:20:59
322,-22,-580,2,-2,-5,-14,17,1000,0:20:59
321,-39,-567,3,-3,-6,-16,16,998,0:20:59
321,-39,-567,2,-2,-5,-15,16,998,0:20:59
322,-24,-580,2,-1,-4,-15,16,998,0:20:59
330,-31,-562,3,0,-5,-14,16,999,0:20:59
315,-24,-564,3,-2,-5,-15,15,1000,0:20:59
310,-19,-565,2,-2,-4,-15,17,999,0:20:59
310,-19,-565,2,-2,-4,-16,17,999,0:20:59
301,-40,-559,3,-1,-6,-16,15,999,0:20:59
310,-34,-588,4,-3,-5,-14,18,998,0:20:59
331,-34,-556,4,-2,-5,-13,19,999,0:20:59
325,-30,-574,2,-2,-5,-15,17,1000,0:20:59
304,-7,-552,2,-2,-6,-15,17,1000,0:20:59
304,-7,-552,2,-2,-5,-16,17,998,0:20:59
318,-31,-577,2,-2,-5,-14,16,999,0:20:59
306,-31,-577,4,-1,-6,-13,16,998,0:20:59
306,-31,-577,3,-1,-5,-15,17,997,0:20:59
307,-39,-556,3,-2,-4,-14,17,998,0:20:59
318,-28,-573,2,-2,-5,-14,15,997,0:20:59
334,-30,-558,2,-2,-4,-15,14,999,0:20:59
309,-45,-573,2,-2,-6,-14,16,1001,0:20:59
309,-45,-573,2,-3,-5,-13,15,999,0:20:59
322,-25,-576,0,1,-5,-13,15,999,0:20:59
301,-12,-586,2,0,-6,-15,16,1000,0:20:59
315,-36,-565,2,-2,-6,-14,17,999,0:20:59
324,-33,-583,3,-1,-6,-15,17,997,0:20:59
313,-45,-567,3,-1,-6,-16,16,998,0:20:59
313,-45,-567,2,-2,-5,-13,15,997,0:20:59
327,-31,-550,3,0,-6,-10,15,998,0:20:59
322,-36,-558,2,-1,-5,-10,15,1000,0:20:59
322,-36,-558,2,-1,-4,-13,14,1000,0:20:59
304,-45,-588,3,0,-5,-15,16,1000,0:20:59
318,-45,-559,2,0,-6,-14,17,999,0:20:59
324,-43,-559,2,-1,-7,-15,15,998,0:20:59
328,-31,-567,2,-2,-5,-16,14,997,0:20:59
328,-31,-567,2,-2,-5,-16,16,997,0:20:59
325,-30,-549,4,6,-6,-15,16,999,0:20:59
306,-24,-562,3,0,-6,-14,14,1000,0:20:59
318,-40,-568,2,-2,-6,-15,15,998,0:20:59
325,-39,-582,2,-3,-6,-17,16,997,0:20:59
306,-40,-562,2,-2,-6,-16,16,998,0:20:59
306,-40,-562,3,-1,-6,-14,16,998,0:20:59
319,-21,-577,2,-1,-5,-14,16,998,0:20:59
297,-27,-555,1,0,-5,-12,17,998,0:20:59
322,-15,-574,2,-4,-5,-15,17,999,0:20:59
325,-31,-576,2,-2,-6,-17,15,999,0:20:59
330,-19,-564,2,-2,-5,-16,15,999,0:20:59
316,-40,-562,2,-2,-5,-16,16,1000,0:20:59
333,-28,-573,2,-1,-6,-15,18,1000,0:20:59
333,-28,-573,2,0,-6,-13,18,1001,0:20:59
313,-27,-547,2,1,-7,-12,16,999,0:20:59
313,-27,-547,3,-1,-5,-14,18,998,0:20:59
325,-37,-576,4,-1,-5,-15,18,999,0:20:59
333,-43,-555,4,-1,-5,-16,17,1000,0:20:59
321,-31,-559,3,0,-5,-16,14,999,0:20:59
321,-31,-559,2,-2,-6,-16,15,996,0:20:59
318,-39,-570,2,-2,-6,-18,15,997,0:20:59
331,-25,-552,3,0,-6,-16,14,998,0:20:59
307,-42,-576,2,-2,-5,-14,14,998,0:20:59
328,-6,-574,4,0,-5,-16,15,999,0:20:59
331,-22,-571,2,-2,-6,-17,16,999,0:20:59
310,-21,-583,2,-1,-4,-16,15,998,0:20:59
310,-21,-583,2,-1,-5,-16,15,998,0:20:59
310,-37,-571,2,-1,-6,-15,16,999,0:20:59
312,-21,-568,4,11,-7,-12,19,1000,0:20:59
312,-21,-568,2,1,-6,-14,17,998,0:20:59
319,-24,-553,2,-2,-6,-17,16,998,0:20:59
319,-34,-561,2,-2,-6,-15,17,1000,0:20:59
315,-27,-580,2,0,-5,-14,16,999,0:20:59
315,-27,-580,2,-2,-5,-15,18,998,0:20:59
321,-34,-571,2,0,-6,-14,19,999,0:20:59
324,-34,-561,1,-1,-5,-14,15,1000,0:20:59
315,-19,-553,2,-2,-5,-15,15,999,0:20:59
312,-36,-564,3,0,-5,-14,15,999,0:20:59
318,-28,-568,2,-2,-5,-13,15,999,0:20:59
316,-30,-571,2,-3,-5,-14,16,997,0:20:59
316,-30,-571,2,-2,-5,-15,17,997,0:20:59
324,-28,-577,2,-1,-5,-14,16,998,0:20:59
324,-28,-577,4,-3,-4,-15,16,998,0:20:59
310,-49,-565,3,-2,-6,-16,18,998,0:20:59
325,-43,-579,2,-1,-5,-16,16,997,0:20:59
327,-42,-573,2,-1,-4,-14,16,998,0:20:59
310,-34,-567,2,-1,-4,-14,16,998,0:20:59
315,-34,-565,3,0,-5,-14,18,999,0:20:59
315,-34,-565,2,0,-6,-15,15,999,0:20:59
319,-30,-577,2,0,-6,-16,13,997,0:20:59
316,-36,-555,2,2,-6,-16,15,999,0:20:59
309,-36,-573,2,0,-6,-14,14,1000,0:20:59
319,-31,-556,2,-1,-5,-15,15,998,0:20:59
331,-51,-576,2,0,-6,-13,15,1000,0:20:59
321,-28,-550,2,-2,-6,-14,16,1001,0:20:59
321,-28,-550,2,-2,-6,-14,14,999,0:20:59
307,-31,-562,1,-7,-4,-13,14,998,0:20:59
307,-31,-562,4,-4,-5,-14,15,998,0:20:59
322,-37,-570,4,-1,-5,-15,17,999,0:20:59
309,-39,-565,2,-2,-4,-17,16,998,0:20:59
328,-33,-550,7,-2,-4,-9,5,1000,0:20:59
328,-33,-550,8,-4,-1,-27,0,1009,0:20:59
322,-27,-556,2,-21,-4,-7,-6,973,0:20:59
318,-24,-552,21,-3,18,21,-14,977,0:20:59
318,-24,-552,8,15,70,16,40,989,0:20:59
316,-40,-547,9,4,102,16,132,958,0:20:59
300,-25,-571,10,-7,22,-32,132,967,0:20:59
319,-39,-577,16,-8,21,-36,89,986,0:20:59
318,-33,-567,13,-4,12,-1,7,993,0:20:59
318,-33,-567,13,-4,12,-16,9,983,0:21:00
313,-33,-559,14,5,15,-16,19,985,0:21:00
313,-33,-559,16,7,12,-15,16,1003,0:21:00
336,-25,-558,17,2,14,-13,16,1006,0:21:00
304,-40,-564,15,0,5,-30,25,996,0:21:00
334,-24,-583,10,-7,-16,-31,17,995,0:21:00
334,-24,-583,11,-16,-28,-22,15,1000,0:21:00
322,-9,-573,11,-22,-33,-27,8,1013,0:21:00
316,-27,-564,9,-16,-46,-8,-3,1012,0:21:00
316,-27,-564,8,-21,-49,5,2,992,0:21:00
324,-31,-574,21,-14,-63,4,6,977,0:21:00
321,-40,-568,23,-14,-116,17,-15,981,0:21:00
328,-42,-555,14,0,-7,7,-7,992,0:21:00
328,-42,-555,6,0,2,-10,15,993,0:21:00
307,-36,-558,8,0,0,-18,11,999,0:21:00
321,-43,-565,5,-7,-6,-17,10,997,0:21:00
319,-12,-562,9,-7,-14,-17,10,997,0:21:00
306,-27,-555,14,-2,-7,-9,1,987,0:21:00
324,-31,-577,12,1,3,-13,11,969,0:21:00
310,-18,-553,9,2,9,-14,19,977,0:21:00
319,-36,-552,9,2,9,-18,11,999,0:21:00
319,-36,-552,7,1,7,-17,13,998,0:21:00
316,-19,-531,6,0,4,-12,13,997,0:21:00
316,-19,-531,4,-1,0,-16,14,999,0:21:00
301,-33,-573,7,-4,-5,-16,11,1000,0:21:00
325,-30,-561,8,-4,-5,-17,10,1001,0:21:00
309,-31,-564,7,-6,-7,-17,13,996,0:21:00
309,-31,-564,5,0,-4,-20,11,980,0:21:00
316,-39,-553,7,-1,-5,-29,4,990,0:21:00
318,-27,-576,6,0,-4,-23,4,996,0:21:00
319,-24,-550,5,-2,0,-8,14,986,0:21:00
315,-30,-574,4,0,0,-10,17,993,0:21:00
319,-34,-558,6,-2,-1,-15,14,997,0:21:00
316,-22,-573,5,-1,0,-12,11,996,0:21:00
316,-22,-573,5,0,2,-15,11,995,0:21:00
315,-39,-556,4,0,3,-14,12,998,0:21:00
316,-24,-547,4,0,6,-14,9,999,0:21:00
316,-24,-547,2,0,7,-15,9,999,0:21:00
324,-27,-567,0,3,6,-18,7,1000,0:21:00
313,-39,-583,0,2,7,-15,8,1001,0:21:00
318,-37,-547,0,2,7,-12,9,1008,0:21:00
318,-37,-547,-2,5,11,-5,5,1002,0:21:00
325,-25,-565,0,2,14,-5,6,996,0:21:00
303,-30,-576,-1,5,26,-10,11,1002,0:21:00
325,-43,-561,0,6,30,-16,8,1001,0:21:00
306,-27,-567,0,7,51,-12,11,984,0:21:00
324,-31,-579,0,10,53,0,-1,977,0:21:00
327,-22,-570,-3,11,154,69,-5,978,0:21:00
327,-22,-570,21,63,651,181,-83,971,0:21:00
315,-24,-559,18,-40,1236,199,-119,934,0:21:00
289,-27,-568,1,-60,1339,74,8,870,0:21:00
289,-27,-568,11,-19,1477,2,-94,1102,0:21:00
300,-21,-568,-44,-46,1940,108,-279,1042,0:21:00
300,12,-567,-34,-38,2576,224,-317,908,0:21:00
279,12,-561,-21,-9,3101,224,-291,943,0:21:00
288,25,-565,-44,36,3732,164,-291,943,0:21:00
288,25,-565,-51,-28,4402,-26,-196,1046,0:21:00
265,45,-573,-12,-53,4987,-40,-236,951,0:21:00
264,58,-567,-60,-13,5716,47,-308,1109,0:21:00
274,99,-576,-31,-78,6521,48,-219,1156,0:21:00
286,112,-564,-31,-78,6521,-34,-144,831,0:21:00
270,163,-546,-9,-215,7323,-126,-207,953,0:21:00
270,163,-546,-28,-97,8078,-353,-425,979,0:21:00
258,202,-553,-66,-81,8766,-452,-657,879,0:21:00
318,285,-549,-35,-116,9236,-321,-650,1013,0:21:00
318,285,-549,-56,-58,9437,-301,-440,1304,0:21:00
375,343,-588,-31,-83,9283,-300,-299,1250,0:21:00
423,381,-564,-60,-96,9015,-424,-232,1184,0:21:00
474,394,-568,-46,-9,8852,-562,-159,964,0:21:00
474,394,-568,-26,-65,8643,-580,-90,1128,0:21:00
511,400,-558,-30,-89,8160,-757,-58,1129,0:21:00
561,388,-543,-10,-143,7414,-884,-17,811,0:21:00
561,388,-543,-19,-113,6350,-776,66,765,0:21:00
612,382,-540,-9,-125,4999,-602,116,731,0:21:00
634,402,-555,-16,-49,3625,-602,116,731,0:21:00
652,399,-574,-18,66,2594,-415,147,814,0:21:00
652,399,-574,3,-23,1902,-323,96,875,0:21:00
663,387,-547,-11,-13,1320,-212,142,1016,0:21:00
660,382,-552,-36,29,910,-38,269,1148,0:21:00
684,364,-555,-19,12,608,71,306,1211,0:21:00
679,372,-549,-19,12,608,185,233,927,0:21:00
697,372,-559,-2,34,404,166,136,938,0:21:00
681,375,-552,-30,14,420,-17,171,764,0:21:00
697,358,-540,-22,83,497,-203,254,746,0:21:00
697,358,-540,7,-14,397,-214,199,1126,0:21:00
697,358,-541,2,-50,320,-92,44,1054,0:21:00
697,358,-541,23,-33,525,-18,-79,947,0:21:00
696,364,-558,11,-84,852,65,-35,755,0:21:00
691,355,-559,30,-31,935,54,-7,881,0:21:00
691,346,-547,4,82,887,-51,-30,1217,0:21:00
691,346,-547,7,-8,855,5,-26,1142,0:21:00
705,346,-540,11,-32,854,65,-47,969,0:21:00
706,348,-550,16,18,923,-53,-39,1024,0:21:00
691,348,-561,-1,44,899,-46,-55,986,0:21:00
703,345,-561,0,-53,856,12,-38,907,0:21:00
729,334,-562,-9,-21,1001,12,-38,907,0:21:00
720,349,-559,-4,-44,1185,-39,19,965,0:21:00
738,345,-552,-11,-80,1377,-22,29,869,0:21:00
738,345,-552,-11,-80,1377,29,44,702,0:21:00
727,336,-549,57,4,1582,0,70,638,0:21:00
727,336,-549,-32,-38,1724,10,104,702,0:21:00
744,301,-576,2,22,1872,45,16,1026,0:21:00
741,316,-580,21,37,1971,-19,-115,1182,0:21:00
759,312,-568,14,-63,1972,-43,-49,1000,0:21:00
763,294,-556,-10,-8,1841,-45,32,923,0:21:00
766,288,-564,-25,-39,1719,-16,45,993,0:21:00
766,288,-564,-45,-14,1561,52,103,896,0:21:01
774,288,-562,-26,35,1260,83,111,947,0:21:01
780,280,-565,-5,-14,893,53,54,1074,0:21:01
786,288,-549,1,-55,632,-45,65,982,0:21:01
766,279,-564,-4,-37,665,54,-6,944,0:21:01
777,276,-570,-14,-16,891,108,-42,860,0:21:01
777,276,-570,-18,8,861,-12,22,872,0:21:01
784,259,-546,-40,30,687,-106,46,1034,0:21:01
784,259,-546,-14,4,493,-78,-10,1041,0:21:01
787,255,-561,14,-34,500,-78,-10,1041,0:21:01
775,256,-553,2,-2,372,0,12,985,0:21:01
766,264,-553,-2,2,60,9,82,936,0:21:01
786,253,-558,-2,2,60,-18,26,972,0:21:01
786,253,-558,4,0,0,-50,6,1015,0:21:01
787,261,-562,5,-2,-7,-27,17,1003,0:21:01
802,241,-553,4,-4,-19,-9,9,1000,0:21:01
792,247,-552,7,-11,-21,-12,16,1000,0:21:01
783,265,-549,9,-29,-13,-25,49,980,0:21:01
768,265,-561,5,-15,-16,-57,87,1011,0:21:01
792,256,-550,0,-9,-56,-75,102,1019,0:21:01
792,256,-550,0,-13,-195,-20,23,1012,0:21:01
778,262,-562,-4,-22,-208,120,-89,1001,0:21:01
778,262,-562,9,15,-14,61,-26,994,0:21:01
777,255,-555,2,9,-9,-27,46,1004,0:21:01
787,244,-567,1,2,-25,8,18,989,0:21:01
789,274,-582,1,0,-27,-10,9,999,0:21:01
789,274,-582,0,-3,-30,-9,5,999,0:21:01
795,271,-561,0,-4,-45,-10,0,1004,0:21:01
759,270,-547,-2,0,-32,-5,-1,1002,0:21:01
759,270,-547,-2,0,-27,-5,-1,1002,0:21:01
787,271,-570,-1,0,-25,-5,10,999,0:21:01
790,262,-549,-1,0,-16,-1,6,1001,0:21:01
778,253,-546,-8,-1,-29,-2,2,1001,0:21:01
781,267,-558,-8,-1,-29,-8,11,987,0:21:01
781,267,-558,-14,2,-57,-8,18,1005,0:21:01
786,250,-550,-21,3,-174,-21,15,1005,0:21:01
786,250,-550,-26,12,-369,-106,25,950,0:21:01
795,256,-559,4,0,-590,-132,16,1049,0:21:01
796,252,-568,-14,-48,-683,-61,41,985,0:21:01
780,265,-544,15,-3,-609,0,67,983,0:21:01
780,265,-544,7,35,-519,-14,64,1123,0:21:01
778,279,-564,-5,-11,-485,-19,30,938,0:21:01
766,276,-525,18,4,-464,-48,18,930,0:21:01
766,276,-525,-26,-28,-434,13,52,931,0:21:01
783,288,-568,2,7,-336,91,40,876,0:21:01
757,274,-555,14,4,-274,20,37,982,0:21:01
759,279,-550,0,-10,-266,40,16,942,0:21:01
759,279,-550,9,-3,-177,41,20,921,0:21:01
769,288,-550,6,25,-122,41,20,921,0:21:01
774,274,-547,16,34,-92,-21,54,993,0:21:01
781,292,-552,18,23,-61,-40,58,924,0:21:01
765,274,-546,12,14,-8,16,-14,931,0:21:01
780,274,-561,7,11,-2,23,-49,1013,0:21:01
775,294,-559,7,11,-2,-5,-5,994,0:21:01
768,283,-571,5,20,-3,-4,11,998,0:21:01
768,283,-571,3,10,-17,-6,5,1008,0:21:01
777,283,-556,7,9,-7,-7,-14,1005,0:21:01
777,283,-556,5,0,0,-8,-10,1001,0:21:01
781,292,-538,4,-1,-3,-4,5,1000,0:21:01
777,288,-576,3,-1,-2,-8,10,1002,0:21:01
763,283,-549,0,-2,-4,-11,6,1002,0:21:01
763,283,-549,-2,-2,-6,-12,7,1003,0:21:01
775,285,-550,-2,-4,-7,-10,10,1002,0:21:01
790,279,-567,-2,2,-9,-8,9,1001,0:21:01
781,271,-565,-6,1,-11,-15,10,1006,0:21:01
781,294,-555,-15,-6,-21,-19,14,1002,0:21:01
774,276,-555,-27,-21,-41,-40,10,1019,0:21:01
771,274,-552,-40,-41,-89,-71,-2,1024,0:21:01
771,274,-552,-32,-84,-212,-71,-2,1024,0:21:01
769,295,-549,-23,-107,-388,-104,-21,982,0:21:01
760,286,-541,-34,48,-350,-134,-18,942,0:21:01
760,286,-541,13,63,-248,-24,-54,938,0:21:01
763,285,-570,13,63,-248,60,22,1040,0:21:01
771,297,-574,7,11,-106,85,111,1062,0:21:01
766,306,-567,2,21,23,62,32,1020,0:21:01
768,285,-556,3,5,8,-34,6,1024,0:21:01
768,285,-556,2,-9,-4,-12,21,993,0:21:01
781,279,-565,1,-4,-2,-1,18,993,0:21:01
769,285,-562,1,-2,-8,-9,11,999,0:21:01
777,292,-561,2,-2,-5,-3,8,998,0:21:01
766,280,-561,2,-5,-6,-11,14,1000,0:21:01
775,277,-555,2,-3,-4,-7,13,999,0:21:01
759,298,-555,2,-2,-7,-7,9,1001,0:21:01
759,298,-555,2,-2,-5,-4,9,1000,0:21:01
763,291,-549,2,-6,-6,-4,11,999,0:21:01
763,291,-549,2,-4,-6,-6,13,998,0:21:01
777,285,-568,2,-3,-6,-6,14,999,0:21:01
768,288,-555,2,-2,-5,-3,14,1001,0:21:01
757,292,-559,2,-2,-6,-3,14,1001,0:21:01
768,289,-547,2,-2,-6,-5,15,1000,0:21:01
768,289,-547,2,-2,-7,-5,14,998,0:21:01
765,280,-568,3,-5,-6,-5,13,999,0:21:01
763,280,-565,3,-5,-6,-5,12,999,0:21:01
759,279,-577,2,-2,-6,-4,12,1000,0:21:01
778,288,-555,3,0,-5,-5,12,999,0:21:01
768,273,-567,2,0,-5,-5,12,999,0:21:01
760,294,-564,3,-3,-5,-4,12,999,0:21:01
760,294,-564,2,-2,-6,-5,12,999,0:21:01
760,286,-553,0,-3,-5,-5,10,999,0:21:01
760,286,-553,1,-2,-6,-3,11,1009,0:21:01
769,303,-559,1,-2,-7,-2,15,1006,0:21:01
781,283,-567,2,-2,-6,-4,13,996,0:21:01
771,282,-556,2,-2,-6,-6,10,1000,0:21:01
765,270,-568,2,-2,-6,-6,13,1001,0:21:01
765,270,-568,2,-2,-7,-5,15,1000,0:21:01
778,298,-555,2,-2,-6,-5,14,998,0:21:01
751,267,-553,3,-1,-6,-3,12,996,0:21:01
792,279,-550,3,-2,-6,-3,12,996,0:21:02
766,280,-556,2,-3,-6,-3,10,998,0:21:02
771,298,-562,2,-3,-6,-4,12,1000,0:21:02
771,298,-562,2,0,-6,-7,12,999,0:21:02
766,288,-558,2,-1,-5,-6,10,999,0:21:02
768,289,-546,2,0,-6,-6,11,998,0:21:02
775,282,-559,2,-1,-5,-6,14,999,0:21:02
774,277,-562,3,-1,-5,-5,15,998,0:21:02
760,288,-567,3,-1,-6,-4,13,999,0:21:02
777,288,-571,3,-2,-5,-6,13,1000,0:21:02
777,288,-571,2,0,-5,-7,14,1000,0:21:02
772,283,-570,2,-1,-6,-7,14,1000,0:21:02
768,286,-543,0,-1,-6,-5,12,1001,0:21:02
768,286,-543,2,-2,-6,-4,12,1000,0:21:02
784,304,-571,2,-2,-6,-6,11,1000,0:21:02
757,289,-544,2,-1,-6,-7,10,999,0:21:02
771,306,-565,2,-2,-6,-6,12,997,0:21:02
771,306,-565,2,-2,-5,-5,13,999,0:21:02
760,277,-544,2,-2,-4,-3,15,1000,0:21:02
762,292,-564,2,-6,-5,-5,14,999,0:21:02
772,286,-552,4,-4,-5,-5,14,999,0:21:02
766,286,-561,3,-2,-5,-6,11,999,0:21:02
763,276,-571,2,-1,-5,-5,10,999,0:21:02
774,273,-558,2,-3,-5,-3,11,999,0:21:02
774,273,-558,2,-3,-5,-5,14,996,0:21:02
768,297,-558,2,-2,-6,-6,14,998,0:21:02
763,279,-555,3,-3,-5,-5,12,1001,0:21:02
763,279,-555,1,-1,-5,-4,11,1001,0:21:02
777,291,-568,2,-2,-4,-6,10,1000,0:21:02
768,291,-556,4,-3,-6,-7,11,998,0:21:02
778,282,-558,3,-2,-5,-5,13,998,0:21:02
768,294,-561,2,-1,-6,-4,13,999,0:21:02
768,294,-561,2,-3,-5,-6,13,999,0:21:02
792,298,-555,2,-8,-4,-6,13,1000,0:21:02
772,298,-544,4,-4,-4,-5,13,1001,0:21:02
769,288,-540,4,0,-5,-5,13,999,0:21:02
772,289,-565,3,-2,-5,-4,13,998,0:21:02
759,277,-573,2,-2,-5,-4,13,998,0:21:02
759,277,-573,3,-2,-6,-6,12,999,0:21:02
760,297,-561,2,-2,-5,-6,12,999,0:21:02
762,277,-540,0,-7,-4,-4,12,999,0:21:02
762,277,-540,1,-4,-6,-5,13,998,0:21:02
769,294,-543,3,-2,-7,-7,12,998,0:21:02
766,289,-552,3,-2,-7,-6,14,998,0:21:02
760,280,-552,2,-2,-6,-5,13,998,0:21:02
762,294,-550,2,-2,-5,-7,12,999,0:21:02
762,294,-550,2,-2,-5,-8,14,998,0:21:02
756,294,-546,2,-4,-5,-5,12,999,0:21:02
781,295,-546,3,-2,-7,-5,13,999,0:21:02
769,298,-549,-1,-3,-6,-9,19,1003,0:21:02
778,289,-561,2,-1,-7,-6,19,1005,0:21:02
778,282,-558,2,0,-4,-2,14,1001,0:21:02
778,282,-558,2,-2,-4,-2,11,998,0:21:02
750,297,-561,2,-2,-4,-4,11,998,0:21:02
757,279,-546,2,0,-6,-5,13,1000,0:21:02
757,279,-546,2,0,-6,-4,14,999,0:21:02
778,277,-571,2,-3,-4,-3,12,997,0:21:02
751,291,-568,2,-1,-6,-5,10,998,0:21:02
757,295,-576,3,-1,-6,-5,10,998,0:21:02
772,301,-547,3,-2,-6,-5,9,999,0:21:02
772,301,-547,3,-3,-6,-8,10,999,0:21:02
775,300,-559,1,-6,-5,-9,13,998,0:21:02
775,286,-553,2,-3,-5,-6,14,998,0:21:02
771,286,-555,2,-3,-5,-6,11,999,0:21:02
775,283,-567,2,-2,-6,-5,11,997,0:21:02
769,282,-568,2,-2,-5,-4,11,998,0:21:02
769,282,-568,2,-1,-6,-5,11,999,0:21:02
775,285,-564,2,-2,-4,-6,12,1000,0:21:02
763,291,-543,2,0,-6,-5,12,999,0:21:02
763,291,-552,2,0,-5,-5,12,997,0:21:02
762,285,-546,3,-1,-5,-7,12,997,0:21:02
784,313,-553,3,-2,-6,-5,13,997,0:21:02
768,291,-564,2,0,-4,-1,14,1000,0:21:02
768,291,-564,2,-2,-6,-2,14,1002,0:21:02
766,274,-565,2,-2,-5,-3,14,999,0:21:02
759,273,-565,3,4,-7,-5,13,998,0:21:02
759,273,-565,3,0,-5,-6,11,999,0:21:02
769,285,-552,2,-2,-5,-6,10,1000,0:21:02
772,282,-556,2,-1,-5,-6,10,1000,0:21:02
766,285,-552,4,-1,-6,-6,10,1001,0:21:02
775,288,-564,2,-3,-5,-5,10,1002,0:21:02
775,288,-564,2,-2,-6,-6,10,1001,0:21:02
766,295,-546,2,-2,-5,-7,10,998,0:21:02
766,295,-562,2,-2,-5,-7,12,997,0:21:02
781,291,-552,2,-1,-4,-6,14,999,0:21:02
780,286,-558,2,-2,-4,-5,14,1001,0:21:02
757,289,-562,2,-3,-4,-6,15,1000,0:21:02
760,295,-553,2,-3,-5,-6,12,999,0:21:02
760,295,-553,2,-1,-6,-4,11,999,0:21:02
747,295,-546,3,-3,-5,-5,12,997,0:21:02
747,295,-546,2,-2,-5,-6,12,997,0:21:02
774,277,-555,2,0,-6,-6,11,998,0:21:02
774,300,-565,2,-1,-6,-6,12,999,0:21:02
769,273,-558,1,-1,-6,-6,13,1001,0:21:02
769,273,-558,2,-3,-6,-5,11,1001,0:21:02
766,292,-561,2,-2,-5,-6,10,999,0:21:02
759,301,-555,1,-3,-4,-5,11,998,0:21:02
772,288,-543,2,-2,-4,-6,12,999,0:21:02
784,274,-543,2,-2,-4,-6,12,999,0:21:02
747,285,-565,3,-2,-5,-7,13,999,0:21:02
766,273,-559,3,0,-6,-6,12,997,0:21:02
775,279,-550,3,0,-6,-5,12,997,0:21:02
775,279,-550,3,0,-6,-6,11,998,0:21:02
753,292,-547,2,-1,-6,-4,13,999,0:21:02
753,292,-547,3,-2,-6,-3,14,998,0:21:02
790,283,-564,3,-2,-6,-4,15,997,0:21:02
757,273,-562,4,-2,-5,-7,13,998,0:21:03
778,280,-547,4,-1,-6,-7,13,998,0:21:03
778,280,-547,4,-1,-6,-6,14,997,0:21:03
766,289,-555,3,-2,-7,-7,13,1000,0:21:03
769,279,-564,4,-1,-6,-8,15,1002,0:21:03
769,295,-550,3,-2,-6,-5,15,1001,0:21:03
762,297,-546,2,-3,-5,-5,14,999,0:21:03
765,294,-565,2,-2,-5,-9,13,998,0:21:03
762,289,-573,3,-2,-6,-7,11,1000,0:21:03
762,289,-573,3,-1,-7,-4,11,999,0:21:03
763,294,-562,2,-2,-6,-4,12,997,0:21:03
763,276,-553,2,-4,-5,-3,14,1000,0:21:03
763,276,-553,2,-2,-6,-3,14,1000,0:21:03
747,289,-574,3,0,-6,-4,14,1000,0:21:03
777,279,-558,3,-1,-5,-7,13,999,0:21:03
771,283,-561,3,-1,-5,-6,15,1000,0:21:03
771,283,-561,3,-1,-6,-5,15,998,0:21:03
769,276,-550,2,-2,-6,-6,11,997,0:21:03
765,291,-555,2,0,-5,-4,11,999,0:21:03
786,285,-561,3,-3,-4,-3,10,999,0:21:03
762,288,-550,2,-2,-4,-5,10,996,0:21:03
760,277,-553,2,0,-5,-6,12,998,0:21:03
762,283,-546,4,-4,-5,-7,12,999,0:21:03
762,283,-546,3,-2,-4,-5,14,999,0:21:03
763,297,-559,2,-1,-5,-5,15,1000,0:21:03
751,277,-543,5,7,-7,-7,14,1001,0:21:03
751,277,-543,5,0,-5,-6,12,1001,0:21:03
760,280,-553,2,-1,-5,-4,11,1000,0:21:03
781,303,-559,2,-2,-6,-6,12,1000,0:21:03
781,303,-564,2,-2,-6,-6,12,999,0:21:03
771,276,-558,2,-2,-6,-4,12,999,0:21:03
771,276,-558,3,-4,-5,-4,13,1001,0:21:03
769,285,-553,5,4,-6,-5,13,1001,0:21:03
760,277,-538,3,2,-6,-8,13,999,0:21:03
783,300,-543,3,-1,-6,-8,13,996,0:21:03
759,289,-556,4,-1,-6,-7,12,996,0:21:03
772,300,-562,4,-1,-6,-8,13,998,0:21:03
771,304,-541,2,-2,-4,-7,13,999,0:21:03
771,304,-541,2,-2,-5,-5,11,999,0:21:03
765,301,-540,2,-1,-6,-4,10,1000,0:21:03
774,289,-550,2,-1,-5,-4,11,1000,0:21:03
789,303,-550,2,-1,-5,-6,13,999,0:21:03
781,298,-562,3,-1,-7,-6,12,1000,0:21:03
771,285,-552,3,-2,-6,-8,12,999,0:21:03
771,285,-552,2,-2,-6,-7,11,1000,0:21:03
775,289,-552,2,-1,-6,-5,11,1002,0:21:03
766,294,-549,3,-2,-5,-7,14,1001,0:21:03
766,294,-549,3,-1,-5,-6,13,1000,0:21:03
784,291,-565,2,-2,-5,-3,12,998,0:21:03
768,304,-555,2,-2,-5,-4,14,1000,0:21:03
792,265,-573,2,-2,-5,-4,14,1000,0:21:03
765,301,-547,2,-2,-5,-5,13,1000,0:21:03
765,301,-547,2,-2,-6,-5,11,998,0:21:03
768,289,-544,2,0,-6,-6,10,998,0:21:03
768,294,-556,2,-2,-5,-8,12,999,0:21:03
774,312,-549,2,-2,-4,-7,13,999,0:21:03
756,298,-556,2,-2,-4,-6,13,999,0:21:03
769,277,-561,3,-2,-5,-7,11,999,0:21:03
769,277,-561,2,-2,-5,-8,13,998,0:21:03
766,298,-564,2,-2,-5,-6,14,998,0:21:03
766,286,-547,4,0,-6,-3,14,1000,0:21:03
766,286,-547,4,-2,-7,-6,14,999,0:21:03
765,291,-576,2,-2,-5,-6,13,998,0:21:03
774,280,-565,2,-2,-6,-4,14,998,0:21:03
775,286,-543,3,-1,-6,-2,13,999,0:21:03
766,289,-553,3,-2,-6,-3,12,1000,0:21:03
766,289,-553,2,-2,-5,-4,14,999,0:21:03
762,294,-541,0,-11,-4,-5,14,999,0:21:03
759,285,-544,2,-4,-4,-4,13,999,0:21:03
757,297,-552,3,-3,-5,-5,13,998,0:21:03
781,294,-564,2,-1,-6,-6,12,999,0:21:03
775,309,-555,2,-1,-5,-6,12,999,0:21:03
763,292,-549,3,-1,-4,-6,13,1000,0:21:03
763,292,-549,3,-3,-5,-7,15,1000,0:21:03
763,277,-540,4,-2,-6,-6,14,1000,0:21:03
763,277,-540,4,-2,-6,-6,12,1000,0:21:03
763,279,-555,2,-3,-6,-7,13,998,0:21:03
759,282,-577,2,-2,-7,-7,12,997,0:21:03
775,298,-559,3,-2,-6,-5,13,996,0:21:03
757,289,-549,2,-2,-5,-3,16,997,0:21:03
757,289,-549,2,-2,-5,-5,13,1000,0:21:03
778,273,-556,4,-4,-5,-7,11,999,0:21:03
762,277,-556,3,-3,-5,-7,11,998,0:21:03
760,279,-583,2,-2,-5,-7,11,999,0:21:03
766,276,-558,3,-2,-6,-6,13,998,0:21:03
771,322,-570,3,-2,-5,-5,14,999,0:21:03
771,322,-570,2,-1,-5,-4,13,1001,0:21:03
783,297,-552,2,0,-5,-2,11,999,0:21:03
760,279,-546,2,-2,-4,-3,11,999,0:21:03
760,279,-546,2,-1,-6,-2,15,1001,0:21:03
778,292,-561,2,-1,-5,-3,13,1000,0:21:03
748,280,-549,3,0,-6,-3,13,1000,0:21:03
777,294,-564,2,-2,-5,-5,11,1000,0:21:03
777,294,-564,3,-1,-5,-6,14,999,0:21:03
763,297,-546,3,-2,-5,-6,13,999,0:21:03
769,280,-558,3,-2,-5,-4,11,1000,0:21:03
775,286,-559,0,-4,-6,-4,11,998,0:21:03
769,280,-555,2,-2,-5,-4,13,997,0:21:03
775,291,-565,2,-2,-6,-5,15,1001,0:21:03
772,280,-544,2,-2,-5,-5,15,1001,0:21:03
772,280,-544,2,-2,-5,-5,13,999,0:21:03
750,291,-550,2,-2,-4,-6,13,1000,0:21:03
757,286,-553,0,-9,-4,-4,14,1000,0:21:03
757,286,-553,2,-4,-4,-5,12,999,0:21:03
769,298,-550,3,-1,-6,-5,11,998,0:21:03
783,279,-571,3,-2,-6,-7,11,999,0:21:03
772,288,-537,2,-1,-6,-6,12,1000,0:21:03
777,294,-558,2,-1,-6,-7,13,999,0:21:04
777,294,-558,3,-2,-6,-8,12,997,0:21:04
757,288,-552,2,-4,-5,-6,12,1000,0:21:04
765,289,-552,3,-1,-5,-6,12,1000,0:21:04
768,276,-561,2,-1,-5,-6,13,1000,0:21:04
766,295,-541,2,-1,-5,-7,12,999,0:21:04
762,283,-549,2,-3,-4,-8,12,999,0:21:04
762,283,-549,2,-3,-4,-7,11,998,0:21:04
787,297,-559,3,-2,-5,-6,13,998,0:21:04
768,280,-553,4,-2,-5,-6,14,998,0:21:04
769,309,-549,2,0,-5,-4,14,998,0:21:04
763,298,-535,2,-1,-4,-4,13,999,0:21:04
772,285,-540,2,-3,-5,-4,12,999,0:21:04
778,279,-550,3,-2,-6,-3,14,1000,0:21:04
762,286,-550,3,0,-6,-3,15,1001,0:21:04
762,286,-550,3,0,-4,-4,12,1000,0:21:04
744,289,-561,4,0,-6,-6,15,1000,0:21:04
775,276,-547,3,-4,-4,-6,14,1000,0:21:04
766,289,-553,2,-2,-4,-6,12,1001,0:21:04
778,282,-562,2,-4,-5,-5,10,1000,0:21:04
771,280,-565,3,-4,-5,-5,10,999,0:21:04
771,280,-565,3,-2,-6,-4,10,999,0:21:04
778,295,-553,3,-2,-5,-4,10,999,0:21:04
759,283,-535,4,3,-6,-3,14,1000,0:21:04
762,292,-558,3,1,-6,-6,14,999,0:21:04
760,283,-573,1,-2,-4,-5,12,998,0:21:04
777,295,-576,1,-4,-5,-4,14,999,0:21:04
768,298,-547,1,-4,-5,-5,14,1001,0:21:04
768,298,-547,2,-2,-5,-5,11,1000,0:21:04
762,289,-549,1,-3,-5,-5,11,999,0:21:04
762,289,-549,3,-3,-5,-6,12,1000,0:21:04
762,279,-547,2,-2,-5,-5,10,999,0:21:04
763,273,-568,2,-1,-6,-6,11,999,0:21:04
772,289,-553,2,-1,-6,-6,13,999,0:21:04
748,280,-555,2,-2,-7,-7,11,999,0:21:04
769,295,-567,3,-2,-6,-7,13,1000,0:21:04
769,295,-567,2,0,-6,-7,15,1000,0:21:04
738,294,-546,2,-2,-6,-7,13,998,0:21:04
765,292,-532,2,-2,-5,-6,12,998,0:21:04
771,297,-553,3,-1,-6,-8,12,998,0:21:04
774,292,-534,2,-2,-4,-6,13,999,0:21:04
771,291,-552,2,-2,-5,-6,13,999,0:21:04
771,291,-552,2,-3,-5,-4,15,1001,0:21:04
766,285,-562,2,-1,-5,-5,15,1000,0:21:04
759,283,-549,3,-10,-4,-4,12,1000,0:21:04
759,283,-549,3,-4,-5,-5,13,1000,0:21:04
768,271,-571,3,-4,-5,-4,13,1001,0:21:04
769,303,-537,2,-2,-6,-3,13,1002,0:21:04
769,288,-570,2,-2,-6,-4,13,1001,0:21:04
769,288,-570,2,-3,-5,-4,11,1000,0:21:04
757,289,-540,2,-2,-5,-4,12,1001,0:21:04
765,282,-567,3,-3,-6,-6,13,1002,0:21:04
756,289,-574,3,-2,-6,-6,12,1001,0:21:04
762,285,-547,2,-4,-6,-5,11,1000,0:21:04
753,300,-558,2,-3,-5,-6,12,999,0:21:04
774,294,-549,2,-2,-6,-5,11,999,0:21:04
774,294,-549,3,-2,-5,-4,10,999,0:21:04
763,298,-573,2,-1,-5,-4,11,998,0:21:04
748,288,-543,2,-4,-5,-4,12,999,0:21:04
748,288,-543,2,-3,-6,-5,10,999,0:21:04
777,292,-543,3,0,-6,-6,10,999,0:21:04
780,280,-556,3,0,-5,-6,10,999,0:21:04
759,282,-568,3,-1,-5,-4,13,998,0:21:04
759,282,-568,2,0,-6,-4,14,999,0:21:04
775,274,-555,3,0,-6,-5,14,1000,0:21:04
750,291,-558,3,0,-6,-4,12,999,0:21:04
745,288,-550,3,-2,-6,-6,13,997,0:21:04
756,304,-552,3,-1,-5,-8,14,1000,0:21:04
778,276,-552,3,0,-5,-7,12,1000,0:21:04
769,297,-556,2,-2,-5,-5,12,998,0:21:04
763,274,-553,2,-1,-6,-3,11,997,0:21:04
763,274,-553,3,0,-6,-4,11,998,0:21:04
763,289,-520,4,0,-5,-4,14,999,0:21:04
763,289,-520,2,-2,-6,-4,11,998,0:21:04
772,294,-535,2,-3,-5,-5,10,999,0:21:04
775,282,-553,3,-2,-7,-6,12,998,0:21:04
765,300,-552,2,-2,-4,-3,13,997,0:21:04
778,288,-559,2,-2,-4,-4,12,1000,0:21:04
778,288,-559,3,0,-6,-6,10,1000,0:21:04
753,291,-544,4,0,-6,-5,12,999,0:21:04
753,283,-540,3,-4,-5,-4,12,1000,0:21:04
783,289,-561,2,-4,-5,-4,12,1000,0:21:04
754,274,-570,2,-3,-4,-5,13,1000,0:21:04
762,280,-553,2,-2,-6,-5,14,1000,0:21:04
762,280,-553,2,0,-5,-4,12,1000,0:21:04
751,279,-549,3,0,-6,-4,11,1000,0:21:04
769,292,-531,3,0,-6,-4,13,1002,0:21:04
768,306,-544,2,0,-6,-4,14,1001,0:21:04
750,276,-559,2,0,-5,-5,13,998,0:21:04
759,282,-562,2,-1,-5,-6,12,1000,0:21:04
762,301,-565,2,-3,-5,-5,13,1000,0:21:04
762,301,-565,2,-3,-4,-3,12,998,0:21:04
772,279,-564,4,-4,-5,-2,12,999,0:21:04
748,283,-532,1,-5,-4,-5,15,999,0:21:04
748,283,-532,2,-2,-4,-4,15,999,0:21:04
771,291,-552,2,-1,-4,-6,13,1000,0:21:04
771,286,-555,3,-2,-6,-6,13,999,0:21:04
768,283,-549,2,0,-6,-5,13,998,0:21:04
768,283,-549,3,-2,-5,-6,11,999,0:21:04
754,301,-558,2,-1,-6,-5,12,999,0:21:04
787,297,-549,2,0,-5,-5,12,998,0:21:04
766,298,-561,4,0,-7,-5,12,998,0:21:04
766,295,-555,3,-1,-6,-5,12,998,0:21:04
762,291,-570,3,-1,-6,-5,12,997,0:21:04
756,268,-561,4,-2,-6,-6,12,998,0:21:04
780,279,-553,4,-2,-6,-5,13,998,0:21:05
780,279,-553,3,-1,-6,-6,12,999,0:21:05
753,297,-558,2,-4,-5,-5,13,998,0:21:05
753,297,-558,1,-2,-4,-5,12,997,0:21:05
766,277,-555,2,-2,-5,-4,11,1000,0:21:05
768,289,-544,4,0,-5,-2,10,1000,0:21:05
765,288,-546,3,0,-6,-3,12,1000,0:21:05
754,285,-541,2,0,-6,-6,15,1000,0:21:05
754,285,-541,2,-1,-6,-6,13,999,0:21:05
769,288,-562,3,-4,-4,-5,13,998,0:21:05
760,292,-553,2,-3,-5,-5,13,998,0:21:05
768,292,-555,3,-2,-6,-6,12,998,0:21:05
751,280,-544,3,-1,-5,-7,13,998,0:21:05
789,282,-570,2,-2,-5,-6,14,1000,0:21:05
780,301,-568,2,-3,-5,-4,14,1000,0:21:05
780,301,-568,3,-2,-6,-7,12,999,0:21:05
753,285,-546,4,2,-7,-7,12,999,0:21:05
753,285,-546,3,0,-5,-7,13,999,0:21:05
769,273,-541,2,-1,-6,-5,13,999,0:21:05
778,282,-538,2,-2,-5,-5,13,999,0:21:05
787,282,-567,2,-2,-5,-7,13,999,0:21:05
787,282,-567,2,-2,-6,-7,14,998,0:21:05
766,274,-558,3,-1,-4,-5,15,1000,0:21:05
766,277,-564,2,0,-6,-5,13,1001,0:21:05
777,286,-558,3,-1,-6,-5,14,1001,0:21:05
777,289,-553,3,-3,-6,-2,16,1000,0:21:05
780,292,-559,2,-2,-5,-4,14,997,0:21:05
763,276,-573,2,-4,-5,-5,12,998,0:21:05
763,276,-573,2,-2,-5,-3,12,999,0:21:05
778,280,-558,2,-2,-6,-2,12,998,0:21:05
765,297,-547,5,0,-6,-4,12,1000,0:21:05
765,297,-547,3,-1,-6,-5,13,1001,0:21:05
777,286,-571,2,-1,-6,-6,14,1001,0:21:05
768,288,-550,3,-2,-5,-5,12,1000,0:21:05
763,294,-556,3,-1,-6,-5,12,1000,0:21:05
784,285,-561,4,0,-6,-4,11,997,0:21:05
784,285,-561,4,-1,-6,-5,13,999,0:21:05
787,292,-556,3,0,-6,-7,13,1000,0:21:05
757,276,-553,4,0,-6,-6,11,999,0:21:05
789,288,-562,3,-2,-5,-5,12,999,0:21:05
751,297,-556,3,-2,-5,-7,12,998,0:21:05
756,286,-559,2,-2,-5,-8,11,997,0:21:05
772,288,-541,2,-2,-4,-8,11,999,0:21:05
772,288,-541,3,0,-5,-7,14,1000,0:21:05
762,291,-537,1,0,-5,-6,15,1001,0:21:05
775,304,-555,2,-1,-5,-7,14,1000,0:21:05
783,298,-544,2,-2,-5,-6,13,998,0:21:05
766,277,-550,3,-2,-5,-5,13,999,0:21:05
777,291,-561,2,-2,-6,-4,15,1001,0:21:05
777,291,-561,2,-1,-5,-6,16,1000,0:21:05
769,294,-547,2,-2,-5,-7,14,999,0:21:05
757,295,-535,5,3,-7,-6,12,997,0:21:05
757,295,-535,4,0,-7,-6,13,998,0:21:05
783,286,-546,2,-3,-5,-5,12,998,0:21:05
765,295,-565,2,-2,-6,-5,12,998,0:21:05
781,300,-570,3,0,-6,-4,12,997,0:21:05
781,300,-570,3,0,-7,-6,12,998,0:21:05
778,288,-562,3,0,-7,-7,11,1000,0:21:05
750,280,-541,2,-1,-4,-4,12,999,0:21:05
772,288,-553,4,-2,-5,-3,15,998,0:21:05
777,279,-553,4,-2,-5,-7,13,997,0:21:05
774,264,-544,3,-1,-6,-6,11,999,0:21:05
754,283,-558,2,-2,-4,-3,11,1000,0:21:05
754,283,-558,3,-1,-6,-3,10,999,0:21:05
793,273,-561,3,-2,-6,-3,14,1001,0:21:05
760,304,-556,4,-4,-5,-4,14,1000,0:21:05
760,304,-556,3,-2,-5,-6,12,998,0:21:05
765,289,-553,2,0,-5,-5,15,999,0:21:05
762,292,-564,2,-1,-6,-4,14,999,0:21:05
769,280,-559,2,-1,-6,-4,13,999,0:21:05
769,280,-559,2,-1,-6,-4,12,1000,0:21:05
771,298,-550,2,-1,-5,-6,12,1001,0:21:05
769,283,-574,2,0,-5,-5,12,1000,0:21:05
772,297,-555,3,0,-4,-3,12,999,0:21:05
774,286,-544,2,-1,-5,-5,11,1000,0:21:05
769,303,-549,2,-2,-5,-5,11,1000,0:21:05
772,294,-549,2,-3,-4,-4,12,1000,0:21:05
774,285,-552,2,-4,-5,-3,13,999,0:21:05
774,285,-552,2,-4,-5,-2,13,997,0:21:05
789,291,-546,2,-1,-5,-2,14,996,0:21:05
789,291,-546,3,-1,-5,-3,13,997,0:21:05
766,280,-559,2,-2,-5,-2,11,998,0:21:05
777,288,-567,2,-2,-6,-3,12,999,0:21:05
765,286,-555,1,-2,-5,-6,13,998,0:21:05
763,286,-559,2,-1,-5,-8,12,999,0:21:05
763,286,-559,2,-2,-6,-9,14,1000,0:21:05
759,292,-547,5,4,-7,-5,15,998,0:21:05
777,307,-556,4,0,-6,-3,14,999,0:21:05
769,285,-552,2,0,-6,-7,13,999,0:21:05
784,301,-559,1,-1,-5,-8,12,998,0:21:05
765,295,-550,2,-2,-6,-5,11,998,0:21:05
762,294,-546,4,-2,-5,-4,12,1000,0:21:05
762,294,-546,2,-1,-4,-4,12,999,0:21:05
765,309,-549,2,-3,-5,-6,13,998,0:21:05
765,309,-549,3,-1,-6,-5,14,999,0:21:05
763,274,-547,2,-2,-6,-5,14,999,0:21:05
774,292,-547,2,-1,-6,-4,12,999,0:21:05
765,289,-570,3,0,-5,-7,12,1001,0:21:05
775,286,-556,3,0,-5,-6,13,1001,0:21:05
775,286,-556,2,-2,-5,-6,13,999,0:21:05
747,297,-556,2,-2,-4,-5,14,998,0:21:05
759,277,-549,2,-2,-4,-5,13,1000,0:21:05
760,286,-553,2,-1,-4,-6,14,1002,0:21:05
762,283,-553,2,-1,-4,-6,14,1000,0:21:05
783,286,-558,2,-3,-5,-4,12,999,0:21:05
771,285,-549,2,-1,-6,-3,12,999,0:21:05
771,285,-549,2,-2,-6,-5,14,999,0:21:05
756,297,-564,5,4,-7,-6,14,1001,0:21:06
756,297,-564,2,0,-6,-6,13,1000,0:21:06
760,273,-573,2,-2,-5,-6,12,999,0:21:06
780,298,-562,3,-2,-6,-4,12,998,0:21:06
777,288,-559,2,-2,-5,-5,11,996,0:21:06
766,304,-552,2,-1,-6,-6,11,996,0:21:06
766,304,-552,3,0,-5,-5,14,999,0:21:06
762,289,-568,4,4,-7,-5,14,999,0:21:06
775,307,-541,3,0,-5,-5,15,1000,0:21:06
765,289,-577,2,-3,-5,-6,15,999,0:21:06
783,282,-564,2,0,-6,-6,14,998,0:21:06
760,291,-553,2,0,-6,-5,12,997,0:21:06
760,291,-553,2,0,-6,-5,11,998,0:21:06
765,300,-550,2,-2,-5,-6,12,998,0:21:06
763,286,-538,2,-1,-5,-7,14,998,0:21:06
775,292,-562,1,-1,-5,-6,13,997,0:21:06
784,285,-544,2,-1,-6,-5,11,997,0:21:06
771,277,-564,2,-1,-7,-5,12,998,0:21:06
771,270,-538,2,-1,-5,-6,15,999,0:21:06
771,270,-538,3,-1,-5,-6,13,999,0:21:06
756,285,-571,3,-2,-5,-7,12,999,0:21:06
772,309,-556,2,0,-6,-4,12,998,0:21:06
772,309,-556,2,0,-6,-3,11,998,0:21:06
772,271,-540,2,0,-4,-5,12,999,0:21:06
772,288,-559,3,-1,-5,-6,15,999,0:21:06
766,277,-541,2,-2,-4,-6,13,999,0:21:06
766,277,-541,2,-2,-4,-6,11,998,0:21:06
765,288,-559,2,0,-6,-6,11,998,0:21:06
781,297,-561,3,2,-7,-7,11,998,0:21:06
763,273,-553,2,0,-6,-6,12,999,0:21:06
766,276,-549,2,-3,-6,-5,13,998,0:21:06
750,295,-558,2,-3,-5,-5,14,998,0:21:06
768,288,-567,2,-2,-5,-6,13,999,0:21:06
768,288,-567,2,-2,-6,-7,12,1000,0:21:06
769,271,-555,3,0,-5,-6,12,1000,0:21:06
763,303,-537,5,0,-5,-5,12,1000,0:21:06
763,303,-537,4,-2,-5,-5,11,999,0:21:06
771,307,-555,2,-1,-6,-4,12,997,0:21:06
769,300,-577,2,-1,-6,-5,14,999,0:21:06
1152,283,-555,1,-2,-5,-6,15,1000,0:21:06
774,285,-552,2,-2,-4,-5,14,999,0:21:06
774,285,-552,2,-3,-4,-5,14,998,0:21:06
757,289,-553,2,0,-7,-4,13,1001,0:21:06
781,286,-555,2,-1,-6,-2,14,1000,0:21:06
790,291,-552,2,-2,-5,-2,12,996,0:21:06
754,295,-558,3,0,-5,-3,13,998,0:21:06
778,291,-546,2,-1,-6,-3,13,998,0:21:06
763,291,-561,2,-2,-4,-4,13,1002,0:21:06
763,291,-561,2,-3,-4,-5,11,1000,0:21:06
762,304,-568,2,-1,-5,-5,11,998,0:21:06
762,304,-568,2,-1,-4,-5,13,1000,0:21:06
760,285,-549,2,-1,-4,-5,14,1001,0:21:06
771,303,-547,2,-2,-5,-6,14,999,0:21:06
763,291,-565,3,-1,-4,-6,12,998,0:21:06
763,291,-565,2,-2,-4,-7,12,999,0:21:06
769,309,-541,3,-1,-5,-7,13,998,0:21:06
766,292,-541,1,0,-5,-5,14,997,0:21:06
763,292,-541,1,0,-6,-6,13,999,0:21:06
759,289,-552,1,-2,-5,-7,13,1000,0:21:06
762,289,-552,2,-2,-6,-5,14,1001,0:21:06
768,276,-562,2,-3,-5,-5,12,1000,0:21:06
760,294,-546,2,-2,-5,-7,11,999,0:21:06
760,294,-546,2,-2,-5,-7,11,999,0:21:06
763,291,-552,0,0,-6,-7,11,999,0:21:06
763,291,-552,0,0,-6,-6,13,999,0:21:06
766,283,-559,2,0,-5,-6,13,999,0:21:06
777,283,-564,2,-2,-4,-6,13,1000,0:21:06
781,294,-558,4,0,-6,-6,13,1000,0:21:06
802,288,-559,4,-1,-7,-5,14,1001,0:21:06
802,288,-559,3,-2,-6,-3,12,1000,0:21:06
751,286,-538,2,-7,-4,-3,10,999,0:21:06
751,286,-538,2,-7,-4,-5,11,999,0:21:06
751,277,-565,2,-2,-5,-6,11,998,0:21:06
777,289,-567,2,-2,-5,-6,12,1000,0:21:06
759,295,-535,2,-2,-6,-6,15,1000,0:21:06
778,279,-562,2,-3,-6,-4,14,1000,0:21:06
778,279,-562,2,-2,-6,-4,12,1001,0:21:06
768,300,-553,2,-4,-4,-4,12,1001,0:21:06
771,285,-553,3,-2,-6,-6,10,1001,0:21:06
792,291,-574,2,-3,-6,-8,11,1000,0:21:06
765,286,-571,2,-2,-5,-5,15,998,0:21:06
778,310,-555,3,-2,-6,-3,13,998,0:21:06
771,292,-562,3,-1,-5,-4,12,1000,0:21:06
771,292,-562,2,-2,-6,-5,12,999,0:21:06
765,298,-534,2,-4,-5,-6,12,999,0:21:06
765,298,-534,2,0,-5,-4,11,1000,0:21:06
759,301,-555,2,-2,-4,-4,11,1000,0:21:06
768,297,-558,2,-2,-4,-6,11,1000,0:21:06
781,289,-544,2,0,-5,-6,14,999,0:21:06
781,289,-544,2,0,-5,-5,13,999,0:21:06
780,288,-547,3,0,-5,-5,13,1000,0:21:06
772,276,-544,3,0,-5,-4,12,1001,0:21:06
759,285,-568,2,0,-5,-5,12,1000,0:21:06
772,295,-553,2,0,-5,-5,15,998,0:21:06
775,289,-576,2,-2,-4,-7,14,999,0:21:06
792,286,-562,2,-2,-4,-8,13,1001,0:21:06
769,301,-556,2,-1,-5,-4,14,1001,0:21:06
769,301,-556,3,-2,-6,0,14,999,0:21:06
778,285,-541,3,-1,-5,-3,11,998,0:21:06
778,285,-541,2,0,-6,-6,11,998,0:21:06
771,288,-558,3,-1,-5,-3,12,998,0:21:06
772,285,-555,2,-1,-5,-3,12,999,0:21:06
748,297,-571,2,-1,-5,-3,13,999,0:21:06
748,297,-571,2,-1,-5,-4,14,999,0:21:06
766,288,-547,2,-1,-6,-4,12,1000,0:21:06
762,277,-564,2,0,-5,-4,13,998,0:21:06
742,285,-546,2,0,-5,-4,13,998,0:21:06
753,288,-559,2,0,-6,-7,15,999,0:21:07
769,292,-552,3,-2,-5,-6,14,1000,0:21:07
775,294,-550,3,-2,-5,-4,13,998,0:21:07
750,291,-567,3,-2,-5,-5,13,999,0:21:07
750,291,-567,3,0,-5,-5,12,998,0:21:07
754,304,-555,3,1,-5,-4,12,999,0:21:07
754,304,-555,3,0,-6,-5,13,1001,0:21:07
772,289,-558,3,0,-7,-4,13,1001,0:21:07
762,307,-561,2,-1,-5,-3,11,1000,0:21:07
793,280,-561,2,-2,-4,-3,11,1000,0:21:07
763,291,-543,2,-2,-6,-4,12,999,0:21:07
757,306,-546,2,-2,-6,-5,13,999,0:21:07
757,306,-546,0,-7,-4,-5,14,1001,0:21:07
760,279,-546,2,-4,-4,-6,13,1000,0:21:07
790,300,-561,2,0,-5,-4,10,999,0:21:07
792,294,-562,2,-1,-5,-2,11,999,0:21:07
769,291,-544,2,-2,-4,-4,14,997,0:21:07
769,292,-562,2,-2,-5,-5,13,999,0:21:07
769,292,-562,3,-1,-5,-5,11,1001,0:21:07
751,268,-546,4,4,-7,-5,11,1001,0:21:07
751,268,-546,3,1,-5,-4,13,999,0:21:07
771,289,-570,2,-2,-6,-3,13,1000,0:21:07
762,283,-568,2,-1,-6,-5,11,999,0:21:07
771,300,-535,2,-1,-6,-5,13,998,0:21:07
771,300,-535,2,0,-5,-4,14,998,0:21:07
772,288,-552,3,0,-5,-5,12,999,0:21:07
741,282,-561,4,-2,-5,-5,13,1000,0:21:07
741,282,-561,2,-2,-5,-3,13,1000,0:21:07
780,286,-564,2,-3,-5,-3,12,999,0:21:07
769,262,-555,2,-3,-4,-4,13,999,0:21:07
783,283,-562,2,0,-5,-5,13,999,0:21:07
759,277,-553,2,-2,-6,-6,12,999,0:21:07
759,277,-553,2,-2,-4,-6,12,998,0:21:07
751,276,-534,0,-2,-5,-8,15,997,0:21:07
783,297,-549,2,-1,-6,-8,14,998,0:21:07
760,277,-567,2,-2,-6,-5,13,1000,0:21:07
744,283,-570,2,-2,-6,-5,13,1000,0:21:07
783,294,-567,2,-3,-4,-7,11,998,0:21:07
783,294,-567,2,-2,-5,-7,11,998,0:21:07
771,280,-568,2,-1,-5,-6,12,999,0:21:07
778,300,-528,3,-10,-5,-6,13,999,0:21:07
778,300,-528,2,-3,-5,-5,15,1000,0:21:07
760,306,-546,2,-2,-4,-4,15,1000,0:21:07
771,300,-546,2,-2,-4,-6,12,998,0:21:07
768,283,-556,2,-2,-7,-6,12,998,0:21:07
778,285,-547,2,-2,-6,-6,13,1000,0:21:07
778,285,-547,2,-2,-5,-6,14,1000,0:21:07
756,280,-547,2,-2,-5,-6,14,998,0:21:07
774,285,-538,2,-1,-5,-4,15,998,0:21:07
757,288,-576,3,-2,-6,-4,15,998,0:21:07
768,300,-558,3,-2,-5,-4,15,999,0:21:07
774,298,-561,4,0,-5,-4,16,999,0:21:07
774,298,-561,3,0,-6,-5,13,1000,0:21:07
759,291,-562,2,-2,-5,-5,12,999,0:21:07
762,294,-541,2,1,-7,-6,12,998,0:21:07
762,294,-541,2,0,-6,-6,12,999,0:21:07
766,295,-552,2,-1,-6,-4,13,999,0:21:07
775,294,-571,2,0,-6,-4,12,999,0:21:07
765,282,-561,2,0,-6,-4,12,999,0:21:07
771,303,-562,2,-2,-5,-5,11,999,0:21:07
771,303,-562,2,-1,-5,-7,13,999,0:21:07
772,288,-547,3,0,-7,-8,12,1000,0:21:07
772,292,-546,2,-2,-5,-5,10,1001,0:21:07
774,303,-556,2,-2,-5,-5,13,1000,0:21:07
763,276,-562,2,-3,-4,-6,13,999,0:21:07
772,291,-562,2,-1,-4,-7,13,1000,0:21:07
765,300,-564,2,0,-5,-6,12,1000,0:21:07
765,300,-564,2,-3,-6,-4,10,997,0:21:07
739,307,-565,1,-4,-5,-4,13,1000,0:21:07
739,307,-565,2,-2,-5,-4,13,1000,0:21:07
748,291,-556,3,-2,-7,-4,14,999,0:21:07
771,277,-568,2,-2,-6,-5,14,999,0:21:07
762,282,-559,2,-1,-5,-6,13,998,0:21:07
762,282,-559,2,-1,-5,-5,13,1000,0:21:07
765,292,-541,2,-3,-6,-5,14,1001,0:21:07
765,292,-541,2,-1,-6,-6,16,1000,0:21:07
756,273,-550,2,-1,-6,-5,15,997,0:21:07
771,297,-561,2,-2,-5,-4,14,998,0:21:07
775,303,-528,2,-2,-6,-4,14,998,0:21:07
751,283,-556,2,-1,-5,-4,14,999,0:21:07
751,283,-556,2,-2,-4,-5,13,997,0:21:07
781,303,-558,2,-2,-5,-6,13,997,0:21:07
768,291,-540,2,-2,-5,-6,12,1003,0:21:07
768,291,-540,3,-2,-4,-3,11,1004,0:21:07
780,283,-540,3,-1,-4,-4,12,999,0:21:07
766,280,-561,2,-1,-4,-6,12,998,0:21:07
763,289,-574,2,-1,-5,-5,13,999,0:21:07
763,289,-574,2,-2,-6,-3,14,1000,0:21:07
762,297,-571,2,-2,-4,-3,13,1000,0:21:07
754,291,-541,2,-7,-5,-6,11,999,0:21:07
754,291,-541,2,-3,-5,-6,12,999,0:21:07
751,298,-556,3,-1,-6,-5,13,999,0:21:07
775,273,-549,2,-2,-5,-5,11,1000,0:21:07
760,267,-559,3,-2,-5,-6,11,999,0:21:07
774,303,-552,2,-2,-6,-4,12,998,0:21:07
774,303,-552,2,-1,-6,-3,10,999,0:21:07
766,282,-526,0,-4,-4,-5,11,1000,0:21:07
766,282,-526,3,0,-6,-5,13,1001,0:21:07
777,279,-570,2,-1,-6,-4,13,1001,0:21:07
768,297,-552,2,-2,-4,-4,13,1000,0:21:07
757,277,-561,2,-2,-6,-8,12,999,0:21:07
765,280,-567,2,-2,-6,-6,12,1000,0:21:07
765,280,-567,2,-1,-6,-4,13,1000,0:21:07
768,286,-555,2,-2,-5,-6,13,1001,0:21:07
766,297,-565,4,-2,-6,-5,13,999,0:21:07
769,273,-571,4,0,-5,-6,13,997,0:21:07
771,279,-555,3,0,-5,-9,12,999,0:21:07
760,298,-573,2,-2,-6,-7,11,1000,0:21:08
760,298,-573,2,-2,-5,-5,12,999,0:21:08
778,292,-564,2,-2,-5,-7,14,998,0:21:08
771,292,-541,4,0,-6,-8,13,998,0:21:08
750,292,-552,3,-2,-5,-5,14,997,0:21:08
769,292,-564,2,-4,-5,-2,13,997,0:21:08
777,294,-561,2,-1,-5,-4,10,999,0:21:08
777,291,-553,2,-2,-5,-4,11,1001,0:21:08
762,270,-567,2,-2,-7,-6,13,999,0:21:08
