magX[mG],magY[mG],magZ[mG],gyroX[mdps],gyroY[mdps],gyroZ[mdps],accX[mg],accY[mg],accZ[mg],hh:mm:ss.ms
370,-172,-138,-6,0,-2,89,-973,120,1:15:56
370,-172,-138,-6,0,-2,89,-973,120,1:15:56
370,-172,-138,-6,0,-2,89,-973,120,1:15:56
370,-172,-138,-6,0,-2,89,-973,120,1:15:56
370,-172,-138,-6,0,-2,89,-973,120,1:15:56
370,-172,-138,-6,0,-2,89,-973,120,1:15:56
370,-172,-138,-6,0,-2,89,-973,120,1:15:56
370,-172,-138,-6,0,-2,89,-973,120,1:15:56
370,-172,-138,-6,0,-2,89,-973,120,1:15:56
370,-172,-138,-6,0,-2,89,-973,120,1:15:56
370,-172,-138,-6,0,-2,89,-973,120,1:15:56
370,-172,-138,-6,0,-2,89,-973,120,1:15:56
370,-172,-138,-6,0,-2,89,-973,120,1:15:56
370,-172,-138,-6,0,-2,89,-973,120,1:15:56
370,-172,-138,-6,0,-2,89,-973,120,1:15:56
370,-172,-138,-6,0,-2,89,-973,120,1:15:56
370,-172,-138,-6,0,-2,89,-973,120,1:15:56
370,-172,-138,-6,0,-2,89,-973,120,1:15:56
370,-172,-138,-6,0,-2,89,-973,120,1:15:56
370,-172,-138,-6,0,-2,89,-973,120,1:15:56
370,-172,-138,-6,0,-2,89,-973,120,1:15:56
370,-172,-138,-6,0,-2,89,-973,120,1:15:56
370,-172,-138,-6,0,-2,89,-973,120,1:15:56
370,-172,-138,-6,0,-2,89,-973,120,1:15:56
370,-172,-138,-6,0,-2,89,-973,120,1:15:56
370,-172,-138,-6,0,-2,89,-973,120,1:15:56
370,-172,-138,-6,0,-2,89,-973,120,1:15:56
370,-172,-138,-6,0,-2,89,-973,120,1:15:56
370,-172,-138,-6,0,-2,89,-973,120,1:15:56
370,-172,-138,-6,0,-2,89,-973,120,1:15:56
370,-172,-138,-6,0,-2,89,-973,120,1:15:56
655,-180,-384,8,-13,-9,66,-980,52,1:24:29
685,-178,-399,8,-11,-7,63,-979,50,1:24:29
670,-189,-409,7,-11,-7,66,-980,53,1:24:29
670,-189,-409,7,-11,-7,70,-979,55,1:24:29
682,-168,-390,4,-5,-9,71,-979,55,1:24:29
679,-157,-387,3,1,-10,70,-980,57,1:24:29
666,-150,-382,3,2,-10,72,-978,57,1:24:29
670,-183,-378,2,-2,-9,76,-975,54,1:24:29
679,-162,-378,0,-7,-8,74,-979,54,1:24:29
679,-162,-378,-1,-7,-7,73,-983,56,1:24:29
669,-174,-382,-2,-7,-7,72,-985,60,1:24:29
664,-184,-406,-2,-7,-7,68,-986,58,1:24:29
685,-166,-387,-4,-6,-8,64,-984,57,1:24:29
669,-168,-391,-3,-3,-11,60,-984,59,1:24:29
693,-162,-385,-3,0,-13,62,-983,61,1:24:29
693,-162,-385,0,-2,-12,64,-980,60,1:24:29
691,-177,-384,0,-10,-11,66,-977,57,1:24:29
679,-178,-399,2,-18,-9,65,-977,54,1:24:29
693,-178,-393,2,-17,-9,65,-980,53,1:24:29
685,-178,-390,4,-14,-9,65,-980,53,1:24:29
654,-183,-370,6,-21,-7,68,-982,57,1:24:29
654,-183,-370,5,-22,-6,69,-984,57,1:24:29
649,-160,-397,4,-17,-7,68,-982,54,1:24:29
682,-175,-399,4,-16,-8,68,-979,55,1:24:29
676,-159,-391,4,-16,-8,68,-977,58,1:24:29
678,-171,-393,5,-16,-8,68,-979,59,1:24:29
672,-162,-384,6,-14,-9,68,-980,58,1:24:29
672,-162,-384,7,-8,-9,71,-980,58,1:24:29
675,-183,-379,8,-9,-9,75,-980,59,1:24:29
684,-166,-384,4,-9,-9,75,-977,61,1:24:29
667,-172,-381,2,-7,-8,75,-976,60,1:24:29
679,-178,-394,2,-8,-7,78,-978,59,1:24:29
673,-169,-381,2,-6,-7,77,-981,56,1:24:29
673,-169,-381,1,-4,-7,76,-983,56,1:24:29
687,-178,-382,0,-9,-5,76,-986,57,1:24:29
675,-180,-393,2,0,-7,77,-986,58,1:24:29
675,-165,-403,3,2,-7,75,-982,60,1:24:29
672,-184,-393,0,0,-7,72,-978,59,1:24:29
658,-166,-393,0,-2,-7,71,-976,56,1:24:29
658,-166,-393,0,0,-7,71,-976,56,1:24:29
679,-163,-390,0,2,-8,73,-975,54,1:24:29
646,-171,-379,0,6,-8,71,-978,54,1:24:29
646,-171,-379,3,6,-7,69,-983,57,1:24:29
684,-193,-379,3,6,-7,69,-985,54,1:24:29
676,-178,-393,6,4,-6,70,-986,50,1:24:29
687,-178,-372,7,-2,-7,71,-984,50,1:24:29
687,-178,-372,5,-8,-7,70,-980,49,1:24:29
672,-171,-397,6,-6,-9,68,-979,48,1:24:30
667,-190,-384,9,-5,-10,70,-978,49,1:24:30
667,-178,-390,5,-6,-10,70,-979,51,1:24:30
666,-180,-384,7,-4,-9,71,-981,53,1:24:30
675,-166,-378,11,-4,-9,72,-983,54,1:24:30
675,-166,-378,11,-3,-7,74,-980,53,1:24:30
672,-153,-393,10,-4,-7,75,-978,53,1:24:30
663,-166,-387,7,-7,-8,74,-978,52,1:24:30
670,-178,-369,3,-18,-7,74,-980,52,1:24:30
669,-159,-411,2,-15,-7,72,-984,49,1:24:30
657,-172,-400,1,-11,-7,72,-984,49,1:24:30
676,-175,-385,0,-11,-8,68,-983,46,1:24:30
676,-175,-385,-1,-6,-9,68,-982,50,1:24:30
678,-172,-385,-4,-7,-10,70,-982,55,1:24:30
664,-177,-397,-4,-11,-9,73,-982,58,1:24:30
661,-171,-396,-4,-16,-7,78,-982,61,1:24:30
676,-163,-405,-4,-16,-7,81,-985,61,1:24:30
675,-174,-399,-4,-18,-6,77,-985,55,1:24:30
672,-177,-388,-3,-17,-5,73,-981,53,1:24:30
672,-177,-388,-3,-15,-7,74,-978,52,1:24:30
664,-175,-391,0,-7,-8,75,-980,50,1:24:30
685,-177,-396,2,-1,-9,74,-977,54,1:24:30
657,-172,-385,4,2,-10,75,-975,56,1:24:30
688,-163,-387,1,9,-10,77,-977,60,1:24:30
672,-183,-394,2,4,-8,77,-980,62,1:24:30
672,-183,-394,3,-9,-4,77,-980,57,1:24:30
672,-172,-399,2,-16,-5,74,-980,51,1:24:30
673,-162,-390,2,-17,-5,71,-984,49,1:24:30
679,-174,-411,3,-13,-7,70,-983,50,1:24:30
664,-181,-376,5,-4,-9,70,-980,50,1:24:30
664,-181,-376,2,-2,-9,70,-980,50,1:24:30
669,-178,-412,0,-2,-9,69,-980,52,1:24:30
669,-178,-412,0,-2,-8,70,-980,55,1:24:30
675,-181,-388,1,-2,-7,73,-980,57,1:24:30
664,-145,-381,1,-8,-5,75,-980,57,1:24:30
672,-187,-408,2,-9,-4,73,-980,53,1:24:30
684,-169,-372,2,-9,-4,69,-979,49,1:24:30
669,-181,-394,5,-4,-5,69,-980,49,1:24:30
670,-159,-402,5,-4,-7,75,-979,49,1:24:30
670,-159,-402,4,-4,-8,76,-979,49,1:24:30
669,-166,-396,3,-1,-10,74,-982,50,1:24:30
664,-175,-400,3,0,-10,75,-983,51,1:24:30
660,-180,-406,4,0,-9,76,-984,50,1:24:30
679,-175,-376,7,0,-9,73,-982,48,1:24:30
678,-196,-390,8,0,-9,73,-980,48,1:24:30
678,-196,-390,5,0,-9,73,-980,49,1:24:30
663,-174,-394,3,0,-9,70,-979,52,1:24:30
684,-168,-405,4,2,-9,70,-978,54,1:24:30
670,-186,-399,4,5,-8,71,-979,52,1:24:30
675,-192,-393,2,8,-9,71,-980,50,1:24:30
687,-174,-390,4,9,-8,73,-978,50,1:24:30
687,-174,-390,4,4,-7,73,-978,50,1:24:30
676,-180,-369,2,2,-7,77,-979,51,1:24:30
667,-166,-388,2,1,-7,76,-982,49,1:24:30
669,-154,-402,2,4,-9,74,-983,46,1:24:30
676,-177,-381,2,6,-10,72,-982,49,1:24:30
679,-192,-400,2,6,-10,68,-981,51,1:24:30
679,-192,-400,3,1,-11,66,-981,50,1:24:30
658,-186,-370,4,0,-11,66,-980,50,1:24:30
658,-186,-370,5,7,-11,68,-978,54,1:24:30
666,-165,-408,7,5,-11,70,-977,54,1:24:30
675,-150,-396,9,2,-9,71,-977,51,1:24:30
670,-178,-378,11,-1,-7,72,-978,47,1:24:30
670,-178,-378,12,0,-7,74,-981,46,1:24:30
681,-175,-382,14,3,-8,75,-982,48,1:24:30
670,-180,-393,15,6,-8,72,-982,50,1:24:30
690,-172,-400,18,14,-9,71,-981,50,1:24:30
672,-175,-388,23,16,-9,72,-981,53,1:24:30
670,-183,-394,22,12,-9,74,-980,51,1:24:30
670,-183,-394,22,9,-9,75,-980,42,1:24:30
687,-177,-406,25,11,-9,75,-979,40,1:24:30
687,-201,-385,27,18,-8,75,-979,40,1:24:30
669,-195,-385,28,16,-8,75,-978,46,1:24:30
678,-163,-376,30,13,-8,76,-977,45,1:24:30
673,-168,-388,30,13,-8,77,-979,41,1:24:30
673,-168,-388,30,10,-8,74,-981,37,1:24:30
687,-169,-384,31,11,-7,65,-981,39,1:24:30
697,-181,-381,31,13,-8,61,-980,42,1:24:30
681,-168,-387,31,16,-9,61,-979,43,1:24:30
657,-172,-390,29,18,-11,62,-982,46,1:24:30
684,-154,-393,25,6,-10,65,-983,46,1:24:30
670,-174,-384,21,-9,-7,70,-986,42,1:24:30
670,-174,-384,18,-16,-6,71,-987,44,1:24:30
681,-184,-390,15,-16,-7,68,-987,46,1:24:30
660,-168,-388,10,-14,-9,64,-987,45,1:24:30
681,-166,-381,7,-9,-12,62,-985,44,1:24:30
661,-175,-366,3,0,-14,64,-984,45,1:24:30
679,-172,-378,1,2,-14,72,-983,46,1:24:30
685,-160,-390,0,-7,-11,78,-982,44,1:24:30
685,-160,-390,0,-16,-11,77,-974,40,1:24:30
684,-166,-390,-1,-13,-11,77,-974,40,1:24:30
672,-177,-375,0,-2,-12,74,-970,41,1:24:30
699,-172,-382,0,0,-14,74,-971,45,1:24:30
684,-159,-393,0,4,-14,75,-973,47,1:24:30
661,-181,-381,2,2,-14,77,-977,46,1:24:30
676,-174,-375,2,2,-14,78,-981,48,1:24:30
676,-174,-375,5,-7,-13,76,-983,48,1:24:30
667,-169,-372,7,-4,-16,72,-982,45,1:24:30
675,-175,-385,7,0,-16,71,-984,49,1:24:30
667,-166,-376,10,2,-17,71,-985,56,1:24:30
660,-184,-370,8,-4,-16,72,-984,58,1:24:30
685,-190,-397,8,-2,-16,73,-981,56,1:24:30
684,-162,-370,11,-4,-15,73,-978,55,1:24:30
684,-162,-370,14,-9,-14,72,-976,52,1:24:30
682,-190,-394,16,-9,-12,73,-976,53,1:24:30
663,-174,-400,17,-8,-12,74,-976,53,1:24:30
658,-178,-397,18,-4,-12,75,-976,52,1:24:30
667,-171,-397,15,-9,-12,75,-976,52,1:24:30
648,-169,-372,14,0,-14,77,-980,50,1:24:31
648,-169,-372,13,2,-13,77,-980,50,1:24:31
676,-175,-390,9,-3,-11,79,-983,53,1:24:31
657,-168,-397,7,-4,-12,76,-983,55,1:24:31
666,-183,-388,4,-4,-11,74,-983,53,1:24:31
667,-186,-388,4,-4,-11,70,-985,53,1:24:31
667,-186,-388,4,-4,-11,69,-984,56,1:24:31
688,-175,-370,2,-2,-12,69,-982,57,1:24:31
688,-175,-370,0,-2,-12,69,-981,55,1:24:31
676,-163,-382,0,-4,-12,70,-981,51,1:24:31
666,-163,-405,0,-4,-12,68,-979,48,1:24:31
682,-180,-388,-2,0,-11,67,-978,47,1:24:31
682,-180,-388,-3,0,-12,68,-980,49,1:24:31
672,-177,-381,-4,0,-12,70,-983,52,1:24:31
666,-168,-381,-2,0,-11,67,-984,51,1:24:31
666,-168,-381,-2,-4,-11,66,-981,50,1:24:31
675,-156,-382,2,-7,-11,70,-978,52,1:24:31
673,-169,-399,6,-6,-11,74,-978,53,1:24:31
666,-181,-385,9,-7,-9,76,-977,53,1:24:31
666,-181,-385,9,-8,-9,75,-977,52,1:24:31
693,-175,-387,8,-9,-9,75,-979,50,1:24:31
661,-169,-379,9,0,-9,75,-979,50,1:24:31
669,-178,-381,11,7,-10,72,-981,48,1:24:31
669,-175,-391,13,15,-11,70,-981,47,1:24:31
681,-160,-390,13,15,-9,71,-983,50,1:24:31
681,-160,-390,14,14,-9,71,-984,51,1:24:31
684,-165,-391,14,14,-9,70,-981,48,1:24:31
682,-178,-397,13,13,-8,71,-980,45,1:24:31
697,-175,-406,14,14,-7,72,-981,45,1:24:31
666,-183,-373,13,16,-7,70,-979,45,1:24:31
666,-183,-373,10,19,-7,68,-979,43,1:24:31
676,-183,-379,12,24,-7,68,-979,41,1:24:31
654,-162,-387,14,24,-7,64,-979,43,1:24:31
679,-187,-397,16,21,-6,58,-978,44,1:24:31
670,-175,-394,20,23,-7,52,-979,43,1:24:31
661,-178,-402,20,25,-7,53,-983,41,1:24:31
661,-178,-402,19,20,-6,55,-983,39,1:24:31
684,-184,-403,16,12,-5,53,-984,36,1:24:31
679,-166,-385,14,9,-5,51,-986,33,1:24:31
694,-162,-390,14,11,-4,52,-985,34,1:24:31
673,-163,-393,15,3,-3,53,-984,33,1:24:31
676,-178,-387,15,-4,-2,53,-984,33,1:24:31
676,-178,-387,13,-9,-2,51,-986,30,1:24:31
676,-162,-364,9,-16,-3,48,-988,29,1:24:31
676,-162,-364,6,-24,-4,49,-990,28,1:24:31
670,-177,-372,7,-25,-4,52,-993,32,1:24:31
673,-168,-384,7,-25,-4,51,-991,34,1:24:31
664,-175,-387,7,-30,-4,53,-987,34,1:24:31
664,-175,-387,9,-36,-5,56,-983,31,1:24:31
673,-174,-382,7,-47,-7,57,-982,26,1:24:31
682,-174,-384,9,-48,-7,58,-981,27,1:24:31
676,-181,-370,8,-47,-5,62,-979,30,1:24:31
673,-169,-367,10,-48,-4,69,-978,32,1:24:31
678,-177,-379,11,-46,-2,76,-979,38,1:24:31
678,-177,-379,14,-47,0,82,-979,37,1:24:31
693,-166,-381,12,-49,0,83,-981,36,1:24:31
681,-180,-406,10,-46,0,82,-982,38,1:24:31
679,-157,-373,9,-49,0,82,-981,39,1:24:31
667,-162,-376,7,-41,-2,80,-984,36,1:24:31
678,-165,-385,5,-32,-4,78,-986,33,1:24:31
685,-178,-393,5,-23,-6,79,-983,39,1:24:31
685,-178,-393,5,-21,-7,79,-983,39,1:24:31
684,-178,-387,5,-22,-6,81,-980,45,1:24:31
673,-184,-372,3,-21,-4,81,-979,44,1:24:31
675,-178,-384,2,-22,-4,81,-977,44,1:24:31
687,-166,-388,0,-18,-4,86,-979,42,1:24:31
652,-165,-382,0,-18,-4,88,-979,38,1:24:31
652,-165,-382,0,-7,-5,86,-977,37,1:24:31
676,-178,-388,0,6,-7,85,-977,38,1:24:31
675,-169,-384,0,13,-7,86,-978,43,1:24:31
673,-171,-367,0,16,-7,88,-978,46,1:24:31
666,-181,-372,1,11,-7,86,-977,43,1:24:31
681,-186,-370,2,15,-7,82,-977,40,1:24:31
681,-184,-403,2,16,-7,83,-977,40,1:24:31
681,-184,-403,3,16,-7,83,-978,40,1:24:31
694,-186,-381,3,16,-7,79,-982,40,1:24:31
685,-174,-378,3,14,-6,76,-983,41,1:24:31
682,-165,-387,4,14,-7,69,-983,38,1:24:31
678,-145,-384,5,14,-7,66,-982,38,1:24:31
673,-174,-379,2,18,-8,66,-979,39,1:24:31
664,-172,-391,1,15,-8,66,-978,38,1:24:31
664,-172,-391,3,11,-7,66,-978,38,1:24:31
676,-180,-376,4,8,-5,68,-981,37,1:24:31
679,-190,-379,4,5,-5,68,-983,37,1:24:31
672,-166,-378,5,7,-6,65,-980,32,1:24:31
664,-166,-361,7,6,-7,61,-980,28,1:24:31
688,-169,-375,7,6,-7,59,-983,30,1:24:31
688,-169,-375,6,8,-7,58,-983,36,1:24:31
672,-183,-387,6,0,-7,63,-984,42,1:24:31
672,-171,-385,6,-9,-5,66,-986,40,1:24:31
681,-157,-373,7,-16,-5,63,-985,35,1:24:31
670,-166,-388,7,-16,-7,61,-983,32,1:24:31
651,-171,-375,9,-23,-7,61,-981,31,1:24:31
651,-171,-375,9,-18,-10,63,-981,31,1:24:31
670,-183,-379,10,-11,-11,65,-979,31,1:24:31
676,-195,-394,12,-10,-8,69,-977,32,1:24:31
673,-181,-369,14,-11,-7,69,-977,33,1:24:31
678,-163,-384,16,-10,-6,65,-978,33,1:24:31
670,-181,-390,14,-11,-5,68,-982,37,1:24:31
670,-181,-390,11,-18,-4,73,-985,44,1:24:31
643,-177,-381,5,-24,-4,72,-989,47,1:24:31
684,-186,-385,0,-21,-4,72,-989,47,1:24:31
675,-199,-390,0,-13,-4,70,-991,44,1:24:31
685,-180,-390,3,-8,-6,68,-990,38,1:24:31
670,-169,-411,3,-8,-6,71,-988,38,1:24:31
670,-169,-411,5,-9,-4,77,-987,38,1:24:31
676,-181,-358,4,-8,-5,77,-984,37,1:24:31
676,-181,-358,4,-5,-7,77,-979,35,1:24:32
664,-166,-376,1,-4,-7,80,-976,34,1:24:32
663,-183,-367,0,-5,-7,81,-974,35,1:24:32
672,-174,-384,4,-2,-7,81,-975,33,1:24:32
672,-174,-384,8,2,-6,84,-978,31,1:24:32
678,-183,-388,8,6,-6,83,-980,33,1:24:32
667,-174,-384,7,9,-6,80,-981,37,1:24:32
669,-190,-381,7,10,-5,80,-981,40,1:24:32
675,-157,-372,8,5,-4,78,-981,42,1:24:32
688,-184,-379,8,0,-3,75,-982,42,1:24:32
669,-163,-379,9,-3,-4,76,-981,39,1:24:32
669,-163,-379,8,-5,-3,77,-979,38,1:24:32
682,-178,-388,8,-5,-3,76,-979,38,1:24:32
645,-180,-373,5,-2,-5,76,-979,38,1:24:32
645,-180,-373,3,0,-6,78,-979,38,1:24:32
691,-184,-387,2,2,-6,78,-981,35,1:24:32
681,-177,-376,3,0,-5,78,-985,34,1:24:32
691,-174,-388,3,0,-5,77,-986,33,1:24:32
691,-174,-388,1,-1,-6,76,-984,30,1:24:32
676,-189,-388,1,1,-6,78,-982,32,1:24:32
678,-180,-403,1,1,-5,78,-981,35,1:24:32
675,-187,-406,1,-2,-4,75,-981,35,1:24:32
672,-172,-382,3,-2,-4,71,-978,37,1:24:32
669,-177,-379,4,-4,-4,71,-976,36,1:24:32
673,-153,-370,4,-4,-4,72,-977,35,1:24:32
673,-153,-370,5,0,-4,71,-981,34,1:24:32
679,-181,-385,7,4,-4,72,-980,32,1:24:32
667,-159,-376,7,12,-5,73,-978,31,1:24:32
667,-159,-376,8,16,-4,74,-982,32,1:24:32
663,-180,-379,9,14,-2,75,-984,32,1:24:32
666,-181,-393,8,22,-3,73,-983,32,1:24:32
681,-165,-396,7,28,-4,72,-981,34,1:24:32
681,-165,-396,6,27,-4,72,-982,35,1:24:32
684,-171,-397,6,23,-3,72,-982,35,1:24:32
681,-171,-376,10,14,-3,72,-984,35,1:24:32
679,-154,-399,9,13,-2,76,-984,36,1:24:32
666,-171,-385,7,18,-3,76,-981,35,1:24:32
679,-172,-382,7,18,-4,77,-979,35,1:24:32
679,-172,-382,7,18,-4,79,-980,34,1:24:32
675,-178,-370,6,15,-2,79,-983,34,1:24:32
681,-180,-384,7,11,-2,76,-984,34,1:24:32
670,-184,-355,9,12,-4,73,-982,29,1:24:32
664,-178,-391,7,13,-5,71,-983,28,1:24:32
660,-181,-399,7,10,-4,71,-982,32,1:24:32
682,-166,-390,9,7,-4,74,-978,31,1:24:32
682,-166,-390,9,1,-4,73,-979,28,1:24:32
684,-183,-394,7,-2,-3,72,-984,28,1:24:32
690,-187,-393,7,0,-3,71,-983,28,1:24:32
654,-175,-373,6,8,-3,69,-983,31,1:24:32
654,-175,-373,-1,-2,-3,68,-986,30,1:24:32
682,-169,-381,-2,-6,-4,67,-987,26,1:24:32
676,-172,-354,-1,-4,-5,70,-987,31,1:24:32
676,-172,-354,0,-3,-6,73,-986,38,1:24:32
678,-166,-375,-1,-7,-4,73,-986,38,1:24:32
684,-175,-372,0,-11,-4,73,-984,37,1:24:32
673,-172,-370,0,-16,-4,72,-983,34,1:24:32
676,-174,-381,0,-22,-4,70,-981,29,1:24:32
681,-174,-379,0,-22,-4,71,-980,24,1:24:32
681,-174,-379,0,-20,-5,75,-980,26,1:24:32
688,-168,-388,0,-16,-4,78,-983,29,1:24:32
676,-187,-385,1,-16,-3,79,-984,32,1:24:32
691,-168,-390,0,-16,-4,76,-982,34,1:24:32
664,-195,-378,2,-13,-4,75,-982,35,1:24:32
664,-195,-378,4,-16,-3,79,-984,37,1:24:32
667,-201,-370,2,-21,-2,83,-982,35,1:24:32
667,-201,-370,2,-20,-2,83,-979,32,1:24:32
669,-174,-376,2,-18,-2,82,-980,33,1:24:32
655,-186,-372,1,-13,-3,82,-980,35,1:24:32
678,-186,-393,1,-5,-4,82,-978,35,1:24:32
676,-166,-381,0,2,-4,80,-979,34,1:24:32
678,-186,-366,0,1,-5,81,-978,34,1:24:32
666,-174,-387,2,2,-4,82,-979,36,1:24:32
666,-174,-387,4,3,-2,81,-981,36,1:24:32
660,-201,-379,7,2,-1,81,-981,36,1:24:32
684,-180,-381,9,5,0,81,-980,33,1:24:32
667,-192,-393,9,8,0,80,-977,33,1:24:32
666,-168,-364,9,11,0,81,-980,34,1:24:32
678,-189,-397,9,11,0,79,-983,34,1:24:32
669,-172,-379,9,11,0,75,-982,31,1:24:32
669,-172,-379,7,14,0,71,-981,31,1:24:32
682,-178,-381,8,15,0,66,-980,33,1:24:32
688,-174,-391,9,13,0,66,-980,32,1:24:32
682,-168,-388,9,12,0,71,-980,31,1:24:32
667,-181,-376,2,2,2,73,-982,30,1:24:32
669,-178,-393,6,2,2,74,-983,30,1:24:32
672,-180,-363,7,5,3,75,-981,29,1:24:32
672,-180,-363,3,9,2,75,-980,28,1:24:32
667,-175,-376,0,11,3,74,-978,29,1:24:32
676,-181,-391,0,14,4,74,-975,31,1:24:32
684,-171,-388,0,18,3,72,-976,32,1:24:32
642,-178,-372,-2,23,4,68,-976,37,1:24:32
669,-187,-385,-5,24,6,68,-976,37,1:24:32
688,-163,-369,-6,23,8,67,-978,44,1:24:32
688,-163,-369,-4,18,11,69,-987,48,1:24:32
667,-174,-384,1,9,13,71,-992,50,1:24:32
679,-175,-382,10,0,14,70,-992,47,1:24:32
684,-178,-376,15,-1,11,68,-986,37,1:24:32
658,-181,-382,15,-1,11,68,-976,31,1:24:32
670,-184,-372,14,4,9,69,-973,32,1:24:32
670,-184,-372,14,14,8,70,-971,32,1:24:32
673,-175,-372,18,14,9,70,-972,35,1:24:32
675,-174,-384,21,11,16,72,-975,36,1:24:32
678,-175,-378,25,5,19,72,-976,35,1:24:32
675,-168,-379,27,0,23,69,-975,35,1:24:32
666,-175,-357,23,-1,24,66,-975,33,1:24:32
666,-175,-357,21,3,24,64,-973,34,1:24:32
673,-187,-388,16,11,25,64,-973,37,1:24:33
684,-171,-390,9,23,25,64,-978,44,1:24:33
688,-174,-396,4,39,26,67,-983,49,1:24:33
678,-181,-385,4,49,30,68,-986,50,1:24:33
664,-201,-376,8,44,32,70,-985,50,1:24:33
661,-184,-379,13,36,36,70,-985,50,1:24:33
661,-184,-379,2,35,36,74,-979,38,1:24:33
675,-177,-366,-14,40,32,77,-973,28,1:24:33
672,-177,-385,-28,53,28,72,-970,27,1:24:33
676,-189,-387,-28,56,28,66,-970,30,1:24:33
678,-181,-384,-24,47,31,66,-971,40,1:24:33
660,-192,-400,-24,47,31,70,-971,49,1:24:33
660,-192,-400,-23,42,33,72,-968,53,1:24:33
660,-165,-379,-21,30,34,75,-970,59,1:24:33
658,-172,-384,-17,23,35,76,-979,71,1:24:33
676,-163,-363,-4,15,37,77,-991,78,1:24:33
654,-178,-384,11,4,37,78,-998,74,1:24:33
679,-196,-361,28,-8,41,77,-994,67,1:24:33
679,-196,-361,42,-27,44,70,-985,58,1:24:33
655,-175,-372,58,-51,47,61,-972,48,1:24:33
655,-175,-372,63,-69,47,56,-966,39,1:24:33
669,-184,-382,62,-81,47,53,-966,37,1:24:33
655,-181,-382,60,-86,49,54,-970,43,1:24:33
658,-159,-384,69,-81,47,47,-988,69,1:24:33
658,-159,-384,57,-98,55,51,-992,72,1:24:33
660,-183,-375,50,-112,60,51,-992,72,1:24:33
652,-172,-363,50,-123,63,63,-984,52,1:24:33
658,-171,-384,46,-128,68,67,-985,54,1:24:33
675,-186,-378,49,-134,72,70,-985,54,1:24:33
660,-178,-372,49,-134,72,70,-982,49,1:24:33
660,-178,-372,51,-143,74,71,-977,47,1:24:33
670,-183,-381,47,-158,77,78,-969,43,1:24:33
634,-166,-385,46,-169,77,85,-963,34,1:24:33
645,-168,-372,44,-172,77,92,-959,27,1:24:33
645,-168,-372,42,-165,79,102,-952,13,1:24:33
648,-186,-382,46,-161,85,105,-956,8,1:24:33
661,-180,-381,55,-149,90,109,-965,0,1:24:33
661,-180,-381,69,-146,99,111,-974,2,1:24:33
642,-190,-378,76,-151,105,105,-986,18,1:24:33
660,-189,-384,76,-170,110,102,-986,27,1:24:33
646,-181,-390,73,-191,114,99,-983,34,1:24:33
657,-187,-373,70,-215,111,96,-974,34,1:24:33
649,-190,-382,58,-224,105,112,-957,14,1:24:33
640,-181,-382,41,-224,94,131,-953,1,1:24:33
640,-181,-382,22,-219,79,137,-957,8,1:24:33
657,-181,-381,4,-219,69,137,-969,24,1:24:33
648,-192,-381,-7,-228,65,147,-969,16,1:24:33
639,-187,-381,-9,-231,61,167,-983,14,1:24:33
639,-178,-385,-7,-228,54,181,-993,7,1:24:33
648,-187,-384,-18,-225,52,179,-1013,16,1:24:33
648,-187,-384,-18,-225,52,175,-1022,29,1:24:33
660,-171,-390,-23,-232,48,174,-1016,44,1:24:33
631,-174,-378,-25,-255,47,189,-1012,56,1:24:33
654,-183,-393,-8,-268,40,208,-1000,53,1:24:33
624,-202,-382,3,-310,52,213,-985,44,1:24:33
651,-202,-394,6,-357,57,209,-972,37,1:24:33
630,-199,-391,10,-384,51,212,-966,32,1:24:33
630,-199,-391,9,-385,42,225,-965,22,1:24:33
645,-195,-385,3,-371,36,236,-968,12,1:24:33
637,-180,-376,-2,-352,32,234,-971,10,1:24:33
631,-177,-384,-3,-348,33,221,-972,11,1:24:33
622,-195,-367,-2,-350,32,209,-973,10,1:24:33
633,-180,-393,-5,-347,28,200,-973,0,1:24:33
643,-199,-385,-11,-329,23,193,-966,-9,1:24:33
643,-199,-385,-7,-318,21,188,-961,0,1:24:33
633,-171,-403,1,-319,22,188,-961,0,1:24:33
616,-199,-396,11,-327,25,189,-956,15,1:24:33
625,-186,-412,19,-340,28,196,-948,23,1:24:33
621,-184,-367,27,-357,32,210,-938,26,1:24:33
621,-184,-367,37,-366,36,230,-924,17,1:24:33
624,-186,-406,37,-366,36,243,-916,4,1:24:33
624,-186,-406,44,-358,35,245,-921,-8,1:24:33
624,-199,-397,49,-332,30,243,-932,-16,1:24:33
615,-190,-397,52,-284,21,233,-945,-7,1:24:33
633,-187,-394,52,-235,11,216,-954,12,1:24:33
613,-190,-385,43,-212,6,204,-959,34,1:24:33
607,-190,-399,42,-196,0,202,-967,50,1:24:33
607,-190,-399,40,-208,4,206,-963,48,1:24:33
618,-172,-394,36,-230,7,213,-954,34,1:24:33
613,-181,-409,41,-226,9,207,-953,13,1:24:33
606,-201,-399,51,-190,7,193,-940,5,1:24:33
610,-190,-367,58,-160,0,189,-923,19,1:24:33
609,-175,-396,64,-137,-6,199,-920,34,1:24:33
609,-175,-396,77,-126,-14,210,-925,42,1:24:33
595,-207,-403,82,-131,-22,215,-929,40,1:24:33
607,-195,-399,81,-142,-30,215,-929,40,1:24:33
604,-187,-409,84,-149,-39,222,-934,23,1:24:33
621,-181,-393,80,-142,-51,219,-951,7,1:24:33
606,-186,-391,67,-128,-60,207,-969,8,1:24:33
606,-186,-391,67,-128,-60,201,-978,3,1:24:33
607,-205,-376,59,-116,-66,202,-982,2,1:24:33
613,-190,-390,60,-93,-71,201,-984,9,1:24:33
612,-189,-408,59,-69,-76,203,-980,24,1:24:33
601,-192,-388,58,-67,-74,215,-971,49,1:24:33
618,-196,-391,65,-88,-72,226,-968,58,1:24:33
618,-196,-391,73,-102,-72,230,-968,55,1:24:33
604,-199,-382,79,-107,-78,233,-963,53,1:24:33
604,-199,-382,81,-113,-88,235,-958,45,1:24:33
598,-214,-393,81,-109,-97,236,-953,35,1:24:33
613,-217,-387,90,-95,-104,228,-954,33,1:24:33
615,-193,-403,98,-83,-113,218,-952,37,1:24:33
615,-193,-403,103,-78,-119,203,-960,39,1:24:33
607,-189,-400,112,-84,-124,188,-973,42,1:24:33
600,-193,-375,123,-107,-125,172,-973,49,1:24:33
613,-199,-373,138,-125,-127,152,-972,56,1:24:33
595,-201,-393,154,-137,-130,152,-972,56,1:24:33
618,-186,-388,161,-142,-138,139,-968,65,1:24:33
615,-196,-381,155,-148,-149,136,-960,78,1:24:34
615,-196,-381,155,-148,-149,145,-953,86,1:24:34
613,-198,-378,147,-159,-158,160,-951,87,1:24:34
613,-196,-373,139,-172,-166,178,-953,89,1:24:34
613,-196,-373,132,-176,-174,188,-950,85,1:24:34
606,-204,-385,130,-169,-182,196,-950,87,1:24:34
606,-198,-387,133,-147,-189,214,-960,97,1:24:34
631,-202,-390,135,-117,-197,243,-976,105,1:24:34
631,-202,-390,122,-102,-204,277,-1008,111,1:24:34
607,-198,-382,89,-104,-203,303,-1059,112,1:24:34
615,-207,-382,41,-119,-191,310,-1120,106,1:24:34
612,-201,-370,-16,-131,-166,301,-1183,103,1:24:34
619,-205,-406,-88,-131,-130,280,-1229,99,1:24:34
633,-213,-381,-172,-91,-94,263,-1257,83,1:24:34
633,-213,-381,-265,-9,-72,248,-1256,63,1:24:34
604,-207,-388,-373,96,-70,227,-1239,64,1:24:34
634,-183,-382,-494,180,-85,205,-1216,87,1:24:34
598,-207,-387,-636,236,-105,205,-1216,87,1:24:34
621,-186,-393,-756,277,-117,195,-1179,86,1:24:34
618,-187,-418,-854,326,-120,184,-1130,32,1:24:34
646,-196,-408,-868,385,-107,155,-1089,-53,1:24:34
646,-196,-408,-868,385,-107,86,-1020,-130,1:24:34
616,-184,-420,-917,480,-133,-8,-987,-130,1:24:34
627,-180,-436,-987,565,-164,-70,-957,-74,1:24:34
615,-180,-411,-1033,600,-207,-95,-897,-32,1:24:34
633,-187,-433,-1021,641,-242,-104,-935,56,1:24:34
640,-184,-441,-1288,762,-301,-102,-1007,163,1:24:34
646,-180,-429,-1441,814,-352,-81,-1016,176,1:24:34
646,-180,-429,-1389,807,-333,-12,-988,126,1:24:34
624,-166,-439,-1272,742,-288,15,-986,135,1:24:34
637,-159,-445,-1196,646,-245,-12,-1010,168,1:24:34
646,-130,-451,-1178,564,-218,-16,-1062,177,1:24:34
660,-139,-454,-1176,462,-165,-27,-1096,196,1:24:34
658,-139,-454,-1091,349,-92,7,-1088,145,1:24:34
660,-138,-484,-972,318,-4,91,-1102,46,1:24:34
660,-138,-484,-821,353,107,154,-1111,-21,1:24:34
661,-130,-483,-707,455,194,174,-1100,-28,1:24:34
660,-135,-478,-645,569,263,174,-1100,-28,1:24:34
673,-121,-471,-644,706,291,175,-1098,33,1:24:34
661,-136,-492,-672,807,280,165,-1072,102,1:24:34
666,-118,-480,-702,849,263,134,-1014,160,1:24:34
666,-118,-480,-702,849,263,91,-945,231,1:24:34
675,-124,-487,-706,858,247,41,-871,283,1:24:34
675,-118,-480,-683,868,225,0,-811,298,1:24:34
676,-109,-478,-654,877,191,-44,-793,306,1:24:34
678,-115,-486,-585,848,152,-81,-790,307,1:24:34
691,-91,-496,-532,807,125,-98,-801,299,1:24:34
678,-94,-484,-513,784,119,-105,-840,291,1:24:34
678,-94,-484,-493,753,78,-96,-876,290,1:24:34
685,-109,-492,-459,715,55,-102,-885,302,1:24:34
705,-111,-489,-403,655,51,-118,-872,318,1:24:34
694,-102,-493,-331,564,50,-115,-862,321,1:24:34
697,-100,-495,-254,461,54,-106,-848,319,1:24:34
694,-94,-484,-184,348,65,-98,-821,325,1:24:34
699,-106,-511,-119,251,77,-94,-797,339,1:24:34
699,-106,-511,-66,193,70,-92,-776,353,1:24:34
700,-73,-486,-37,154,67,-88,-742,353,1:24:34
700,-115,-501,-2,136,58,-88,-742,353,1:24:34
724,-84,-501,46,138,49,-79,-734,351,1:24:34
724,-76,-465,103,135,49,-65,-739,344,1:24:34
709,-99,-478,159,135,40,-50,-744,336,1:24:34
699,-88,-492,159,135,40,-30,-763,335,1:24:34
699,-88,-492,198,128,37,-14,-779,340,1:24:34
700,-91,-484,228,102,45,-3,-793,350,1:24:34
703,-100,-484,265,70,56,-2,-789,370,1:24:34
706,-111,-492,306,26,72,-20,-774,388,1:24:34
711,-90,-474,352,-31,87,-32,-759,386,1:24:34
720,-97,-484,401,-86,103,-39,-756,393,1:24:34
720,-97,-484,441,-115,106,-42,-762,397,1:24:34
699,-123,-477,464,-130,110,-33,-764,398,1:24:34
720,-117,-489,476,-135,116,-27,-771,411,1:24:34
709,-105,-474,485,-139,124,-20,-778,420,1:24:34
708,-118,-487,485,-153,137,-2,-789,415,1:24:34
690,-123,-489,487,-142,149,1,-808,443,1:24:34
690,-123,-489,484,-137,161,-4,-827,485,1:24:34
682,-121,-480,488,-148,173,1,-840,506,1:24:34
684,-106,-477,494,-158,189,1,-855,506,1:24:34
691,-132,-480,469,-189,205,26,-855,523,1:24:34
699,-139,-463,451,-133,215,90,-868,505,1:24:34
690,-142,-480,402,-86,227,134,-908,519,1:24:34
690,-142,-480,402,-86,227,163,-970,560,1:24:34
675,-151,-462,325,-66,246,205,-1030,566,1:24:34
690,-141,-465,271,-68,282,214,-1059,567,1:24:34
688,-150,-457,248,-92,315,178,-1027,576,1:24:34
693,-141,-459,219,-64,305,115,-967,615,1:24:34
697,-141,-468,175,44,277,51,-865,648,1:24:34
697,-141,-468,155,161,245,-59,-779,722,1:24:34
685,-132,-445,201,257,210,-115,-722,638,1:24:34
688,-151,-465,263,268,191,-102,-753,421,1:24:34
676,-148,-465,285,147,179,-113,-957,326,1:24:34
679,-154,-457,289,-100,167,-118,-1241,291,1:24:34
672,-139,-456,323,-483,132,-104,-1504,193,1:24:34
672,-139,-456,409,-864,105,-107,-1627,40,1:24:34
679,-138,-453,431,-982,54,-96,-1625,16,1:24:34
660,-150,-459,268,-765,17,-7,-1544,123,1:24:34
660,-144,-445,-1,-350,10,34,-1346,280,1:24:34
673,-162,-469,-252,-49,0,34,-1346,280,1:24:34
670,-177,-454,-322,-102,-5,-29,-1056,388,1:24:34
667,-142,-463,-161,-500,2,-91,-742,340,1:24:34
667,-142,-463,109,-920,-12,-116,-449,132,1:24:34
678,-153,-474,300,-1066,-65,-125,-264,-114,1:24:34
654,-151,-466,350,-884,-151,76,-497,-248,1:24:34
652,-148,-472,272,-581,-216,309,-814,-162,1:24:34
642,-147,-465,207,-401,-191,516,-1094,-55,1:24:34
658,-154,-466,236,-422,-86,635,-1264,-11,1:24:34
658,-154,-466,366,-580,67,639,-1317,-42,1:24:34
640,-163,-459,487,-644,219,535,-1265,-100,1:24:35
636,-162,-463,501,-555,294,334,-1147,-65,1:24:35
628,-159,-460,440,-426,282,116,-990,57,1:24:35
634,-169,-466,366,-376,224,-19,-869,174,1:24:35
645,-159,-478,294,-405,143,-112,-829,274,1:24:35
645,-159,-478,273,-536,83,-132,-820,281,1:24:35
633,-159,-471,306,-682,41,-87,-849,212,1:24:35
642,-150,-463,314,-774,11,-26,-918,138,1:24:35
624,-175,-457,301,-784,-3,73,-968,13,1:24:35
612,-163,-456,276,-690,-6,73,-968,13,1:24:35
612,-163,-456,241,-567,5,193,-1014,-109,1:24:35
609,-175,-469,231,-484,32,288,-1038,-155,1:24:35
609,-175,-469,231,-484,32,335,-1016,-149,1:24:35
625,-201,-463,239,-408,49,336,-968,-130,1:24:35
604,-160,-462,245,-291,49,307,-905,-122,1:24:35
606,-169,-450,263,-133,40,267,-866,-128,1:24:35
589,-169,-447,312,-1,37,217,-870,-109,1:24:35
603,-165,-460,327,109,24,191,-909,-50,1:24:35
604,-184,-471,317,182,9,192,-938,5,1:24:35
604,-184,-471,317,193,0,185,-943,48,1:24:35
595,-181,-447,326,156,-2,177,-946,74,1:24:35
603,-181,-447,323,105,-6,174,-945,92,1:24:35
603,-201,-444,310,60,-14,179,-945,99,1:24:35
598,-192,-429,294,32,-23,190,-941,92,1:24:35
594,-177,-445,289,18,-37,205,-939,85,1:24:35
600,-190,-436,279,7,-58,218,-947,75,1:24:35
600,-190,-436,275,-4,-70,231,-950,74,1:24:35
612,-195,-450,284,-5,-79,231,-943,73,1:24:35
603,-184,-451,302,7,-98,217,-929,82,1:24:35
609,-201,-462,322,16,-118,217,-929,82,1:24:35
619,-171,-442,323,32,-142,210,-913,98,1:24:35
592,-193,-441,329,53,-158,215,-925,90,1:24:35
601,-198,-429,329,53,-158,222,-938,83,1:24:35
601,-198,-429,329,70,-166,232,-940,88,1:24:35
603,-198,-442,337,79,-166,244,-946,96,1:24:35
613,-199,-426,341,90,-156,252,-950,113,1:24:35
618,-207,-420,336,78,-140,254,-957,132,1:24:35
618,-189,-424,328,54,-123,251,-969,145,1:24:35
628,-192,-462,312,16,-112,242,-977,156,1:24:35
616,-198,-420,286,-18,-112,229,-985,168,1:24:35
616,-198,-420,242,-59,-112,216,-987,175,1:24:35
615,-192,-423,200,-98,-118,202,-982,171,1:24:35
609,-201,-421,158,-115,-137,180,-980,160,1:24:35
613,-213,-420,119,-108,-175,163,-988,143,1:24:35
622,-192,-420,62,-71,-220,186,-1023,105,1:24:35
615,-205,-426,30,-28,-252,205,-1059,65,1:24:35
622,-220,-414,-10,6,-268,200,-1067,44,1:24:35
622,-220,-414,-53,88,-278,200,-1067,44,1:24:35
630,-217,-433,-102,231,-284,212,-1053,19,1:24:35
625,-199,-432,-166,340,-274,240,-1039,1,1:24:35
627,-198,-421,-258,386,-245,257,-1033,10,1:24:35
633,-207,-408,-371,375,-198,247,-1046,29,1:24:35
633,-207,-408,-371,375,-198,220,-1100,73,1:24:35
625,-199,-424,-508,336,-147,182,-1175,113,1:24:35
643,-183,-432,-658,339,-111,178,-1235,85,1:24:35
631,-190,-421,-802,368,-78,194,-1265,36,1:24:35
649,-186,-442,-888,394,-44,170,-1246,0,1:24:35
642,-187,-454,-963,403,-34,107,-1196,-25,1:24:35
643,-189,-436,-1120,606,-100,13,-1100,-36,1:24:35
642,-172,-454,-1138,788,-121,21,-1044,-44,1:24:35
652,-172,-465,-1195,861,-203,0,-997,16,1:24:35
657,-178,-454,-1331,997,-272,18,-1048,24,1:24:35
652,-168,-480,-1304,1220,-297,62,-973,-128,1:24:35
652,-168,-480,-1224,1460,-312,76,-925,-116,1:24:35
675,-162,-471,-1131,1425,-303,83,-984,59,1:24:35
684,-139,-457,-1041,1173,-268,67,-988,178,1:24:35
684,-139,-457,-963,926,-222,52,-1020,186,1:24:35
681,-138,-472,-914,778,-183,52,-1020,186,1:24:35
705,-118,-483,-905,623,-135,51,-1082,180,1:24:35
682,-130,-478,-835,461,-42,71,-1121,246,1:24:35
682,-130,-478,-735,403,80,120,-1133,249,1:24:35
708,-115,-474,-658,465,200,138,-1151,178,1:24:35
712,-117,-493,-658,465,200,119,-1135,129,1:24:35
712,-117,-493,-588,546,282,73,-1057,130,1:24:35
718,-130,-495,-543,619,336,9,-966,155,1:24:35
709,-115,-486,-531,684,355,-48,-884,192,1:24:35
709,-115,-486,-519,753,315,-80,-820,217,1:24:35
718,-120,-483,-506,809,262,-70,-814,230,1:24:35
724,-96,-490,-490,864,224,-32,-847,234,1:24:35
706,-94,-477,-471,898,209,-3,-880,232,1:24:35
718,-115,-495,-459,883,208,2,-905,260,1:24:35
721,-87,-501,-427,829,239,21,-905,254,1:24:35
732,-105,-475,-367,781,261,42,-891,224,1:24:35
732,-105,-475,-324,756,276,29,-875,231,1:24:35
744,-117,-513,-289,744,281,2,-840,246,1:24:35
729,-90,-493,-255,744,261,-28,-791,262,1:24:35
727,-103,-472,-193,703,256,-68,-731,275,1:24:35
727,-103,-472,-107,665,231,-68,-731,275,1:24:35
730,-117,-478,-37,622,209,-96,-697,299,1:24:35
736,-108,-484,7,569,201,-96,-702,326,1:24:35
736,-108,-484,7,569,201,-79,-727,345,1:24:35
744,-118,-480,32,536,191,-51,-779,364,1:24:35
753,-85,-484,42,518,200,-22,-816,368,1:24:35
745,-111,-462,60,527,209,1,-844,372,1:24:35
751,-114,-462,88,546,224,25,-864,383,1:24:35
744,-115,-466,121,560,244,48,-879,395,1:24:35
741,-93,-466,140,573,268,70,-893,403,1:24:35
741,-93,-466,149,573,298,83,-880,394,1:24:35
741,-96,-474,167,571,331,76,-850,398,1:24:35
753,-136,-475,184,570,355,59,-822,429,1:24:35
739,-127,-459,225,555,389,41,-809,468,1:24:35
739,-127,-459,305,545,420,43,-811,517,1:24:35
756,-129,-444,373,508,446,54,-807,565,1:24:35
748,-132,-435,417,480,457,64,-785,572,1:24:35
748,-132,-435,429,478,464,85,-767,535,1:24:35
739,-114,-450,421,543,467,113,-780,482,1:24:35
760,-139,-460,402,645,450,146,-806,439,1:24:36
753,-135,-418,373,740,415,158,-830,419,1:24:36
744,-136,-427,337,849,368,158,-830,419,1:24:36
765,-138,-418,312,954,320,172,-866,391,1:24:36
753,-135,-409,312,954,320,193,-910,356,1:24:36
753,-135,-409,285,1008,263,174,-954,352,1:24:36
753,-135,-421,263,1013,214,127,-978,347,1:24:36
757,-156,-427,289,1044,179,74,-999,330,1:24:36
760,-123,-384,303,1087,181,25,-1013,330,1:24:36
760,-123,-384,294,1143,203,-20,-1006,360,1:24:36
760,-157,-375,279,1199,233,-59,-979,396,1:24:36
781,-153,-370,271,1239,274,-75,-923,409,1:24:36
781,-153,-370,284,1245,319,-73,-850,408,1:24:36
778,-175,-375,319,1222,366,-55,-792,391,1:24:36
762,-157,-358,350,1153,420,-28,-750,349,1:24:36
765,-151,-354,389,1106,464,-25,-728,330,1:24:36
760,-169,-358,413,1050,507,-20,-731,324,1:24:36
771,-162,-346,422,963,546,12,-758,295,1:24:36
772,-162,-355,428,839,576,27,-818,250,1:24:36
772,-162,-355,464,638,585,13,-907,193,1:24:36
783,-166,-351,517,422,564,13,-907,193,1:24:36
772,-189,-331,537,321,514,-20,-1036,124,1:24:36
750,-196,-312,572,327,447,-45,-1193,55,1:24:36
751,-181,-337,639,317,356,-46,-1327,43,1:24:36
763,-187,-324,704,295,249,-21,-1384,54,1:24:36
768,-195,-319,704,295,249,-16,-1380,30,1:24:36
768,-195,-319,655,364,129,-20,-1383,34,1:24:36
768,-193,-298,492,517,25,17,-1347,105,1:24:36
753,-183,-310,314,696,-42,50,-1232,185,1:24:36
748,-214,-285,172,859,-88,46,-1058,236,1:24:36
759,-165,-298,105,905,-121,23,-861,246,1:24:36
760,-180,-289,123,788,-141,7,-698,192,1:24:36
762,-199,-285,189,624,-151,17,-616,89,1:24:36
762,-199,-285,270,568,-156,57,-621,5,1:24:36
775,-166,-273,353,657,-145,142,-681,-23,1:24:36
768,-193,-277,418,847,-104,249,-774,19,1:24:36
756,-187,-253,441,1027,-49,350,-884,113,1:24:36
766,-202,-259,457,1176,19,445,-990,186,1:24:36
772,-183,-261,458,1303,88,515,-1059,215,1:24:36
772,-183,-261,461,1347,145,537,-1074,200,1:24:36
765,-195,-261,456,1356,184,537,-1074,200,1:24:36
778,-193,-250,437,1361,197,514,-1041,144,1:24:36
765,-192,-256,433,1414,191,456,-998,71,1:24:36
751,-201,-213,429,1480,168,399,-972,10,1:24:36
751,-201,-213,434,1514,155,320,-951,-2,1:24:36
766,-175,-198,434,1514,155,225,-931,0,1:24:36
766,-175,-198,438,1572,157,198,-935,3,1:24:36
771,-202,-187,424,1619,165,203,-948,26,1:24:36
760,-201,-181,419,1622,174,194,-945,35,1:24:36
760,-205,-172,406,1607,168,181,-945,43,1:24:36
745,-219,-160,381,1582,167,201,-956,46,1:24:36
759,-210,-162,352,1583,168,227,-972,35,1:24:36
759,-210,-162,305,1606,166,234,-1004,26,1:24:36
765,-205,-150,271,1603,184,240,-1001,-4,1:24:36
750,-193,-148,259,1652,196,237,-972,-51,1:24:36
754,-192,-142,270,1716,194,226,-981,-69,1:24:36
724,-213,-129,266,1736,190,233,-1000,-51,1:24:36
702,-201,-105,263,1677,219,212,-974,-52,1:24:36
702,-201,-105,263,1618,232,166,-963,-94,1:24:36
730,-187,-117,280,1554,238,164,-995,-147,1:24:36
726,-196,-99,302,1553,267,164,-995,-147,1:24:36
706,-198,-94,317,1574,262,160,-1001,-159,1:24:36
708,-204,-96,337,1591,261,146,-1013,-138,1:24:36
702,-204,-109,337,1591,261,154,-1035,-100,1:24:36
702,-204,-109,353,1591,277,152,-1025,-58,1:24:36
693,-190,-60,354,1554,282,131,-1005,-32,1:24:36
676,-213,-82,339,1505,268,134,-985,-13,1:24:36
679,-180,-73,321,1465,241,172,-978,-19,1:24:36
670,-207,-54,310,1435,240,205,-975,-48,1:24:36
660,-186,-46,315,1442,218,197,-953,-86,1:24:36
660,-186,-46,323,1428,215,192,-981,-106,1:24:36
643,-192,-33,312,1407,224,200,-1018,-93,1:24:36
643,-192,-33,299,1327,179,199,-1015,-57,1:24:36
649,-186,-60,282,1374,203,175,-1020,-51,1:24:36
639,-196,-40,277,1339,211,142,-1027,-73,1:24:36
631,-210,-43,270,1308,196,126,-1036,-88,1:24:36
631,-210,-43,264,1308,160,120,-1039,-95,1:24:36
618,-211,-28,245,1322,138,153,-1044,-81,1:24:36
621,-195,-25,223,1318,133,184,-1024,-51,1:24:36
595,-192,-21,200,1270,124,184,-1024,-51,1:24:36
595,-187,-15,186,1202,112,195,-987,-61,1:24:36
604,-186,-9,178,1171,95,198,-972,-92,1:24:36
600,-196,-21,168,1165,80,195,-974,-105,1:24:36
600,-196,-21,168,1165,80,173,-977,-102,1:24:36
594,-186,-10,166,1193,49,139,-964,-80,1:24:36
565,-198,-3,156,1188,14,129,-959,-48,1:24:36
565,-198,-3,128,1151,-21,131,-971,-19,1:24:36
550,-186,-1,93,1096,-47,144,-988,-1,1:24:36
568,-190,-10,60,1042,-60,141,-1005,0,1:24:36
555,-187,1,51,1010,-69,155,-1021,-16,1:24:36
555,-187,1,57,960,-70,167,-1033,-38,1:24:36
568,-192,-15,67,929,-75,158,-1027,-48,1:24:36
553,-171,-19,71,901,-81,159,-1009,-55,1:24:36
550,-193,3,86,894,-92,160,-992,-35,1:24:36
546,-172,1,84,872,-102,158,-978,3,1:24:36
534,-193,-13,74,849,-118,157,-959,3,1:24:36
547,-186,-4,63,813,-137,164,-948,-6,1:24:36
547,-186,-4,49,774,-143,156,-949,0,1:24:36
538,-177,-10,39,738,-147,125,-950,-7,1:24:36
519,-174,-10,42,710,-158,104,-948,-7,1:24:36
519,-174,-10,33,640,-168,104,-948,-7,1:24:36
528,-175,-10,24,604,-179,83,-957,3,1:24:36
517,-177,4,28,582,-187,65,-966,-7,1:24:36
528,-177,-21,28,582,-187,67,-972,-11,1:24:36
528,-177,-21,22,537,-193,70,-983,14,1:24:36
528,-174,-25,18,499,-200,79,-997,38,1:24:36
504,-189,3,7,463,-204,87,-997,31,1:24:37
504,-189,3,0,459,-214,104,-985,26,1:24:37
528,-175,7,10,442,-217,139,-977,32,1:24:37
507,-198,-6,26,427,-225,164,-967,28,1:24:37
538,-171,3,35,421,-232,180,-958,28,1:24:37
538,-171,3,44,420,-240,189,-954,37,1:24:37
511,-171,-22,53,422,-242,182,-961,50,1:24:37
519,-186,12,68,417,-246,176,-967,63,1:24:37
516,-189,27,70,413,-246,180,-968,75,1:24:37
517,-178,7,66,403,-241,181,-979,72,1:24:37
529,-192,0,74,387,-224,185,-992,52,1:24:37
520,-171,-19,104,387,-203,180,-990,34,1:24:37
520,-171,-19,130,403,-191,167,-980,26,1:24:37
519,-189,6,140,436,-189,167,-980,26,1:24:37
519,-189,6,143,439,-193,167,-940,58,1:24:37
505,-177,7,134,436,-193,167,-940,58,1:24:37
525,-202,7,135,440,-193,188,-927,67,1:24:37
508,-186,6,135,440,-193,211,-917,41,1:24:37
519,-184,-12,139,452,-193,245,-926,15,1:24:37
519,-184,-12,145,506,-179,258,-930,0,1:24:37
525,-180,6,173,570,-167,248,-925,4,1:24:37
507,-180,-9,208,613,-157,235,-933,20,1:24:37
520,-178,0,237,674,-152,206,-938,32,1:24:37
496,-186,9,254,738,-153,165,-944,61,1:24:37
495,-163,9,259,766,-155,129,-953,100,1:24:37
502,-162,0,247,756,-159,113,-947,120,1:24:37
502,-162,0,220,721,-172,98,-954,128,1:24:37
484,-174,-1,177,692,-186,91,-968,127,1:24:37
486,-171,3,131,679,-193,102,-960,114,1:24:37
486,-171,3,74,693,-205,111,-958,90,1:24:37
483,-189,-4,0,753,-224,120,-973,79,1:24:37
487,-174,12,-73,794,-232,120,-973,79,1:24:37
469,-181,4,-156,835,-231,134,-986,88,1:24:37
469,-181,4,-233,890,-218,147,-998,79,1:24:37
478,-166,-4,-317,944,-200,150,-1012,64,1:24:37
486,-168,-18,-426,977,-182,119,-1018,84,1:24:37
457,-178,-25,-556,980,-155,82,-1031,130,1:24:37
453,-192,-18,-556,980,-155,51,-1028,153,1:24:37
462,-175,-19,-669,968,-120,16,-1019,154,1:24:37
450,-181,-25,-763,945,-81,-15,-1032,146,1:24:37
450,-181,-25,-842,946,-44,-45,-1051,123,1:24:37
448,-196,-28,-919,1001,-11,-48,-1100,108,1:24:37
456,-199,-31,-999,1090,30,-44,-1151,137,1:24:37
456,-199,-31,-1046,1035,80,-47,-1122,172,1:24:37
448,-205,-39,-1075,911,108,-30,-1126,166,1:24:37
436,-193,-66,-1080,772,149,13,-1188,95,1:24:37
430,-219,-90,-1059,662,210,43,-1226,-12,1:24:37
430,-219,-90,-986,586,280,44,-1222,-114,1:24:37
444,-208,-87,-844,609,365,6,-1200,-104,1:24:37
415,-210,-87,-765,711,418,-41,-1210,-5,1:24:37
406,-204,-81,-746,861,443,-48,-1255,54,1:24:37
423,-225,-106,-791,1005,510,11,-1343,113,1:24:37
414,-195,-91,-793,1100,652,11,-1343,113,1:24:37
394,-213,-115,-798,1166,826,153,-1366,131,1:24:37
394,-213,-115,-868,1274,881,188,-1334,187,1:24:37
400,-223,-126,-900,1390,859,93,-1279,221,1:24:37
352,-210,-118,-900,1390,859,18,-1130,155,1:24:37
352,-210,-118,-949,1495,742,-78,-957,86,1:24:37
366,-234,-141,-1003,1628,582,-176,-887,87,1:24:37
358,-211,-178,-980,1661,448,-289,-835,201,1:24:37
355,-207,-192,-898,1586,309,-332,-790,270,1:24:37
355,-207,-192,-823,1502,169,-273,-802,277,1:24:37
355,-223,-186,-791,1346,58,-204,-811,309,1:24:37
370,-205,-196,-774,1139,-21,-162,-824,373,1:24:37
370,-205,-196,-767,878,-95,-190,-816,428,1:24:37
343,-216,-210,-686,707,-135,-167,-788,344,1:24:37
360,-214,-226,-546,675,-140,-106,-787,245,1:24:37
357,-232,-229,-422,637,-109,-82,-792,236,1:24:37
357,-232,-229,-308,585,-65,-62,-790,224,1:24:37
355,-222,-225,-193,541,-21,-58,-762,193,1:24:37
357,-207,-222,-98,508,6,-80,-708,172,1:24:37
355,-235,-234,-2,456,27,-110,-674,184,1:24:37
382,-217,-250,91,406,57,-110,-674,184,1:24:37
363,-214,-255,201,371,75,-123,-640,180,1:24:37
357,-214,-240,312,350,89,-134,-609,198,1:24:37
357,-214,-240,312,350,89,-135,-610,262,1:24:37
363,-207,-256,419,335,112,-128,-611,333,1:24:37
354,-210,-241,528,338,141,-122,-601,400,1:24:37
339,-202,-240,621,364,170,-102,-620,437,1:24:37
342,-223,-228,681,417,202,-68,-685,463,1:24:37
352,-219,-235,713,456,248,-24,-770,507,1:24:37
352,-219,-235,717,422,319,19,-852,575,1:24:37
346,-204,-225,668,282,407,61,-914,644,1:24:37
336,-207,-231,591,109,470,59,-965,722,1:24:37
327,-196,-196,474,-81,500,15,-971,780,1:24:37
333,-211,-211,321,-221,464,-45,-960,811,1:24:37
345,-193,-219,120,-266,384,-113,-968,810,1:24:37
339,-208,-208,-98,-194,284,-163,-964,690,1:24:37
339,-208,-208,-201,-29,163,-219,-960,458,1:24:37
339,-195,-223,-81,151,29,-204,-939,188,1:24:37
330,-198,-231,178,385,-67,-114,-952,64,1:24:37
322,-207,-201,255,594,-26,-29,-986,238,1:24:37
322,-207,-201,9,572,99,-29,-986,238,1:24:37
334,-202,-235,-130,352,153,-26,-890,504,1:24:37
325,-198,-249,17,124,163,-149,-711,490,1:24:37
325,-198,-249,17,124,163,-240,-622,277,1:24:37
331,-196,-219,246,-35,221,-148,-684,188,1:24:37
330,-193,-220,380,-231,392,99,-933,299,1:24:37
310,-196,-232,364,-655,565,351,-1362,441,1:24:37
331,-181,-213,273,-1131,610,493,-1737,346,1:24:37
327,-189,-202,169,-1410,558,489,-1744,80,1:24:37
318,-193,-195,126,-1463,471,300,-1418,-205,1:24:37
318,-193,-195,215,-1195,304,-68,-984,-389,1:24:37
322,-184,-198,345,-632,77,-378,-662,-249,1:24:37
303,-204,-202,315,-147,-102,-368,-588,142,1:24:37
309,-166,-178,210,-42,-186,-153,-655,427,1:24:37
309,-166,-178,130,-266,-231,57,-714,439,1:24:37
336,-192,-193,130,-605,-245,205,-773,225,1:24:38
322,-183,-186,197,-872,-210,332,-887,-33,1:24:38
322,-183,-186,289,-994,-86,471,-1016,-194,1:24:38
325,-195,-154,445,-968,85,505,-1096,-256,1:24:38
313,-181,-163,512,-753,211,505,-1128,-256,1:24:38
334,-180,-160,465,-474,291,459,-1140,39,1:24:38
327,-166,-162,363,-424,317,390,-1140,39,1:24:38
321,-186,-157,377,-583,309,224,-1071,335,1:24:38
322,-174,-145,377,-583,309,77,-943,490,1:24:38
322,-174,-145,480,-849,262,-11,-848,422,1:24:38
324,-178,-157,597,-975,220,-11,-840,228,1:24:38
325,-178,-141,596,-916,151,61,-890,67,1:24:38
294,-177,-124,511,-790,68,162,-952,11,1:24:38
324,-172,-120,451,-690,28,257,-1001,-3,1:24:38
324,-172,-120,434,-611,21,282,-994,-25,1:24:38
331,-168,-129,434,-520,27,289,-960,-42,1:24:38
330,-187,-115,424,-427,24,278,-915,-49,1:24:38
328,-177,-102,427,-326,20,249,-878,-41,1:24:38
316,-180,-109,422,-242,19,219,-878,-7,1:24:38
330,-154,-109,429,-218,4,223,-894,33,1:24:38
330,-154,-109,433,-219,-8,250,-907,32,1:24:38
324,-177,-115,415,-219,-21,265,-924,24,1:24:38
325,-172,-115,401,-222,-27,269,-938,40,1:24:38
334,-160,-100,387,-229,-34,273,-937,55,1:24:38
330,-160,-106,373,-236,-40,273,-937,55,1:24:38
348,-180,-88,364,-240,-34,263,-928,57,1:24:38
348,-180,-88,351,-243,-45,239,-919,50,1:24:38
324,-148,-84,347,-249,-56,232,-917,37,1:24:38
328,-154,-81,346,-246,-65,231,-925,38,1:24:38
334,-169,-87,346,-246,-65,215,-931,43,1:24:38
333,-150,-70,331,-250,-79,203,-931,38,1:24:38
342,-148,-90,314,-246,-94,196,-921,34,1:24:38
342,-148,-90,305,-241,-109,193,-919,43,1:24:38
322,-154,-64,307,-238,-116,189,-915,35,1:24:38
322,-154,-64,328,-228,-121,180,-899,-3,1:24:38
337,-147,-61,370,-204,-126,171,-882,-16,1:24:38
334,-168,-72,410,-182,-137,164,-864,10,1:24:38
339,-138,-73,444,-183,-147,167,-861,34,1:24:38
339,-138,-73,467,-207,-149,181,-874,40,1:24:38
343,-144,-76,478,-251,-144,191,-890,43,1:24:38
334,-162,-42,479,-296,-138,194,-903,40,1:24:38
339,-145,-54,479,-326,-134,201,-918,35,1:24:38
349,-145,-60,468,-349,-137,205,-929,26,1:24:38
358,-145,-54,450,-356,-144,205,-929,26,1:24:38
336,-142,-28,436,-336,-163,218,-934,23,1:24:38
336,-142,-28,424,-318,-177,238,-946,27,1:24:38
358,-145,-63,415,-316,-186,250,-969,27,1:24:38
339,-133,-45,394,-317,-192,249,-987,41,1:24:38
339,-133,-45,394,-317,-192,241,-1000,68,1:24:38
364,-144,-40,366,-315,-192,219,-1011,78,1:24:38
372,-166,-36,329,-304,-192,189,-1013,55,1:24:38
370,-145,-21,286,-287,-194,166,-1009,36,1:24:38
370,-145,-21,245,-275,-191,160,-1000,37,1:24:38
375,-154,-21,198,-281,-188,189,-990,40,1:24:38
366,-144,-24,147,-285,-179,235,-988,40,1:24:38
367,-150,-28,104,-271,-159,280,-977,27,1:24:38
388,-153,-31,58,-221,-137,314,-972,24,1:24:38
351,-138,-34,28,-149,-119,323,-980,53,1:24:38
369,-148,-24,2,-87,-118,310,-999,97,1:24:38
369,-148,-24,-30,-60,-123,296,-1039,138,1:24:38
363,-135,-15,-82,-78,-130,297,-1082,152,1:24:38
357,-141,-10,-138,-119,-133,319,-1113,125,1:24:38
357,-141,-10,-188,-155,-131,343,-1137,61,1:24:38
376,-141,-24,-228,-135,-130,350,-1167,0,1:24:38
379,-141,-37,-286,-64,-136,350,-1167,0,1:24:38
361,-159,-27,-364,49,-135,352,-1204,-54,1:24:38
361,-159,-27,-457,202,-115,351,-1236,-133,1:24:38
397,-147,-33,-532,362,-81,321,-1258,-209,1:24:38
390,-151,-37,-532,362,-81,231,-1257,-231,1:24:38
367,-151,-42,-619,500,-51,106,-1251,-169,1:24:38
369,-151,-39,-703,623,-6,-4,-1221,-106,1:24:38
381,-154,-60,-776,728,14,-101,-1143,-68,1:24:38
373,-151,-61,-920,759,0,-133,-1091,0,1:24:38
373,-151,-61,-1028,681,-7,-95,-1047,29,1:24:38
351,-156,-84,-1096,621,-11,-45,-1040,4,1:24:38
357,-174,-76,-1183,588,-4,8,-1081,0,1:24:38
357,-174,-76,-1243,518,17,29,-1117,33,1:24:38
369,-177,-84,-1259,361,44,15,-1146,87,1:24:38
349,-186,-96,-1279,171,47,-8,-1181,128,1:24:38
361,-180,-109,-1284,-78,53,-49,-1178,142,1:24:38
361,-180,-109,-1248,-364,76,-89,-1156,120,1:24:38
366,-183,-112,-1265,-557,102,-78,-1200,78,1:24:38
364,-171,-138,-1289,-693,130,-36,-1209,4,1:24:38
366,-181,-133,-1209,-640,121,-36,-1209,4,1:24:38
369,-201,-142,-1179,-308,93,-24,-1161,-161,1:24:38
358,-189,-144,-1145,263,-4,-25,-1063,-344,1:24:38
358,-189,-144,-1094,709,-61,-2,-975,-384,1:24:38
352,-196,-151,-1070,924,-84,48,-930,-266,1:24:38
369,-174,-157,-1070,924,-84,82,-952,-48,1:24:38
346,-208,-171,-1080,1002,-98,81,-1022,119,1:24:38
363,-202,-171,-1095,1053,-136,93,-1046,141,1:24:38
360,-198,-186,-1111,1050,-143,101,-1057,153,1:24:38
336,-210,-225,-1092,996,-105,130,-1049,208,1:24:38
336,-210,-225,-991,879,-17,152,-1007,230,1:24:38
370,-180,-220,-849,735,76,106,-955,227,1:24:38
361,-196,-240,-739,673,129,38,-923,223,1:24:38
336,-169,-231,-662,644,131,-43,-877,204,1:24:38
336,-169,-231,-592,673,102,-132,-838,171,1:24:38
367,-199,-241,-536,688,91,-170,-836,162,1:24:38
366,-199,-238,-485,729,63,-199,-823,177,1:24:38
366,-199,-238,-424,780,28,-215,-792,192,1:24:38
342,-219,-273,-343,763,-21,-200,-774,235,1:24:38
337,-201,-259,-242,648,-44,-182,-749,279,1:24:38
340,-187,-243,-135,532,-63,-182,-749,279,1:24:38
352,-184,-262,-16,421,-60,-140,-724,302,1:24:38
357,-181,-270,89,330,-39,-90,-724,322,1:24:38
340,-172,-273,182,249,-3,-43,-730,353,1:24:38
340,-172,-273,182,249,-3,0,-716,382,1:24:39
369,-195,-270,263,173,33,25,-694,396,1:24:39
363,-186,-288,366,123,67,31,-666,379,1:24:39
352,-189,-246,498,124,104,28,-649,335,1:24:39
352,-189,-246,614,144,142,21,-653,315,1:24:39
354,-205,-253,717,174,171,29,-685,311,1:24:39
360,-190,-256,772,187,191,47,-736,320,1:24:39
360,-190,-256,798,184,207,46,-786,360,1:24:39
352,-180,-240,798,159,215,21,-831,409,1:24:39
351,-199,-253,779,124,214,-3,-869,441,1:24:39
352,-187,-228,735,85,203,-25,-912,448,1:24:39
346,-198,-232,667,51,179,-53,-948,448,1:24:39
340,-199,-250,596,38,153,-66,-985,440,1:24:39
340,-189,-225,517,25,130,-69,-1015,439,1:24:39
340,-189,-225,449,10,117,-60,-1022,418,1:24:39
339,-190,-234,375,37,114,-51,-1007,383,1:24:39
343,-181,-217,284,84,102,-51,-1007,383,1:24:39
346,-178,-208,206,119,83,-65,-981,379,1:24:39
346,-178,-208,189,160,65,-73,-941,347,1:24:39
333,-196,-247,219,208,66,-53,-884,268,1:24:39
355,-189,-237,219,208,66,-37,-843,218,1:24:39
355,-189,-237,249,234,97,-42,-822,215,1:24:39
330,-193,-220,276,184,133,-53,-821,226,1:24:39
331,-189,-214,315,29,145,-47,-849,228,1:24:39
339,-208,-208,371,-149,141,-22,-886,184,1:24:39
342,-186,-228,453,-301,144,10,-929,88,1:24:39
352,-180,-208,574,-410,178,26,-992,12,1:24:39
343,-192,-217,630,-471,219,42,-1090,32,1:24:39
343,-192,-217,582,-475,248,87,-1213,119,1:24:39
331,-175,-196,464,-432,264,123,-1292,204,1:24:39
321,-171,-198,324,-373,273,112,-1249,249,1:24:39
321,-166,-160,216,-328,260,60,-1110,238,1:24:39
321,-166,-160,200,-345,226,-11,-960,190,1:24:39
349,-157,-177,245,-415,168,-31,-876,117,1:24:39
330,-187,-187,299,-476,107,10,-876,43,1:24:39
330,-187,-187,314,-464,51,53,-923,14,1:24:39
330,-162,-177,257,-343,0,53,-923,14,1:24:39
327,-156,-186,165,-182,-34,95,-976,34,1:24:39
324,-169,-168,114,-128,-21,168,-994,121,1:24:39
328,-157,-183,114,-128,-21,174,-952,90,1:24:39
327,-157,-180,177,-210,23,184,-920,20,1:24:39
327,-157,-180,261,-245,72,198,-917,-43,1:24:39
328,-171,-184,324,-203,112,202,-928,-64,1:24:39
337,-178,-165,354,-120,136,196,-944,-16,1:24:39
313,-174,-160,366,-51,149,193,-954,54,1:24:39
328,-153,-160,355,-37,151,204,-963,102,1:24:39
327,-168,-163,375,-33,171,209,-982,116,1:24:39
327,-168,-163,389,-64,188,192,-998,112,1:24:39
318,-169,-157,346,-105,172,170,-1008,109,1:24:39
334,-156,-156,289,-98,140,153,-1014,78,1:24:39
336,-160,-147,237,-47,104,145,-1017,50,1:24:39
327,-153,-132,202,13,78,153,-1015,67,1:24:39
327,-153,-132,172,24,70,164,-1018,114,1:24:39
327,-153,-132,144,7,80,168,-1014,126,1:24:39
324,-153,-147,139,-7,88,168,-1014,126,1:24:39
327,-159,-162,135,-38,100,173,-1004,115,1:24:39
312,-147,-144,121,-86,96,166,-998,120,1:24:39
319,-142,-139,112,-109,102,174,-990,94,1:24:39
315,-151,-148,114,-98,91,197,-975,43,1:24:39
315,-151,-148,114,-98,91,199,-968,14,1:24:39
319,-151,-157,121,-90,86,199,-968,10,1:24:39
336,-165,-168,133,-93,82,201,-960,7,1:24:39
315,-145,-145,146,-89,72,202,-949,2,1:24:39
334,-163,-163,149,-74,60,205,-941,-7,1:24:39
334,-138,-153,144,-53,46,205,-931,-18,1:24:39
334,-138,-153,142,-14,31,200,-927,-23,1:24:39
319,-148,-124,142,9,19,198,-939,-17,1:24:39
328,-154,-139,144,25,9,199,-958,-1,1:24:39
315,-156,-129,152,28,4,198,-968,9,1:24:39
319,-156,-148,163,30,2,192,-963,11,1:24:39
307,-157,-147,168,37,0,181,-953,12,1:24:39
307,-157,-147,164,41,-2,171,-953,17,1:24:39
297,-142,-129,152,43,-7,165,-957,25,1:24:39
328,-135,-121,135,34,-11,166,-953,32,1:24:39
313,-145,-129,112,32,-17,166,-953,32,1:24:39
315,-160,-144,88,31,-21,169,-951,40,1:24:39
310,-141,-135,70,30,-23,171,-950,45,1:24:39
310,-141,-135,70,30,-23,182,-954,47,1:24:39
316,-160,-136,53,32,-24,194,-968,49,1:24:39
328,-139,-130,53,32,-24,198,-990,59,1:24:39
328,-139,-130,49,31,-23,204,-1005,69,1:24:39
321,-145,-139,54,34,-19,212,-1008,72,1:24:39
303,-141,-139,54,35,-17,221,-1003,68,1:24:39
322,-138,-133,35,32,-23,228,-987,57,1:24:39
322,-138,-133,32,26,-24,221,-973,42,1:24:39
328,-135,-124,21,25,-31,205,-969,26,1:24:39
306,-151,-133,-1,36,-44,199,-962,0,1:24:39
313,-162,-145,4,58,-46,195,-964,-9,1:24:39
316,-165,-142,15,79,-46,185,-975,0,1:24:39
306,-136,-139,15,95,-46,174,-979,2,1:24:39
313,-142,-138,20,101,-44,165,-973,7,1:24:39
313,-142,-138,33,92,-39,159,-969,16,1:24:39
316,-159,-135,48,81,-34,149,-975,27,1:24:39
322,-147,-123,61,64,-31,149,-975,27,1:24:39
322,-147,-123,70,43,-27,145,-982,31,1:24:39
321,-129,-150,79,21,-19,142,-990,27,1:24:39
312,-148,-135,88,4,-14,142,-994,22,1:24:39
322,-156,-144,88,4,-14,149,-988,25,1:24:39
322,-156,-144,95,-11,-11,159,-982,26,1:24:39
309,-156,-132,101,-25,-9,169,-980,16,1:24:39
316,-154,-138,107,-27,-7,173,-972,3,1:24:39
322,-145,-139,116,-20,-7,176,-965,-5,1:24:39
309,-148,-132,128,-19,-8,173,-965,-6,1:24:39
324,-141,-127,142,-27,-9,163,-963,-4,1:24:39
312,-130,-127,154,-38,-13,152,-958,-5,1:24:39
312,-130,-127,163,-49,-15,147,-950,-9,1:24:39
319,-126,-129,163,-52,-20,141,-941,-19,1:24:40
309,-126,-129,159,-49,-26,139,-940,-32,1:24:40
309,-126,-129,153,-34,-31,139,-948,-38,1:24:40
313,-139,-112,147,-21,-35,141,-959,-39,1:24:40
337,-153,-126,142,-7,-39,145,-974,-36,1:24:40
319,-142,-145,131,9,-37,137,-980,-32,1:24:40
319,-142,-145,126,17,-42,134,-986,-22,1:24:40
327,-156,-136,114,15,-44,134,-986,-22,1:24:40
328,-150,-138,102,6,-41,140,-1004,-7,1:24:40
315,-165,-121,88,-3,-37,135,-1015,2,1:24:40
318,-150,-144,72,-3,-38,127,-1014,7,1:24:40
312,-139,-129,72,-3,-38,124,-1009,5,1:24:40
312,-139,-129,52,0,-43,123,-1002,0,1:24:40
310,-144,-139,32,3,-49,121,-996,-8,1:24:40
322,-144,-133,18,7,-53,123,-990,-13,1:24:40
310,-138,-117,7,6,-56,125,-984,-16,1:24:40
331,-144,-127,0,7,-58,127,-980,-16,1:24:40
330,-148,-114,-2,8,-58,131,-979,-13,1:24:40
321,-147,-135,-1,4,-52,140,-977,-14,1:24:40
321,-147,-135,0,3,-46,147,-974,-17,1:24:40
319,-154,-130,5,3,-41,141,-970,-19,1:24:40
333,-135,-133,9,4,-40,132,-965,-18,1:24:40
304,-141,-126,14,7,-43,127,-960,-16,1:24:40
304,-141,-126,14,7,-45,123,-961,-10,1:24:40
328,-154,-123,16,1,-46,121,-967,-8,1:24:40
322,-151,-130,17,-3,-46,118,-973,-8,1:24:40
322,-151,-130,21,-7,-47,116,-980,-9,1:24:40
321,-144,-135,26,-5,-48,116,-980,-9,1:24:40
313,-142,-115,31,0,-49,118,-983,-13,1:24:40
312,-145,-115,35,11,-51,114,-983,-12,1:24:40
312,-127,-136,32,16,-53,111,-984,-8,1:24:40
325,-135,-151,23,16,-58,114,-991,-2,1:24:40
334,-145,-133,23,16,-58,114,-997,5,1:24:40
334,-145,-133,14,9,-60,115,-999,9,1:24:40
316,-169,-126,8,5,-63,118,-995,6,1:24:40
315,-150,-121,4,0,-62,120,-987,5,1:24:40
319,-138,-114,2,-3,-60,123,-988,5,1:24:40
319,-138,-114,0,-9,-57,122,-988,2,1:24:40
330,-163,-129,-1,-15,-56,120,-979,0,1:24:40
336,-145,-102,-7,-16,-56,119,-970,2,1:24:40
336,-145,-102,-13,-15,-56,119,-968,9,1:24:40
339,-153,-139,-16,-21,-53,122,-970,11,1:24:40
337,-148,-126,-20,-30,-47,123,-972,8,1:24:40
325,-157,-136,-23,-49,-42,120,-974,5,1:24:40
339,-157,-136,-25,-44,-40,117,-976,5,1:24:40
340,-154,-127,-18,-39,-39,116,-974,4,1:24:40
322,-130,-129,-12,-36,-39,116,-971,2,1:24:40
322,-130,-129,-10,-30,-40,113,-971,2,1:24:40
324,-142,-126,-13,-22,-44,112,-967,4,1:24:40
318,-154,-132,-16,-17,-46,115,-969,11,1:24:40
333,-141,-130,-22,-18,-46,120,-976,20,1:24:40
333,-141,-130,-22,-18,-46,130,-981,23,1:24:40
318,-133,-112,-25,-30,-44,131,-984,21,1:24:40
331,-141,-129,-24,-36,-39,125,-984,16,1:24:40
331,-141,-129,-21,-34,-38,118,-978,14,1:24:40
348,-139,-129,-20,-34,-39,114,-976,15,1:24:40
318,-151,-138,-22,-33,-39,112,-976,17,1:24:40
318,-151,-138,-28,-23,-40,113,-978,20,1:24:40
343,-151,-127,-29,-25,-39,114,-980,24,1:24:40
334,-153,-136,-31,-27,-37,113,-979,23,1:24:40
334,-153,-136,-29,-25,-37,113,-978,20,1:24:40
345,-166,-141,-27,-25,-37,111,-978,20,1:24:40
325,-153,-132,-28,-25,-36,110,-975,19,1:24:40
318,-135,-130,-28,-24,-36,109,-976,17,1:24:40
331,-142,-126,-27,-30,-35,106,-977,15,1:24:40
333,-138,-132,-24,-26,-33,106,-977,15,1:24:40
334,-142,-133,-21,-22,-32,104,-974,17,1:24:40
334,-142,-133,-19,-22,-31,101,-973,20,1:24:40
328,-141,-126,-16,-18,-30,100,-972,19,1:24:40
337,-148,-142,-15,-24,-28,101,-975,15,1:24:40
333,-144,-138,-14,-32,-25,103,-977,14,1:24:40
336,-156,-120,-14,-32,-25,102,-979,17,1:24:40
325,-151,-121,-11,-33,-25,97,-977,21,1:24:40
331,-162,-118,-10,-35,-28,99,-975,22,1:24:40
331,-162,-118,-9,-39,-30,101,-976,16,1:24:40
345,-153,-130,-9,-42,-31,100,-976,13,1:24:40
340,-156,-121,-9,-40,-32,103,-977,13,1:24:40
325,-156,-129,-5,-39,-30,104,-979,17,1:24:40
312,-162,-105,-1,-39,-28,103,-980,21,1:24:40
331,-133,-150,3,-39,-26,103,-982,24,1:24:40
331,-133,-150,5,-44,-22,103,-981,22,1:24:40
336,-154,-150,7,-46,-21,104,-979,22,1:24:40
334,-156,-139,8,-47,-18,103,-980,27,1:24:40
310,-160,-127,7,-47,-19,102,-982,29,1:24:40
336,-153,-118,4,-47,-19,102,-981,25,1:24:40
343,-145,-123,4,-39,-22,103,-979,21,1:24:40
343,-145,-123,0,-39,-21,103,-979,21,1:24:40
324,-165,-141,0,-32,-18,105,-979,19,1:24:40
343,-163,-109,-1,-30,-16,110,-978,19,1:24:40
346,-156,-127,-2,-32,-14,111,-977,20,1:24:40
336,-154,-121,-4,-30,-11,107,-977,19,1:24:40
324,-142,-112,-4,-30,-11,104,-978,20,1:24:40
324,-142,-112,-5,-29,-9,106,-982,21,1:24:40
315,-135,-105,-7,-23,-8,105,-985,17,1:24:40
334,-150,-121,-11,-18,-9,100,-982,14,1:24:40
351,-138,-129,-14,-15,-9,95,-981,10,1:24:40
343,-162,-141,-14,-14,-11,92,-980,7,1:24:40
330,-157,-120,-15,-12,-11,90,-979,5,1:24:40
330,-157,-120,-15,-11,-12,89,-978,5,1:24:40
331,-148,-124,-16,-11,-14,90,-981,8,1:24:40
322,-144,-117,-17,-12,-14,90,-982,12,1:24:40
312,-147,-132,-18,-16,-13,88,-982,19,1:24:40
339,-145,-123,-20,-21,-12,85,-984,21,1:24:40
328,-136,-136,-21,-22,-11,84,-984,18,1:24:40
328,-136,-136,-18,-25,-8,87,-985,15,1:24:40
327,-160,-135,-18,-29,-4,90,-989,14,1:24:40
330,-157,-126,-21,-41,0,93,-989,12,1:24:41
336,-138,-127,-18,-39,3,93,-989,12,1:24:41
327,-159,-142,-20,-32,2,92,-983,9,1:24:41
355,-157,-127,-23,-31,0,88,-982,9,1:24:41
342,-141,-130,-23,-31,0,89,-982,13,1:24:41
342,-141,-130,-21,-30,0,90,-978,15,1:24:41
345,-132,-138,-20,-29,-3,86,-976,12,1:24:41
336,-166,-129,-19,-30,-5,84,-974,11,1:24:41
336,-166,-129,-17,-32,-9,89,-971,11,1:24:41
343,-157,-123,-15,-35,-12,90,-967,13,1:24:41
340,-150,-133,-20,-27,-16,91,-961,9,1:24:41
334,-165,-123,-13,-23,-17,96,-963,11,1:24:41
334,-165,-123,-11,-20,-16,100,-973,14,1:24:41
340,-148,-139,-11,-21,-13,103,-976,11,1:24:41
325,-168,-133,-9,-18,-10,101,-979,11,1:24:41
339,-159,-120,-4,-27,-6,94,-983,10,1:24:41
328,-160,-123,-1,-28,-3,90,-982,12,1:24:41
336,-166,-144,-1,-28,-4,89,-984,15,1:24:41
337,-144,-121,-3,-30,-6,91,-984,18,1:24:41
337,-144,-121,-6,-32,-8,91,-984,18,1:24:41
343,-154,-130,-9,-30,-11,95,-982,21,1:24:41
336,-151,-97,-12,-23,-16,96,-983,19,1:24:41
343,-136,-121,-18,-20,-18,98,-983,20,1:24:41
352,-160,-124,-18,-21,-18,99,-983,22,1:24:41
355,-165,-132,-18,-21,-18,101,-980,23,1:24:41
355,-165,-132,-16,-24,-15,103,-981,21,1:24:41
327,-154,-120,-16,-21,-12,102,-981,19,1:24:41
358,-160,-139,-17,-23,-10,102,-977,19,1:24:41
333,-139,-118,-16,-18,-9,104,-973,19,1:24:41
331,-141,-123,-18,-20,-7,106,-970,18,1:24:41
343,-165,-130,-14,-16,-4,105,-971,18,1:24:41
340,-160,-123,-11,-14,-1,105,-974,20,1:24:41
340,-160,-123,-9,-11,0,104,-975,20,1:24:41
345,-162,-138,-10,-10,2,104,-975,18,1:24:41
333,-150,-126,-9,-12,4,107,-975,19,1:24:41
313,-154,-100,-7,-4,2,107,-977,20,1:24:41
337,-145,-133,-7,-8,3,105,-978,18,1:24:41
342,-138,-136,-2,-5,5,106,-981,18,1:24:41
343,-148,-121,0,0,4,106,-984,17,1:24:41
343,-148,-121,0,4,3,106,-985,16,1:24:41
331,-150,-130,-2,11,2,106,-985,16,1:24:41
340,-153,-141,-4,18,-1,109,-986,18,1:24:41
343,-142,-127,-4,23,-3,111,-983,19,1:24:41
328,-157,-135,-3,22,-4,113,-978,20,1:24:41
322,-144,-135,-3,22,-4,107,-978,24,1:24:41
340,-157,-138,-2,21,-4,100,-978,28,1:24:41
340,-157,-138,-2,21,-4,99,-976,29,1:24:41
333,-168,-124,-4,18,-5,99,-976,29,1:24:41
318,-165,-138,-4,16,-6,100,-977,30,1:24:41
324,-150,-129,0,14,-3,105,-982,27,1:24:41
351,-163,-147,2,11,0,107,-980,27,1:24:41
327,-141,-148,5,13,0,109,-981,26,1:24:41
327,-141,-148,8,15,1,111,-982,27,1:24:41
340,-147,-132,7,16,2,110,-979,28,1:24:41
334,-154,-126,8,15,2,108,-977,27,1:24:41
336,-168,-144,7,13,1,108,-977,27,1:24:41
331,-145,-132,6,21,-1,106,-976,25,1:24:41
333,-145,-130,3,18,-3,106,-976,25,1:24:41
336,-172,-129,0,21,-4,105,-974,23,1:24:41
336,-172,-129,0,23,-6,105,-973,23,1:24:41
313,-177,-139,-1,23,-5,107,-973,21,1:24:41
319,-163,-120,0,19,-3,109,-972,22,1:24:41
331,-154,-111,2,20,-2,107,-973,22,1:24:41
331,-154,-111,2,20,-2,108,-974,23,1:24:41
325,-151,-112,5,21,-1,110,-974,25,1:24:41
342,-163,-123,9,15,0,107,-975,25,1:24:41
342,-163,-123,11,11,2,104,-976,23,1:24:41
334,-142,-121,12,13,2,105,-979,21,1:24:41
354,-156,-126,11,13,1,107,-978,22,1:24:41
337,-162,-133,11,16,0,107,-978,23,1:24:41
325,-148,-118,11,12,-2,107,-982,25,1:24:41
327,-147,-132,9,18,-4,109,-983,26,1:24:41
327,-147,-132,6,18,-6,111,-980,30,1:24:41
322,-141,-117,6,12,-6,112,-979,34,1:24:41
318,-166,-130,4,10,-8,112,-978,35,1:24:41
333,-175,-135,3,11,-11,112,-978,33,1:24:41
343,-156,-121,2,10,-12,114,-979,34,1:24:41
345,-147,-112,0,8,-11,114,-979,34,1:24:41
345,-147,-112,0,7,-9,116,-978,36,1:24:41
328,-150,-127,0,8,-6,122,-979,35,1:24:41
339,-163,-118,2,6,-3,125,-984,35,1:24:41
333,-156,-136,3,6,-1,121,-986,36,1:24:41
328,-154,-139,1,4,-2,120,-983,35,1:24:41
340,-153,-129,1,4,-2,118,-978,31,1:24:41
340,-153,-129,0,3,-1,113,-975,30,1:24:41
333,-162,-123,-2,0,-3,107,-975,32,1:24:41
330,-151,-127,-2,2,-5,103,-975,32,1:24:41
328,-145,-142,-2,1,-7,102,-974,33,1:24:41
339,-166,-124,-3,-1,-9,104,-972,35,1:24:41
339,-171,-117,-3,-5,-9,107,-973,36,1:24:41
339,-171,-117,-2,-10,-6,111,-977,37,1:24:41
327,-168,-112,2,-14,-3,115,-981,36,1:24:41
336,-148,-142,4,-17,-2,117,-983,34,1:24:41
330,-151,-124,4,-18,-1,116,-983,35,1:24:41
321,-142,-132,4,-18,-2,113,-979,36,1:24:41
346,-154,-153,0,-16,-4,111,-980,35,1:24:41
346,-154,-153,0,-18,-6,111,-979,34,1:24:41
345,-145,-138,0,-18,-7,114,-978,34,1:24:41
325,-162,-126,-2,-19,-8,114,-978,34,1:24:41
325,-162,-126,0,-16,-9,117,-978,33,1:24:41
330,-144,-124,0,-14,-8,119,-974,32,1:24:41
318,-159,-138,1,-16,-7,121,-972,32,1:24:41
342,-150,-136,1,-16,-7,119,-974,33,1:24:41
342,-150,-136,4,-18,-6,118,-977,33,1:24:41
339,-136,-120,4,-21,-4,115,-977,32,1:24:41
336,-153,-121,4,-18,-5,114,-975,30,1:24:41
330,-150,-130,2,-15,-6,114,-974,29,1:24:42
354,-153,-136,1,-15,-7,113,-976,29,1:24:42
343,-150,-139,1,-15,-7,116,-978,29,1:24:42
346,-145,-130,2,-12,-6,115,-978,32,1:24:42
346,-145,-130,3,-9,-7,114,-974,30,1:24:42
349,-151,-135,2,-7,-7,115,-974,29,1:24:42
333,-154,-115,2,-4,-8,115,-978,31,1:24:42
333,-154,-115,2,-13,-7,117,-980,30,1:24:42
331,-153,-120,2,-15,-7,116,-981,29,1:24:42
337,-154,-121,1,-13,-8,114,-980,30,1:24:42
328,-148,-121,0,-11,-9,113,-977,29,1:24:42
328,-148,-121,-1,-12,-9,113,-977,29,1:24:42
348,-150,-124,-1,-11,-8,115,-976,27,1:24:42
339,-157,-142,0,-3,-10,116,-974,25,1:24:42
328,-135,-124,0,-7,-9,113,-973,25,1:24:42
333,-145,-142,0,-9,-7,113,-975,27,1:24:42
339,-153,-136,0,-9,-7,112,-975,30,1:24:42
336,-144,-126,2,-11,-6,111,-976,30,1:24:42
336,-144,-126,4,-14,-7,111,-980,28,1:24:42
328,-154,-132,4,-9,-9,110,-979,27,1:24:42
345,-150,-126,4,-4,-10,110,-976,28,1:24:42
345,-150,-126,2,-7,-11,110,-977,30,1:24:42
343,-165,-135,2,-9,-11,110,-979,28,1:24:42
361,-156,-120,3,-9,-10,113,-978,26,1:24:42
334,-139,-129,2,-7,-10,114,-975,28,1:24:42
334,-139,-129,2,-7,-9,112,-975,28,1:24:42
337,-159,-132,2,-7,-8,111,-975,26,1:24:42
316,-151,-117,1,-9,-8,113,-977,29,1:24:42
316,-151,-117,2,-9,-9,115,-979,29,1:24:42
339,-147,-117,2,-7,-9,116,-977,27,1:24:42
333,-151,-129,3,-5,-11,116,-977,27,1:24:42
351,-147,-117,4,0,-13,115,-977,24,1:24:42
351,-147,-117,7,5,-14,116,-979,24,1:24:42
322,-150,-120,9,9,-16,116,-978,24,1:24:42
312,-150,-109,11,11,-16,115,-978,23,1:24:42
331,-148,-120,11,8,-15,116,-977,23,1:24:42
331,-166,-129,11,8,-15,115,-975,25,1:24:42
328,-169,-133,13,4,-14,113,-976,25,1:24:42
345,-157,-126,13,2,-14,112,-978,22,1:24:42
345,-157,-126,12,4,-14,112,-977,23,1:24:42
349,-154,-139,11,6,-14,112,-977,25,1:24:42
328,-156,-108,10,0,-14,112,-979,24,1:24:42
328,-156,-108,9,2,-14,111,-981,24,1:24:42
337,-154,-133,9,1,-14,108,-981,26,1:24:42
321,-139,-129,9,1,-14,109,-980,26,1:24:42
342,-154,-117,9,-2,-12,110,-981,24,1:24:42
342,-154,-117,9,-5,-11,106,-981,25,1:24:42
342,-147,-130,9,-7,-11,105,-981,24,1:24:42
328,-163,-115,10,-6,-11,108,-981,21,1:24:42
331,-124,-138,9,-3,-13,109,-977,21,1:24:42
321,-151,-118,7,0,-14,107,-975,23,1:24:42
336,-156,-145,7,-2,-14,107,-975,23,1:24:42
340,-156,-126,7,-2,-14,109,-974,22,1:24:42
340,-156,-126,8,-8,-12,110,-975,23,1:24:42
331,-141,-132,9,-9,-11,111,-978,23,1:24:42
313,-157,-123,9,-9,-11,112,-981,21,1:24:42
313,-157,-123,9,-7,-11,112,-981,24,1:24:42
325,-151,-121,6,-6,-11,107,-981,26,1:24:42
346,-153,-138,3,-7,-14,105,-982,25,1:24:42
346,-153,-138,2,-4,-16,106,-983,25,1:24:42
345,-153,-130,1,-4,-18,106,-981,25,1:24:42
318,-145,-126,0,-2,-19,106,-978,27,1:24:42
337,-148,-136,0,-3,-18,107,-975,30,1:24:42
325,-151,-114,-1,-2,-19,105,-974,30,1:24:42
333,-159,-123,-2,-4,-18,105,-974,29,1:24:42
324,-144,-117,-2,-5,-18,106,-976,28,1:24:42
324,-144,-117,-1,-5,-16,106,-978,29,1:24:42
330,-153,-138,2,-7,-14,105,-980,28,1:24:42
352,-168,-108,4,-12,-11,105,-980,25,1:24:42
336,-156,-114,7,-7,-11,104,-978,24,1:24:42
340,-159,-124,8,-9,-14,104,-977,24,1:24:42
348,-132,-132,7,-11,-13,104,-977,24,1:24:42
321,-154,-126,7,-8,-14,107,-977,22,1:24:42
321,-154,-126,8,-2,-16,108,-978,22,1:24:42
336,-172,-135,9,-2,-15,109,-979,23,1:24:42
331,-151,-142,9,-2,-15,111,-981,24,1:24:42
343,-139,-126,10,-2,-15,111,-982,25,1:24:42
343,-159,-127,11,-2,-14,105,-981,23,1:24:42
342,-144,-132,11,-1,-15,100,-977,21,1:24:42
327,-148,-112,8,0,-15,103,-975,24,1:24:42
327,-148,-112,4,-5,-16,105,-977,24,1:24:42
360,-153,-118,2,-9,-16,105,-979,24,1:24:42
328,-171,-135,0,-9,-16,105,-981,27,1:24:42
321,-147,-102,2,-10,-15,104,-982,26,1:24:42
340,-171,-129,3,-5,-14,106,-982,24,1:24:42
348,-157,-135,2,-5,-13,109,-980,25,1:24:42
322,-160,-123,6,-7,-12,108,-977,23,1:24:42
322,-160,-123,7,-9,-12,107,-976,22,1:24:42
328,-135,-123,7,-8,-13,109,-976,22,1:24:42
346,-139,-130,6,-7,-14,111,-973,23,1:24:42
340,-174,-120,2,-17,-12,111,-972,23,1:24:42
340,-174,-120,4,-11,-13,111,-972,23,1:24:42
328,-162,-126,5,-6,-14,109,-978,22,1:24:42
333,-144,-121,5,-3,-15,107,-981,22,1:24:42
333,-144,-121,5,-3,-15,107,-981,22,1:24:42
340,-159,-115,6,-2,-15,107,-978,24,1:24:42
322,-150,-138,5,-7,-14,109,-978,24,1:24:42
343,-157,-94,5,-9,-14,108,-981,22,1:24:42
325,-151,-120,5,-4,-14,105,-982,24,1:24:42
324,-147,-133,4,-1,-14,106,-979,26,1:24:42
340,-160,-139,2,-2,-14,105,-977,27,1:24:42
340,-160,-139,1,-2,-16,106,-978,23,1:24:42
334,-154,-117,0,-2,-15,109,-977,23,1:24:42
322,-145,-129,1,0,-15,110,-977,24,1:24:42
312,-157,-117,3,-1,-14,110,-977,20,1:24:42
312,-157,-117,2,0,-12,108,-973,21,1:24:42
345,-145,-126,2,0,-11,106,-973,21,1:24:42
358,-160,-127,4,-2,-11,106,-977,19,1:24:43
358,-160,-127,7,0,-10,105,-980,19,1:24:43
331,-153,-136,7,3,-11,105,-977,19,1:24:43
345,-138,-150,7,2,-10,105,-977,19,1:24:43
348,-136,-121,7,0,-11,105,-975,22,1:24:43
343,-147,-124,7,0,-11,105,-975,24,1:24:43
337,-153,-127,7,0,-10,105,-977,23,1:24:43
325,-153,-111,7,0,-10,104,-979,23,1:24:43
325,-153,-111,8,-1,-9,105,-982,24,1:24:43
348,-151,-127,8,2,-10,104,-985,24,1:24:43
345,-160,-126,8,-1,-7,104,-983,24,1:24:43
346,-151,-127,7,0,-6,105,-982,25,1:24:43
346,-151,-127,4,-1,-7,108,-982,23,1:24:43
334,-156,-132,4,0,-6,108,-983,20,1:24:43
352,-154,-118,3,2,-7,108,-983,21,1:24:43
352,-154,-118,2,4,-8,107,-980,20,1:24:43
346,-148,-97,3,8,-9,102,-978,21,1:24:43
325,-148,-117,3,8,-9,102,-978,22,1:24:43
340,-150,-135,2,-2,-9,101,-977,22,1:24:43
336,-144,-114,2,3,-11,99,-977,22,1:24:43
339,-159,-129,4,4,-11,101,-976,20,1:24:43
339,-142,-132,4,2,-11,101,-978,18,1:24:43
339,-142,-132,1,2,-13,100,-980,17,1:24:43
336,-141,-141,0,7,-14,100,-980,17,1:24:43
342,-160,-112,0,7,-13,101,-980,21,1:24:43
337,-153,-106,0,9,-13,104,-980,24,1:24:43
343,-154,-133,-2,10,-12,105,-980,24,1:24:43
336,-178,-142,-2,10,-12,103,-980,23,1:24:43
330,-138,-123,-1,10,-11,101,-982,20,1:24:43
330,-138,-123,-1,11,-11,98,-981,19,1:24:43
349,-151,-114,-2,14,-11,96,-980,21,1:24:43
339,-135,-115,-2,14,-13,97,-982,22,1:24:43
351,-150,-130,-5,7,-14,99,-983,21,1:24:43
345,-145,-129,-4,8,-15,99,-979,19,1:24:43
346,-153,-126,-5,9,-15,97,-978,19,1:24:43
328,-160,-123,-4,5,-15,94,-979,22,1:24:43
328,-160,-123,-2,2,-14,91,-979,22,1:24:43
337,-163,-141,-1,-1,-13,91,-978,19,1:24:43
333,-144,-148,0,-2,-12,90,-979,21,1:24:43
328,-157,-117,0,-7,-11,91,-981,22,1:24:43
330,-144,-121,0,-8,-11,94,-980,20,1:24:43
336,-148,-136,1,-9,-9,96,-980,21,1:24:43
340,-156,-135,2,-9,-9,96,-980,21,1:24:43
340,-156,-135,3,-10,-9,99,-981,22,1:24:43
334,-157,-121,4,-13,-9,101,-981,21,1:24:43
348,-160,-118,4,-17,-7,103,-979,23,1:24:43
337,-163,-130,4,-17,-7,102,-978,23,1:24:43
322,-159,-130,6,-18,-8,98,-977,20,1:24:43
340,-154,-115,4,-15,-11,96,-974,20,1:24:43
336,-168,-135,0,-14,-13,100,-976,21,1:24:43
336,-168,-135,0,-16,-13,104,-979,19,1:24:43
340,-160,-109,0,-14,-13,105,-978,20,1:24:43
342,-166,-117,2,-9,-13,103,-979,20,1:24:43
327,-153,-115,3,-9,-11,104,-980,21,1:24:43
337,-139,-123,4,-6,-10,104,-981,24,1:24:43
343,-157,-123,2,-7,-9,103,-982,24,1:24:43
333,-150,-124,3,-8,-8,102,-982,20,1:24:43
333,-150,-124,2,-9,-8,100,-981,19,1:24:43
321,-138,-123,2,-7,-9,100,-980,21,1:24:43
349,-160,-130,0,-7,-9,99,-978,23,1:24:43
339,-150,-136,0,-7,-10,99,-978,21,1:24:43
339,-150,-136,0,-7,-10,102,-977,19,1:24:43
339,-157,-124,-2,-5,-10,102,-977,19,1:24:43
333,-148,-132,-4,-4,-10,103,-976,17,1:24:43
333,-148,-132,-4,-4,-9,104,-976,18,1:24:43
322,-153,-118,-3,-6,-9,105,-976,21,1:24:43
349,-153,-117,-3,-6,-9,102,-978,21,1:24:43
342,-156,-102,-3,-6,-9,100,-979,20,1:24:43
346,-147,-112,-2,-6,-10,100,-980,21,1:24:43
340,-151,-127,0,-3,-11,101,-980,22,1:24:43
337,-159,-117,0,-4,-10,101,-979,23,1:24:43
337,-159,-117,0,-6,-11,101,-978,21,1:24:43
340,-154,-115,0,-5,-9,103,-977,21,1:24:43
331,-162,-133,0,-7,-9,103,-978,23,1:24:43
349,-150,-109,0,-8,-9,102,-980,24,1:24:43
349,-150,-109,1,-7,-9,103,-980,24,1:24:43
337,-151,-126,2,-7,-8,103,-979,24,1:24:43
352,-151,-117,1,-5,-9,101,-981,23,1:24:43
352,-151,-117,0,-4,-9,99,-982,23,1:24:43
348,-151,-126,0,-6,-11,101,-981,25,1:24:43
343,-159,-133,0,-7,-9,100,-980,25,1:24:43
345,-162,-136,0,-4,-11,100,-979,24,1:24:43
348,-163,-117,0,-4,-11,100,-979,24,1:24:43
334,-154,-141,-1,-6,-10,102,-977,24,1:24:43
322,-157,-136,-1,-9,-9,101,-979,25,1:24:43
322,-157,-136,-1,-9,-9,101,-980,26,1:24:43
348,-157,-126,-1,-9,-9,102,-979,25,1:24:43
337,-133,-127,0,-11,-8,101,-981,23,1:24:43
322,-150,-108,1,-11,-9,100,-981,22,1:24:43
342,-145,-115,-1,-10,-9,102,-979,22,1:24:43
322,-153,-126,-1,-12,-9,103,-979,24,1:24:43
322,-153,-126,0,-14,-8,98,-978,25,1:24:43
327,-153,-118,0,-16,-9,95,-979,23,1:24:43
327,-141,-124,0,-15,-9,95,-982,25,1:24:43
316,-153,-106,-2,-15,-7,96,-982,27,1:24:43
339,-142,-130,-4,-16,-9,99,-982,27,1:24:43
334,-159,-109,-6,-16,-9,101,-982,27,1:24:43
334,-159,-109,-7,-15,-9,102,-980,27,1:24:43
352,-151,-135,-8,-14,-10,104,-979,28,1:24:43
324,-154,-115,-9,-13,-10,103,-978,29,1:24:43
312,-141,-111,-9,-10,-9,104,-978,28,1:24:43
340,-148,-133,-11,-8,-9,106,-978,28,1:24:43
327,-157,-117,-9,-6,-9,105,-978,29,1:24:43
333,-147,-123,-7,-6,-6,105,-979,29,1:24:43
343,-166,-141,-4,-3,-7,104,-978,25,1:24:43
334,-148,-126,-4,-3,-7,105,-977,26,1:24:44
321,-138,-133,-3,-4,-7,106,-978,28,1:24:44
333,-144,-138,-2,-3,-7,102,-976,27,1:24:44
333,-144,-138,0,-4,-7,101,-974,26,1:24:44
352,-163,-124,0,-2,-8,99,-975,24,1:24:44
337,-165,-118,0,3,-8,98,-976,26,1:24:44
334,-160,-136,0,7,-7,100,-977,29,1:24:44
331,-154,-120,0,7,-7,101,-978,29,1:24:44
333,-157,-127,0,5,-7,102,-981,29,1:24:44
333,-157,-127,0,4,-7,100,-982,29,1:24:44
346,-157,-121,-1,4,-6,98,-981,30,1:24:44
325,-154,-112,2,4,-5,97,-982,31,1:24:44
325,-154,-112,1,1,-4,100,-984,30,1:24:44
325,-139,-115,2,1,-5,101,-981,28,1:24:44
348,-156,-114,1,1,-5,101,-981,28,1:24:44
336,-144,-120,0,2,-5,100,-978,27,1:24:44
336,-144,-120,0,2,-6,101,-978,26,1:24:44
