magX[mG],magY[mG],magZ[mG],gyroX[mdps],gyroY[mdps],gyroZ[mdps],accX[mg],accY[mg],accZ[mg],hh:mm:ss.ms
601,-211,-447,-4,-18,-4,125,-972,55,1:48:57
615,-175,-462,-4,-16,-7,123,-974,57,1:48:57
594,-181,-445,-4,-16,-7,121,-972,60,1:48:57
594,-181,-445,-3,-15,-9,118,-970,64,1:48:57
592,-193,-463,-2,-16,-8,118,-970,62,1:48:57
592,-193,-463,-2,-17,-8,122,-970,61,1:48:57
598,-208,-444,-2,-21,-7,122,-972,59,1:48:57
618,-190,-445,-1,-18,-8,121,-974,56,1:48:57
610,-195,-436,0,-16,-9,122,-976,57,1:48:57
610,-195,-436,-1,-17,-7,124,-976,61,1:48:57
589,-186,-435,-4,-21,-6,127,-975,63,1:48:57
603,-178,-444,-7,-24,-4,127,-976,59,1:48:57
595,-186,-442,-8,-23,-4,126,-975,59,1:48:57
595,-195,-445,-10,-21,-4,123,-974,60,1:48:57
615,-174,-427,-9,-17,-4,122,-973,60,1:48:57
615,-174,-427,-8,-16,-4,123,-974,60,1:48:57
595,-171,-441,-7,-14,-5,123,-974,60,1:48:57
598,-184,-438,-9,-14,-5,126,-974,59,1:48:57
601,-178,-445,-11,-17,-4,128,-972,60,1:48:57
598,-186,-439,-11,-13,-4,128,-969,61,1:48:57
595,-184,-450,-11,-13,-4,130,-970,60,1:48:57
595,-184,-450,-8,-9,-4,130,-971,60,1:48:57
606,-178,-468,-7,-9,-2,129,-974,56,1:48:57
604,-180,-459,-3,-7,-4,127,-976,48,1:48:57
595,-166,-439,0,-6,-4,123,-974,50,1:48:57
595,-166,-439,-1,-4,-4,124,-975,54,1:48:57
604,-184,-433,1,-9,-3,125,-978,52,1:48:57
594,-190,-450,3,-9,-4,124,-980,51,1:48:57
594,-190,-450,2,-7,-5,121,-980,54,1:48:57
589,-186,-453,1,-7,-7,117,-978,54,1:48:57
610,-177,-447,2,-5,-9,114,-975,55,1:48:57
595,-177,-442,1,0,-10,115,-974,58,1:48:57
595,-184,-439,2,-3,-8,120,-975,56,1:48:57
589,-183,-438,1,-6,-7,121,-973,56,1:48:57
589,-183,-438,1,-7,-8,120,-973,55,1:48:57
606,-196,-453,0,-9,-8,121,-972,52,1:48:57
615,-181,-450,0,-9,-9,121,-972,52,1:48:57
597,-178,-448,1,-7,-9,120,-973,52,1:48:57
585,-181,-435,2,-3,-8,120,-979,56,1:48:57
604,-163,-441,2,-3,-8,121,-983,57,1:48:57
604,-163,-441,3,-10,-9,119,-985,57,1:48:57
595,-190,-436,3,-11,-10,118,-980,57,1:48:57
609,-189,-447,1,-13,-10,118,-975,55,1:48:57
592,-168,-454,0,-16,-9,119,-977,57,1:48:57
607,-183,-451,-2,-16,-9,120,-979,58,1:48:57
615,-187,-459,-4,-18,-9,120,-976,56,1:48:57
615,-187,-459,-3,-16,-9,119,-973,54,1:48:57
579,-171,-447,-4,-11,-9,120,-974,55,1:48:57
598,-180,-459,-6,-8,-9,124,-975,60,1:48:57
601,-186,-444,-8,-10,-7,126,-976,61,1:48:57
598,-175,-445,-9,-12,-7,129,-977,59,1:48:57
612,-207,-456,-9,-9,-7,126,-975,62,1:48:57
612,-207,-456,-7,-9,-8,123,-975,62,1:48:57
586,-187,-454,-7,-7,-9,122,-973,59,1:48:57
600,-186,-454,-6,-9,-11,123,-973,56,1:48:57
601,-192,-459,-4,-9,-12,123,-973,56,1:48:57
613,-184,-456,-3,-9,-14,125,-973,56,1:48:57
607,-184,-466,-1,-9,-14,125,-973,57,1:48:57
607,-184,-466,0,-8,-14,122,-977,60,1:48:57
616,-178,-457,2,-8,-14,121,-979,65,1:48:57
603,-187,-451,2,-8,-14,121,-977,66,1:48:57
594,-192,-432,2,-11,-11,121,-975,67,1:48:57
591,-165,-432,1,-17,-9,124,-973,66,1:48:57
607,-180,-459,0,-20,-9,124,-971,64,1:48:57
607,-180,-459,0,-17,-9,123,-972,63,1:48:57
591,-177,-459,-1,-12,-7,123,-976,64,1:48:57
591,-181,-450,-4,-22,-6,124,-977,67,1:48:57
591,-181,-450,-5,-14,-7,123,-976,66,1:48:57
612,-181,-441,-7,-8,-8,122,-976,63,1:48:57
591,-177,-466,-6,-7,-9,121,-977,60,1:48:57
601,-187,-450,-5,-4,-9,122,-975,59,1:48:57
601,-187,-450,-4,0,-9,124,-976,64,1:48:57
603,-183,-462,-4,-2,-9,125,-977,67,1:48:57
615,-184,-436,-4,-4,-8,123,-976,65,1:48:57
598,-190,-444,-4,-6,-7,122,-975,62,1:48:57
609,-177,-447,-3,-4,-7,122,-975,62,1:48:57
603,-186,-433,-1,-2,-7,123,-975,61,1:48:57
589,-184,-465,1,-3,-7,124,-976,63,1:48:57
589,-184,-465,1,-6,-6,121,-975,63,1:48:57
588,-186,-450,2,-2,-7,119,-971,64,1:48:58
595,-189,-432,2,-2,-7,122,-970,65,1:48:58
595,-189,-432,0,-2,-7,124,-973,66,1:48:58
583,-174,-451,0,-3,-7,123,-976,66,1:48:58
601,-165,-457,0,-1,-7,123,-978,64,1:48:58
607,-177,-450,0,0,-7,126,-978,64,1:48:58
607,-177,-450,0,2,-7,124,-977,64,1:48:58
604,-183,-445,1,2,-7,120,-977,63,1:48:58
600,-184,-426,0,2,-7,118,-976,60,1:48:58
583,-196,-426,4,3,-9,119,-973,60,1:48:58
588,-181,-447,2,4,-9,121,-970,62,1:48:58
597,-177,-436,2,3,-8,121,-969,63,1:48:58
603,-181,-459,2,3,-8,122,-971,61,1:48:58
603,-181,-459,2,5,-7,124,-973,60,1:48:58
606,-180,-459,3,3,-7,124,-974,63,1:48:58
591,-187,-456,4,9,-7,124,-974,63,1:48:58
583,-169,-448,5,6,-7,122,-974,62,1:48:58
607,-168,-457,7,2,-8,119,-974,59,1:48:58
607,-183,-445,4,3,-7,118,-975,58,1:48:58
601,-181,-460,4,3,-7,118,-977,61,1:48:58
601,-181,-460,2,2,-8,117,-975,62,1:48:58
616,-175,-463,1,2,-8,118,-977,63,1:48:58
592,-177,-418,1,2,-9,120,-978,64,1:48:58
592,-177,-418,0,0,-9,119,-976,61,1:48:58
600,-181,-450,0,-2,-8,118,-978,60,1:48:58
613,-172,-457,0,-3,-8,117,-979,63,1:48:58
592,-207,-441,1,-7,-8,117,-976,59,1:48:58
592,-207,-441,0,-9,-9,120,-974,58,1:48:58
609,-181,-478,0,-6,-9,124,-974,62,1:48:58
582,-184,-439,0,-1,-9,124,-974,61,1:48:58
604,-178,-439,1,-3,-10,121,-974,62,1:48:58
579,-178,-457,1,-4,-10,121,-975,62,1:48:58
621,-181,-450,1,-4,-9,120,-977,59,1:48:58
610,-169,-444,0,-4,-9,121,-978,61,1:48:58
610,-169,-444,0,-5,-9,122,-978,62,1:48:58
603,-193,-433,0,-5,-9,122,-978,64,1:48:58
585,-184,-456,-1,-6,-9,122,-978,64,1:48:58
585,-184,-456,-1,-7,-8,122,-979,64,1:48:58
582,-181,-456,-2,-7,-8,123,-975,62,1:48:58
606,-195,-463,-2,-7,-8,123,-972,62,1:48:58
606,-195,-463,-2,-5,-8,121,-974,62,1:48:58
592,-193,-466,-3,-2,-8,122,-971,61,1:48:58
604,-187,-465,-3,-2,-9,123,-972,62,1:48:58
616,-174,-442,-4,-2,-10,125,-974,63,1:48:58
597,-159,-438,-2,-2,-10,124,-974,63,1:48:58
585,-160,-445,-2,-1,-11,121,-974,65,1:48:58
591,-183,-444,-4,-1,-11,119,-974,65,1:48:58
591,-183,-444,-4,-1,-10,118,-975,64,1:48:58
613,-190,-445,-3,0,-11,118,-976,64,1:48:58
603,-169,-430,-1,-2,-8,119,-974,64,1:48:58
597,-186,-433,0,-4,-7,122,-976,59,1:48:58
586,-183,-463,-2,-4,-9,122,-973,60,1:48:58
600,-184,-454,-2,-3,-10,121,-974,61,1:48:58
600,-184,-454,-3,0,-10,120,-975,62,1:48:58
615,-192,-441,-2,2,-11,120,-975,62,1:48:58
591,-172,-456,-4,2,-13,122,-976,63,1:48:58
607,-178,-451,-4,0,-13,121,-977,62,1:48:58
604,-184,-450,-4,-5,-12,118,-975,63,1:48:58
619,-190,-451,-4,-3,-12,116,-972,65,1:48:58
579,-175,-442,-4,-3,-12,115,-972,65,1:48:58
579,-175,-442,-3,0,-11,118,-973,66,1:48:58
589,-195,-468,-3,-5,-11,121,-975,66,1:48:58
595,-195,-447,-2,-7,-11,119,-974,60,1:48:58
595,-177,-460,-1,-7,-12,119,-970,58,1:48:58
585,-190,-451,0,4,-13,121,-970,59,1:48:58
603,-177,-441,0,0,-12,120,-973,59,1:48:58
594,-184,-426,0,-2,-11,117,-977,59,1:48:58
594,-184,-426,-1,-1,-12,114,-978,61,1:48:58
607,-193,-427,0,0,-14,115,-978,63,1:48:58
610,-171,-445,-2,-2,-14,113,-978,65,1:48:58
586,-187,-454,-2,-2,-16,112,-976,66,1:48:58
601,-177,-454,-4,-8,-14,115,-976,69,1:48:58
612,-187,-457,-8,-7,-14,118,-978,70,1:48:58
612,-166,-448,-6,-9,-13,119,-978,66,1:48:58
612,-166,-448,-4,-9,-14,119,-978,66,1:48:58
612,-180,-442,-1,-8,-15,119,-978,62,1:48:58
603,-174,-447,0,-7,-15,118,-976,62,1:48:58
601,-181,-450,1,-5,-16,114,-972,61,1:48:58
606,-189,-459,1,-5,-16,111,-969,62,1:48:58
610,-174,-450,2,-2,-17,112,-970,69,1:48:58
603,-190,-462,4,-3,-17,114,-971,72,1:48:58
603,-190,-462,4,-9,-16,116,-973,68,1:48:58
588,-178,-456,5,-14,-15,118,-973,64,1:48:58
607,-166,-448,6,-15,-15,118,-973,64,1:48:58
594,-186,-451,7,-17,-14,117,-973,65,1:48:58
600,-181,-459,5,-16,-14,115,-975,65,1:48:58
595,-180,-462,7,-12,-14,116,-976,64,1:48:58
609,-190,-462,9,-8,-14,118,-975,65,1:48:58
609,-190,-462,9,-9,-15,119,-976,65,1:48:58
601,-186,-472,10,-9,-15,117,-978,65,1:48:58
589,-193,-445,11,-7,-15,116,-978,65,1:48:58
606,-175,-450,11,-10,-14,117,-977,65,1:48:58
595,-189,-448,12,-9,-14,116,-977,69,1:48:58
591,-177,-447,11,-11,-15,116,-977,69,1:48:58
607,-175,-444,9,-11,-16,116,-980,70,1:48:58
607,-175,-444,8,-11,-15,116,-980,67,1:48:58
606,-172,-456,11,-14,-13,112,-979,63,1:48:58
609,-189,-460,13,-14,-12,112,-976,62,1:48:58
589,-193,-447,13,-14,-12,112,-974,64,1:48:58
595,-189,-424,12,-16,-11,113,-975,64,1:48:58
609,-184,-456,11,-15,-12,115,-973,64,1:48:58
609,-184,-456,9,-11,-12,116,-972,66,1:48:58
601,-193,-450,4,-11,-10,121,-975,67,1:48:58
607,-181,-433,3,-11,-9,124,-975,63,1:48:58
592,-186,-438,4,-9,-8,120,-977,64,1:48:58
607,-202,-451,2,-4,-9,120,-977,68,1:48:59
591,-195,-426,3,2,-11,122,-978,68,1:48:59
591,-195,-426,0,-1,-10,120,-979,65,1:48:59
592,-190,-445,-1,-3,-9,118,-976,65,1:48:59
609,-190,-468,1,-2,-8,118,-976,65,1:48:59
607,-174,-453,2,-2,-9,117,-975,65,1:48:59
597,-189,-456,2,0,-9,119,-972,68,1:48:59
592,-186,-456,2,1,-8,120,-972,69,1:48:59
592,-186,-456,2,-4,-7,120,-972,69,1:48:59
586,-177,-439,0,-4,-6,121,-972,69,1:48:59
613,-180,-444,0,-4,-5,119,-973,67,1:48:59
597,-192,-445,2,-3,-7,116,-976,65,1:48:59
601,-184,-450,3,0,-9,114,-977,65,1:48:59
613,-183,-454,3,0,-9,113,-976,66,1:48:59
613,-183,-454,3,1,-9,116,-975,68,1:48:59
582,-189,-441,2,2,-9,118,-974,68,1:48:59
592,-169,-451,2,-3,-9,117,-975,66,1:48:59
607,-190,-459,0,-7,-7,116,-977,64,1:48:59
607,-175,-445,-2,-7,-6,117,-976,64,1:48:59
594,-172,-463,0,-6,-7,115,-976,64,1:48:59
594,-172,-463,0,-2,-9,113,-978,64,1:48:59
604,-184,-447,0,0,-9,114,-977,65,1:48:59
604,-187,-442,-4,-2,-9,116,-974,65,1:48:59
604,-187,-442,0,-4,-9,115,-972,64,1:48:59
606,-177,-468,1,-2,-10,113,-973,63,1:48:59
613,-178,-438,2,0,-10,117,-974,65,1:48:59
585,-177,-450,4,0,-11,120,-975,66,1:48:59
585,-177,-450,4,-1,-12,120,-975,65,1:48:59
595,-163,-457,6,0,-11,120,-975,65,1:48:59
588,-163,-439,7,0,-11,120,-974,66,1:48:59
594,-184,-460,9,-2,-10,115,-976,68,1:48:59
601,-180,-448,8,-4,-11,111,-979,67,1:48:59
586,-174,-448,8,-4,-11,109,-978,62,1:48:59
586,-174,-448,7,-4,-12,104,-976,60,1:48:59
585,-172,-453,5,-2,-12,103,-976,64,1:48:59
606,-190,-463,4,-6,-11,107,-976,68,1:48:59
616,-193,-430,4,-10,-11,110,-975,67,1:48:59
616,-193,-430,4,-9,-10,108,-977,63,1:48:59
621,-189,-439,5,-7,-10,109,-978,61,1:48:59
603,-180,-445,5,-6,-12,111,-977,66,1:48:59
603,-180,-445,5,-6,-12,112,-976,66,1:48:59
592,-180,-439,6,-7,-11,114,-975,65,1:48:59
595,-187,-442,7,-9,-10,114,-976,63,1:48:59
610,-175,-447,7,-6,-9,114,-977,62,1:48:59
616,-175,-460,5,-7,-9,115,-975,62,1:48:59
609,-184,-444,7,-7,-9,116,-977,64,1:48:59
616,-171,-457,6,-9,-8,116,-977,64,1:48:59
616,-171,-457,4,-9,-9,115,-978,68,1:48:59
604,-178,-468,4,-12,-9,110,-978,70,1:48:59
594,-186,-453,3,-16,-9,110,-979,68,1:48:59
594,-190,-441,0,-16,-9,111,-978,63,1:48:59
594,-190,-441,0,-16,-9,108,-979,62,1:48:59
597,-199,-445,-2,-14,-9,113,-979,63,1:48:59
606,-184,-439,-2,-13,-7,115,-980,64,1:48:59
606,-184,-439,-1,-13,-5,113,-979,61,1:48:59
598,-180,-468,-2,-14,-4,111,-978,59,1:48:59
598,-183,-450,-2,-15,-3,107,-980,60,1:48:59
597,-189,-462,-2,-20,-2,103,-980,63,1:48:59
597,-195,-433,-4,-18,-3,101,-981,63,1:48:59
591,-183,-453,-4,-21,-4,101,-977,62,1:48:59
591,-180,-460,-4,-23,-7,106,-975,63,1:48:59
591,-180,-460,-4,-25,-9,112,-977,64,1:48:59
589,-183,-453,-2,-25,-11,116,-976,64,1:48:59
604,-178,-460,-1,-24,-11,121,-972,61,1:48:59
601,-193,-439,6,-18,-12,121,-970,63,1:48:59
594,-175,-456,8,-16,-11,121,-970,63,1:48:59
583,-198,-469,11,-14,-9,126,-970,67,1:48:59
583,-198,-469,11,-9,-7,129,-970,70,1:48:59
594,-189,-474,11,-4,-6,128,-972,70,1:48:59
616,-175,-462,13,-4,-4,129,-974,68,1:48:59
588,-196,-462,13,-4,-4,130,-973,66,1:48:59
603,-187,-442,13,-2,-4,129,-973,62,1:48:59
612,-169,-451,12,2,-6,124,-971,62,1:48:59
612,-193,-439,12,7,-6,120,-974,64,1:48:59
612,-193,-439,11,8,-7,119,-974,66,1:48:59
591,-171,-469,7,7,-8,118,-972,66,1:48:59
604,-186,-447,6,6,-7,115,-973,63,1:48:59
598,-163,-442,10,-1,-4,114,-973,63,1:48:59
604,-189,-441,11,0,-1,116,-974,62,1:48:59
601,-171,-445,14,-1,0,118,-975,64,1:48:59
594,-183,-454,15,-2,3,121,-976,64,1:48:59
594,-183,-454,16,-2,5,121,-977,63,1:48:59
591,-184,-435,14,-4,5,121,-977,58,1:48:59
601,-196,-468,14,0,4,120,-977,53,1:48:59
595,-195,-438,14,0,1,119,-978,53,1:48:59
592,-183,-450,11,7,0,119,-978,53,1:48:59
600,-172,-451,10,14,-4,120,-978,54,1:48:59
600,-190,-444,9,19,-6,118,-977,58,1:48:59
600,-190,-444,7,21,-7,117,-975,62,1:48:59
610,-178,-453,5,18,-7,115,-974,62,1:48:59
606,-171,-445,5,18,-7,113,-975,60,1:48:59
592,-169,-436,4,16,-7,111,-975,60,1:48:59
595,-186,-466,5,18,-7,111,-974,61,1:48:59
600,-180,-447,7,16,-5,113,-974,62,1:48:59
598,-183,-453,7,15,-2,113,-974,61,1:48:59
598,-183,-453,7,14,0,114,-975,62,1:48:59
601,-187,-442,5,13,0,114,-977,63,1:48:59
595,-178,-462,6,18,-2,115,-980,62,1:48:59
595,-192,-450,7,28,-4,114,-980,63,1:48:59
583,-180,-432,7,24,-6,113,-978,62,1:48:59
591,-174,-436,7,23,-9,112,-978,60,1:48:59
591,-174,-436,8,25,-10,112,-979,61,1:48:59
594,-178,-447,6,23,-10,110,-977,61,1:48:59
597,-184,-454,4,18,-10,108,-973,59,1:48:59
598,-162,-442,4,16,-9,109,-972,58,1:48:59
598,-183,-444,3,8,-6,109,-972,58,1:49:00
613,-172,-445,3,3,-3,109,-973,59,1:49:00
606,-183,-447,4,4,-2,109,-976,61,1:49:00
606,-183,-447,4,4,-2,111,-980,61,1:49:00
603,-160,-432,7,5,-2,113,-980,57,1:49:00
598,-190,-459,8,4,-3,113,-978,55,1:49:00
600,-187,-438,7,8,-4,111,-978,56,1:49:00
598,-205,-436,7,9,-6,111,-979,58,1:49:00
609,-186,-457,3,10,-7,110,-979,58,1:49:00
606,-184,-447,3,10,-8,111,-976,58,1:49:00
606,-184,-447,3,5,-9,112,-978,58,1:49:00
613,-174,-465,3,0,-7,111,-978,56,1:49:00
598,-169,-456,4,0,-6,110,-978,55,1:49:00
595,-180,-448,4,2,-8,109,-978,57,1:49:00
585,-172,-432,7,6,-9,112,-978,59,1:49:00
571,-196,-444,4,2,-8,111,-976,57,1:49:00
595,-199,-456,4,0,-7,108,-974,56,1:49:00
595,-199,-456,4,0,-7,109,-973,59,1:49:00
615,-192,-457,2,-2,-8,113,-973,60,1:49:00
618,-184,-454,0,-9,-8,113,-975,58,1:49:00
595,-180,-463,0,-9,-10,114,-975,58,1:49:00
600,-186,-445,-2,-1,-12,114,-976,57,1:49:00
585,-177,-469,-4,2,-14,113,-979,57,1:49:00
618,-192,-462,-4,2,-14,115,-982,58,1:49:00
618,-192,-462,-6,2,-17,118,-980,59,1:49:00
609,-192,-435,-5,8,-15,117,-977,60,1:49:00
603,-198,-457,-4,5,-13,118,-976,61,1:49:00
610,-187,-447,-4,4,-12,120,-977,63,1:49:00
597,-190,-442,-2,0,-11,117,-976,62,1:49:00
585,-175,-433,-2,2,-11,115,-975,58,1:49:00
585,-175,-433,0,4,-10,115,-971,58,1:49:00
619,-192,-462,1,2,-9,115,-970,59,1:49:00
603,-192,-435,2,2,-8,115,-973,60,1:49:00
625,-178,-456,2,5,-7,115,-977,61,1:49:00
616,-175,-448,4,6,-7,112,-979,57,1:49:00
591,-174,-442,2,9,-9,112,-979,55,1:49:00
591,-174,-442,4,2,-8,111,-978,57,1:49:00
615,-166,-457,2,0,-9,109,-978,59,1:49:00
606,-201,-448,4,1,-9,112,-978,62,1:49:00
591,-184,-450,2,0,-9,112,-978,62,1:49:00
603,-178,-463,0,-1,-8,115,-976,63,1:49:00
594,-192,-433,0,0,-8,116,-975,64,1:49:00
594,-192,-433,0,0,-7,116,-976,65,1:49:00
597,-187,-441,0,-1,-4,118,-973,64,1:49:00
604,-186,-441,0,-1,-4,120,-971,63,1:49:00
585,-189,-451,1,-2,-4,119,-973,60,1:49:00
597,-187,-442,2,0,-4,119,-975,57,1:49:00
582,-177,-445,3,2,-4,120,-977,57,1:49:00
582,-177,-445,4,4,-4,122,-979,61,1:49:00
597,-201,-451,2,2,-4,121,-978,64,1:49:00
597,-201,-451,4,3,-4,118,-975,62,1:49:00
615,-187,-451,4,2,-4,116,-975,61,1:49:00
591,-180,-447,2,0,-4,117,-977,60,1:49:00
592,-163,-450,2,-2,-3,116,-976,56,1:49:00
592,-163,-450,1,-2,-4,114,-977,59,1:49:00
597,-180,-451,0,0,-4,114,-976,62,1:49:00
598,-195,-442,0,5,-4,113,-975,63,1:49:00
589,-181,-441,0,5,-5,112,-974,62,1:49:00
612,-189,-454,0,7,-5,113,-972,63,1:49:00
597,-174,-453,1,9,-6,113,-972,63,1:49:00
598,-189,-444,2,7,-4,114,-973,64,1:49:00
598,-189,-444,2,6,-3,115,-973,60,1:49:00
612,-198,-453,2,5,-2,118,-973,60,1:49:00
598,-178,-438,4,4,-3,120,-973,60,1:49:00
598,-178,-438,4,4,-3,118,-976,63,1:49:00
603,-169,-451,5,1,-2,117,-978,64,1:49:00
615,-181,-456,5,3,-1,118,-979,62,1:49:00
595,-181,-462,4,4,-2,118,-980,61,1:49:00
595,-181,-462,4,4,-2,120,-979,59,1:49:00
603,-190,-448,4,4,-4,118,-975,57,1:49:00
607,-184,-435,4,0,-4,112,-974,58,1:49:00
603,-178,-457,0,4,-7,106,-976,61,1:49:00
612,-171,-439,2,6,-7,105,-977,63,1:49:00
597,-180,-463,2,4,-6,107,-976,63,1:49:00
604,-175,-451,0,2,-5,111,-976,62,1:49:00
604,-175,-451,1,0,-5,112,-975,60,1:49:00
606,-180,-465,2,0,-5,116,-974,59,1:49:00
598,-172,-441,0,0,-4,116,-972,60,1:49:00
612,-184,-451,0,0,-4,117,-974,60,1:49:00
604,-175,-450,0,0,-3,117,-974,60,1:49:00
607,-169,-456,0,-5,-2,116,-975,60,1:49:00
607,-169,-456,-1,-7,-2,116,-977,59,1:49:00
591,-190,-438,-2,-5,-2,117,-979,59,1:49:00
597,-198,-466,-2,-5,-2,119,-978,61,1:49:00
604,-183,-447,-3,-9,-1,121,-980,64,1:49:00
606,-187,-468,-4,-8,-1,122,-980,61,1:49:00
612,-190,-454,-5,-4,0,123,-980,63,1:49:00
612,-190,-454,-6,-3,0,122,-981,63,1:49:00
600,-175,-441,-8,-2,0,122,-979,62,1:49:00
592,-178,-454,-9,-1,0,122,-977,61,1:49:00
597,-183,-444,-10,2,0,120,-977,58,1:49:00
586,-183,-424,-9,4,0,119,-976,59,1:49:00
591,-180,-463,-9,5,0,118,-974,62,1:49:00
591,-180,-463,-9,4,0,119,-973,62,1:49:00
595,-172,-445,-11,7,0,120,-973,61,1:49:00
592,-171,-454,-11,7,0,120,-975,60,1:49:00
609,-166,-456,-10,9,0,120,-975,60,1:49:00
601,-175,-448,-10,13,0,120,-976,60,1:49:00
595,-186,-460,-10,11,-1,118,-976,58,1:49:00
595,-186,-460,-7,9,-2,115,-976,56,1:49:00
610,-172,-456,-7,10,-2,114,-974,55,1:49:00
586,-180,-439,-7,10,-2,113,-976,57,1:49:00
613,-160,-447,-7,9,-3,114,-978,60,1:49:00
609,-175,-466,-7,7,-4,115,-977,60,1:49:00
586,-181,-453,-8,4,-4,116,-978,55,1:49:01
586,-181,-453,-12,2,-4,117,-978,55,1:49:01
597,-180,-450,-11,6,-6,117,-976,58,1:49:01
600,-178,-453,-10,9,-5,118,-978,57,1:49:01
607,-183,-447,-10,12,-5,119,-980,57,1:49:01
600,-186,-439,-11,16,-5,119,-981,63,1:49:01
601,-190,-462,-10,15,-6,121,-982,63,1:49:01
601,-190,-462,-12,9,-5,123,-981,59,1:49:01
609,-193,-459,-18,-3,-3,122,-977,57,1:49:01
609,-168,-442,-20,-1,-4,118,-976,55,1:49:01
615,-187,-468,-21,2,-5,121,-977,53,1:49:01
582,-189,-457,-21,14,-7,127,-974,49,1:49:01
609,-186,-450,-23,30,-10,127,-974,49,1:49:01
609,-186,-450,-23,45,-11,129,-971,48,1:49:01
607,-189,-445,-28,52,-11,131,-970,53,1:49:01
619,-172,-439,-36,54,-9,136,-969,54,1:49:01
604,-181,-442,-41,58,-10,140,-970,53,1:49:01
601,-193,-448,-41,58,-10,143,-972,54,1:49:01
589,-177,-462,-46,61,-9,146,-977,51,1:49:01
589,-177,-462,-51,67,-9,149,-982,50,1:49:01
621,-181,-448,-54,79,-12,150,-987,57,1:49:01
609,-196,-451,-58,90,-12,150,-989,68,1:49:01
606,-168,-444,-63,106,-11,157,-986,75,1:49:01
606,-168,-444,-68,109,-9,166,-983,74,1:49:01
603,-166,-433,-73,108,-6,166,-978,65,1:49:01
604,-186,-450,-77,111,-4,163,-973,55,1:49:01
604,-186,-450,-75,117,-2,163,-972,53,1:49:01
615,-180,-450,-76,128,1,159,-976,57,1:49:01
603,-174,-466,-79,140,4,159,-981,61,1:49:01
609,-192,-474,-80,144,9,160,-981,64,1:49:01
619,-174,-460,-82,137,11,156,-978,68,1:49:01
604,-174,-456,-88,129,15,156,-978,68,1:49:01
591,-187,-472,-94,123,16,151,-980,68,1:49:01
591,-187,-472,-97,119,18,147,-982,64,1:49:01
613,-162,-463,-99,119,17,144,-980,63,1:49:01
600,-183,-453,-100,119,16,144,-976,63,1:49:01
604,-180,-445,-100,119,16,143,-976,59,1:49:01
612,-171,-468,-102,121,11,142,-976,57,1:49:01
607,-178,-465,-105,126,11,138,-976,55,1:49:01
613,-195,-469,-108,129,9,134,-977,52,1:49:01
613,-195,-469,-110,130,4,132,-979,53,1:49:01
616,-171,-456,-112,134,0,129,-982,57,1:49:01
619,-166,-456,-114,136,-1,128,-985,58,1:49:01
606,-165,-460,-114,140,-3,124,-984,55,1:49:01
616,-184,-468,-116,132,-4,119,-984,54,1:49:01
625,-168,-456,-121,128,-3,116,-985,61,1:49:01
607,-181,-466,-124,121,0,112,-985,69,1:49:01
607,-181,-466,-128,107,1,107,-988,69,1:49:01
618,-171,-474,-131,89,3,101,-990,70,1:49:01
619,-163,-484,-135,73,2,99,-991,73,1:49:01
607,-154,-456,-139,59,3,94,-994,73,1:49:01
606,-165,-456,-141,35,1,94,-994,73,1:49:01
612,-168,-474,-144,16,-5,81,-994,69,1:49:01
607,-165,-466,-149,9,-11,70,-993,65,1:49:01
607,-165,-466,-154,10,-22,67,-989,64,1:49:01
621,-165,-472,-160,16,-39,64,-988,62,1:49:01
612,-169,-490,-160,16,-39,64,-997,60,1:49:01
630,-148,-472,-165,27,-50,62,-999,57,1:49:01
609,-163,-474,-175,40,-67,56,-996,51,1:49:01
621,-198,-469,-191,56,-86,44,-998,49,1:49:01
621,-198,-469,-206,54,-101,24,-995,55,1:49:01
616,-154,-475,-216,32,-118,3,-992,54,1:49:01
618,-148,-471,-224,5,-132,-24,-987,43,1:49:01
621,-162,-484,-227,-26,-149,-46,-982,50,1:49:01
610,-136,-463,-233,-71,-162,-59,-985,71,1:49:01
618,-151,-484,-231,-109,-179,-68,-992,90,1:49:01
618,-151,-484,-227,-153,-194,-63,-1005,107,1:49:01
633,-168,-472,-221,-188,-207,-55,-1021,127,1:49:01
619,-156,-484,-212,-224,-218,-43,-1046,143,1:49:01
616,-142,-483,-204,-270,-216,-25,-1067,161,1:49:01
627,-153,-486,-196,-343,-200,-17,-1063,180,1:49:01
598,-154,-484,-190,-438,-185,-19,-1035,192,1:49:01
598,-154,-484,-182,-543,-175,-19,-1035,192,1:49:01
613,-145,-477,-168,-630,-168,-28,-1001,191,1:49:01
621,-153,-492,-141,-688,-165,-24,-963,170,1:49:01
613,-150,-511,-119,-735,-171,1,-936,154,1:49:01
603,-157,-477,-119,-735,-171,29,-924,167,1:49:01
613,-139,-486,-107,-777,-185,58,-927,184,1:49:01
613,-139,-486,-113,-802,-207,85,-933,198,1:49:01
589,-135,-499,-136,-812,-238,93,-930,207,1:49:01
606,-142,-492,-167,-821,-275,90,-923,215,1:49:01
616,-154,-487,-195,-833,-307,89,-920,217,1:49:01
609,-142,-511,-211,-839,-331,86,-913,203,1:49:01
600,-132,-504,-206,-831,-352,75,-902,184,1:49:01
600,-132,-504,-199,-810,-364,57,-889,175,1:49:01
600,-121,-499,-186,-810,-387,56,-876,158,1:49:01
600,-121,-499,-163,-826,-408,65,-866,127,1:49:01
589,-126,-502,-117,-848,-420,64,-861,97,1:49:01
600,-141,-511,-65,-868,-432,72,-855,75,1:49:01
574,-123,-496,-5,-896,-440,78,-860,77,1:49:01
574,-123,-496,36,-919,-436,67,-875,92,1:49:01
580,-132,-517,81,-945,-429,67,-875,92,1:49:01
558,-127,-522,132,-953,-434,48,-879,96,1:49:01
567,-115,-505,176,-932,-439,26,-887,91,1:49:01
580,-130,-525,212,-885,-441,12,-905,75,1:49:01
577,-138,-523,212,-885,-441,2,-930,58,1:49:01
559,-127,-516,252,-823,-442,-6,-945,51,1:49:01
559,-127,-516,294,-782,-433,-20,-942,48,1:49:01
564,-144,-492,327,-771,-420,-37,-943,51,1:49:01
538,-141,-486,348,-827,-406,-64,-986,76,1:49:01
567,-147,-499,325,-849,-415,-77,-1029,87,1:49:01
552,-132,-505,285,-859,-413,-86,-1057,80,1:49:01
537,-157,-493,263,-882,-408,-81,-1060,66,1:49:01
537,-157,-493,260,-938,-380,-48,-1063,60,1:49:01
564,-171,-505,256,-1019,-312,-83,-1049,22,1:49:01
567,-147,-507,229,-1069,-345,-117,-1039,-12,1:49:01
549,-127,-493,207,-1141,-280,-42,-1064,13,1:49:01
523,-150,-498,173,-1294,-190,-65,-1067,40,1:49:02
529,-144,-496,149,-1432,-151,-65,-1067,40,1:49:02
526,-151,-486,131,-1547,-124,-85,-1062,54,1:49:02
526,-151,-486,103,-1589,-92,-23,-1067,59,1:49:02
528,-165,-496,80,-1568,-72,1,-1059,33,1:49:02
516,-154,-498,59,-1520,-59,22,-1048,15,1:49:02
501,-156,-480,59,-1520,-59,42,-1038,28,1:49:02
501,-156,-480,35,-1463,-47,51,-1022,47,1:49:02
507,-147,-493,16,-1411,-37,48,-995,62,1:49:02
472,-159,-496,7,-1372,-30,42,-964,68,1:49:02
472,-159,-496,-4,-1334,-27,47,-943,59,1:49:02
477,-150,-469,-14,-1301,-21,61,-928,63,1:49:02
465,-166,-478,-28,-1272,-9,76,-922,75,1:49:02
457,-174,-490,-32,-1230,7,87,-927,92,1:49:02
472,-166,-469,-26,-1174,26,93,-933,92,1:49:02
448,-151,-481,-1,-1126,49,93,-930,86,1:49:02
439,-171,-465,37,-1101,64,81,-920,101,1:49:02
439,-171,-465,37,-1110,82,63,-906,103,1:49:02
448,-154,-480,53,-1137,97,60,-889,90,1:49:02
441,-153,-463,69,-1136,103,64,-887,77,1:49:02
435,-154,-459,75,-1069,95,84,-906,113,1:49:02
435,-154,-459,85,-979,95,103,-941,199,1:49:02
439,-151,-454,91,-943,116,103,-941,199,1:49:02
417,-138,-457,111,-969,161,144,-980,236,1:49:02
417,-138,-457,167,-1066,229,204,-998,239,1:49:02
418,-154,-448,266,-1091,258,221,-978,177,1:49:02
412,-147,-456,350,-975,235,172,-974,67,1:49:02
412,-151,-447,350,-975,235,106,-1044,41,1:49:02
400,-142,-454,414,-770,170,94,-1168,100,1:49:02
412,-147,-465,411,-647,120,92,-1296,139,1:49:02
412,-147,-465,350,-550,71,93,-1376,135,1:49:02
396,-150,-448,217,-440,37,96,-1345,161,1:49:02
396,-163,-438,62,-396,53,123,-1183,217,1:49:02
394,-159,-445,-61,-485,107,172,-1007,257,1:49:02
390,-153,-423,-120,-637,167,170,-871,259,1:49:02
382,-156,-418,-156,-779,203,115,-804,228,1:49:02
373,-160,-451,-172,-848,228,54,-848,213,1:49:02
373,-160,-451,-179,-925,247,40,-927,214,1:49:02
370,-144,-433,-168,-1001,272,104,-975,151,1:49:02
385,-151,-429,-137,-1036,303,188,-971,70,1:49:02
388,-144,-441,-91,-1066,324,233,-926,18,1:49:02
381,-153,-429,-45,-1071,316,226,-885,-17,1:49:02
348,-148,-420,-42,-1042,270,226,-885,-17,1:49:02
354,-157,-408,-64,-985,219,190,-893,-17,1:49:02
354,-157,-408,-79,-978,158,185,-921,5,1:49:02
340,-151,-412,-81,-1003,107,204,-939,15,1:49:02
325,-141,-406,-96,-1073,55,216,-955,20,1:49:02
340,-145,-399,-96,-1073,55,184,-965,47,1:49:02
339,-156,-402,-133,-1156,-3,146,-984,70,1:49:02
315,-141,-396,-169,-1227,-30,136,-998,31,1:49:02
319,-127,-403,-187,-1294,-35,136,-993,-8,1:49:02
319,-127,-403,-193,-1354,-25,174,-988,-17,1:49:02
336,-153,-393,-191,-1386,-1,227,-988,-25,1:49:02
328,-145,-390,-182,-1416,26,263,-991,-18,1:49:02
325,-136,-391,-184,-1453,44,276,-998,0,1:49:02
345,-151,-381,-200,-1479,48,274,-994,15,1:49:02
310,-154,-370,-226,-1520,43,239,-981,23,1:49:02
300,-139,-364,-256,-1558,30,200,-975,22,1:49:02
300,-139,-364,-284,-1572,19,176,-975,25,1:49:02
303,-133,-354,-308,-1615,7,155,-979,33,1:49:02
300,-120,-358,-325,-1685,10,142,-982,24,1:49:02
286,-135,-342,-338,-1752,12,145,-987,-8,1:49:02
282,-124,-322,-346,-1804,18,145,-987,-8,1:49:02
309,-144,-321,-347,-1855,27,165,-1001,-16,1:49:02
291,-135,-348,-343,-1934,29,155,-1009,-7,1:49:02
291,-135,-348,-343,-1934,29,129,-1005,-13,1:49:02
295,-147,-331,-336,-2011,37,139,-996,-16,1:49:02
264,-136,-319,-333,-2062,36,157,-973,-21,1:49:02
267,-127,-289,-339,-2111,39,174,-951,-22,1:49:02
270,-141,-292,-322,-2146,32,185,-920,-42,1:49:02
273,-123,-267,-313,-2151,24,214,-901,-52,1:49:02
277,-136,-271,-322,-2135,12,264,-912,-51,1:49:02
277,-136,-271,-310,-2121,15,287,-928,-73,1:49:02
279,-124,-276,-280,-2082,11,327,-944,-74,1:49:02
267,-117,-268,-258,-2002,9,358,-953,-60,1:49:02
252,-130,-247,-256,-1954,13,396,-950,-42,1:49:02
270,-123,-220,-270,-1897,18,386,-950,-53,1:49:02
241,-132,-247,-280,-1838,7,341,-941,-74,1:49:02
255,-129,-229,-277,-1789,14,344,-934,-33,1:49:02
255,-129,-229,-288,-1775,21,319,-933,-24,1:49:02
280,-147,-228,-278,-1736,18,323,-935,-53,1:49:02
250,-127,-220,-259,-1689,29,323,-935,-53,1:49:02
264,-148,-201,-240,-1659,42,393,-927,-29,1:49:02
252,-157,-186,-238,-1602,49,437,-910,-15,1:49:02
271,-133,-175,-259,-1529,72,430,-911,-7,1:49:02
255,-141,-178,-259,-1529,72,430,-916,16,1:49:02
255,-141,-178,-270,-1491,60,451,-915,33,1:49:02
265,-138,-171,-270,-1473,57,445,-904,29,1:49:02
261,-139,-156,-277,-1434,60,443,-902,9,1:49:02
271,-141,-175,-297,-1376,68,416,-902,4,1:49:02
270,-130,-163,-306,-1313,43,389,-895,5,1:49:02
259,-123,-153,-319,-1261,23,411,-897,10,1:49:02
279,-144,-145,-336,-1204,7,419,-899,11,1:49:02
279,-144,-145,-343,-1141,-1,434,-886,5,1:49:02
273,-117,-142,-348,-1106,-9,452,-861,8,1:49:02
265,-141,-144,-354,-1061,-14,465,-857,2,1:49:02
291,-130,-133,-365,-976,-15,465,-864,-32,1:49:02
298,-132,-129,-373,-756,-19,542,-894,-29,1:49:02
298,-132,-129,-382,-632,-32,549,-903,-45,1:49:02
301,-139,-136,-404,-494,-49,544,-918,-58,1:49:02
292,-151,-132,-420,-364,-63,544,-918,-58,1:49:02
283,-159,-132,-420,-275,-84,518,-936,-53,1:49:02
288,-138,-127,-406,-233,-91,475,-958,-27,1:49:02
283,-142,-141,-402,-216,-105,408,-977,0,1:49:02
283,-142,-141,-402,-216,-105,305,-988,17,1:49:02
301,-141,-135,-406,-187,-97,194,-997,57,1:49:03
304,-154,-145,-419,-217,-105,112,-999,107,1:49:03
291,-141,-132,-414,-285,-101,62,-1000,134,1:49:03
291,-148,-133,-400,-371,-96,44,-1008,126,1:49:03
301,-157,-133,-410,-420,-86,48,-1012,88,1:49:03
301,-157,-133,-444,-413,-94,36,-997,36,1:49:03
300,-157,-132,-483,-347,-114,67,-992,9,1:49:03
295,-163,-139,-507,-271,-133,143,-1006,20,1:49:03
295,-163,-139,-515,-191,-158,186,-1007,46,1:49:03
313,-153,-147,-508,-144,-171,232,-1004,65,1:49:03
303,-165,-132,-499,-109,-157,249,-994,88,1:49:03
303,-165,-150,-482,-133,-171,245,-978,126,1:49:03
303,-165,-150,-458,-140,-143,223,-964,166,1:49:03
300,-163,-159,-442,-193,-147,129,-927,210,1:49:03
303,-148,-142,-414,-268,-153,92,-919,243,1:49:03
309,-159,-139,-392,-336,-147,92,-919,243,1:49:03
316,-171,-147,-376,-409,-163,81,-934,277,1:49:03
319,-171,-144,-366,-422,-154,64,-923,283,1:49:03
303,-187,-145,-360,-415,-167,97,-906,254,1:49:03
303,-187,-145,-360,-415,-167,106,-878,246,1:49:03
321,-171,-159,-348,-391,-194,108,-849,260,1:49:03
321,-175,-153,-326,-375,-216,139,-842,257,1:49:03
321,-175,-153,-306,-375,-234,144,-836,255,1:49:03
315,-166,-136,-284,-378,-248,112,-820,261,1:49:03
345,-177,-136,-254,-382,-269,98,-820,257,1:49:03
313,-180,-148,-223,-386,-292,101,-846,247,1:49:03
313,-180,-148,-224,-398,-308,118,-880,222,1:49:03
339,-172,-159,-226,-388,-308,139,-897,195,1:49:03
321,-160,-150,-212,-362,-303,136,-899,194,1:49:03
327,-171,-144,-186,-322,-310,140,-895,211,1:49:03
318,-174,-147,-170,-292,-315,156,-890,238,1:49:03
348,-180,-169,-150,-300,-313,162,-892,265,1:49:03
333,-178,-151,-110,-330,-308,178,-908,270,1:49:03
333,-178,-151,-64,-373,-298,194,-931,267,1:49:03
351,-177,-138,-17,-403,-284,194,-958,261,1:49:03
312,-190,-123,28,-410,-270,206,-958,261,1:49:03
312,-190,-123,74,-394,-256,204,-969,243,1:49:03
342,-183,-145,116,-362,-243,188,-967,228,1:49:03
343,-190,-144,150,-326,-235,169,-954,226,1:49:03
372,-204,-136,150,-326,-235,136,-938,241,1:49:03
372,-204,-136,168,-293,-238,112,-928,260,1:49:03
351,-196,-141,173,-273,-242,107,-927,272,1:49:03
361,-181,-132,170,-277,-237,100,-932,268,1:49:03
361,-181,-132,167,-296,-233,91,-943,256,1:49:03
351,-204,-142,165,-302,-224,86,-956,242,1:49:03
348,-196,-133,178,-304,-212,80,-963,223,1:49:03
363,-208,-135,205,-315,-195,75,-971,214,1:49:03
363,-208,-135,219,-326,-175,75,-967,214,1:49:03
358,-193,-130,228,-340,-155,79,-954,212,1:49:03
358,-186,-111,240,-357,-140,79,-943,202,1:49:03
364,-202,-117,259,-379,-131,71,-943,195,1:49:03
379,-205,-126,278,-391,-127,64,-957,193,1:49:03
391,-184,-115,289,-370,-126,83,-989,195,1:49:03
373,-190,-108,293,-338,-110,108,-1018,204,1:49:03
373,-190,-108,291,-312,-94,108,-1018,204,1:49:03
376,-190,-111,273,-294,-74,123,-1034,203,1:49:03
379,-198,-85,249,-280,-51,137,-1045,200,1:49:03
379,-198,-85,231,-282,-31,148,-1048,209,1:49:03
367,-190,-70,235,-311,0,150,-1036,221,1:49:03
369,-195,-82,235,-311,0,153,-1008,210,1:49:03
388,-186,-85,236,-350,7,169,-997,187,1:49:03
388,-186,-85,227,-410,39,159,-981,159,1:49:03
375,-196,-94,215,-440,46,123,-954,114,1:49:03
366,-196,-64,224,-399,29,95,-930,71,1:49:03
382,-187,-94,233,-302,2,84,-917,57,1:49:03
367,-174,-79,216,-201,-32,108,-903,63,1:49:03
373,-183,-93,219,-153,-37,120,-911,88,1:49:03
379,-184,-84,221,-133,-32,110,-935,115,1:49:03
379,-184,-84,224,-144,-35,110,-934,126,1:49:03
390,-168,-93,214,-162,-30,106,-938,126,1:49:03
354,-196,-66,196,-177,-28,101,-946,108,1:49:03
354,-196,-66,167,-182,-63,126,-1007,108,1:49:03
369,-174,-72,200,-217,-24,141,-1024,103,1:49:03
403,-168,-79,216,-246,0,141,-1024,103,1:49:03
381,-169,-61,215,-249,4,126,-985,85,1:49:03
381,-169,-61,216,-234,4,122,-986,78,1:49:03
390,-192,-78,214,-213,0,127,-993,79,1:49:03
396,-189,-49,214,-213,0,134,-998,84,1:49:03
393,-177,-72,196,-191,-12,137,-1000,81,1:49:03
385,-169,-58,196,-191,-12,139,-999,72,1:49:03
418,-177,-54,186,-187,-16,134,-992,54,1:49:03
384,-177,-78,178,-163,-23,133,-984,51,1:49:03
384,-177,-78,163,-153,-21,140,-974,55,1:49:03
406,-172,-64,147,-149,-16,153,-973,55,1:49:03
385,-181,-46,134,-144,-11,169,-976,52,1:49:03
385,-181,-46,120,-121,-9,174,-980,55,1:49:03
391,-171,-70,109,-104,-8,181,-985,61,1:49:03
397,-162,-57,100,-91,-3,191,-986,53,1:49:03
400,-168,-52,92,-74,1,195,-980,45,1:49:03
400,-168,-52,84,-56,4,199,-974,41,1:49:03
391,-174,-46,76,-42,9,202,-974,31,1:49:03
408,-174,-49,70,-18,12,199,-979,27,1:49:03
387,-174,-40,67,0,15,188,-983,35,1:49:03
400,-181,-51,63,6,18,179,-986,46,1:49:03
385,-172,-42,58,2,24,179,-986,46,1:49:03
376,-151,-49,56,-7,28,167,-987,53,1:49:03
376,-151,-49,50,-22,32,157,-978,55,1:49:03
402,-171,-60,46,-35,32,152,-971,55,1:49:03
384,-163,-40,46,-35,32,147,-970,46,1:49:03
384,-163,-40,44,-25,30,143,-966,39,1:49:03
388,-162,-67,41,-15,29,143,-969,37,1:49:03
394,-189,-49,35,-4,27,146,-975,34,1:49:03
384,-168,-40,33,4,25,150,-977,29,1:49:03
384,-168,-40,30,8,22,150,-980,29,1:49:03
385,-159,-67,28,2,20,144,-980,27,1:49:03
400,-165,-43,28,-6,16,139,-978,18,1:49:03
375,-166,-61,24,-10,11,137,-972,17,1:49:03
387,-159,-49,20,-11,8,141,-964,20,1:49:04
373,-180,-39,17,-15,6,146,-963,18,1:49:04
373,-180,-39,17,-9,4,146,-965,16,1:49:04
388,-156,-46,17,-4,4,150,-971,17,1:49:04
403,-157,-49,18,-4,5,156,-976,16,1:49:04
385,-189,-51,17,-4,7,159,-979,15,1:49:04
378,-166,-57,16,-14,10,159,-979,15,1:49:04
379,-166,-52,17,-14,10,161,-980,15,1:49:04
408,-181,-42,18,-8,9,160,-978,14,1:49:04
408,-181,-42,14,0,6,156,-977,12,1:49:04
409,-178,-43,10,5,2,154,-976,10,1:49:04
379,-181,-31,10,5,2,154,-977,12,1:49:04
376,-181,-39,4,0,0,156,-983,24,1:49:04
391,-177,-51,5,-3,0,156,-979,23,1:49:04
399,-177,-67,6,-6,0,157,-975,17,1:49:04
399,-177,-67,7,-8,0,157,-973,8,1:49:04
396,-180,-42,11,0,-2,154,-976,6,1:49:04
375,-166,-52,13,8,-4,151,-978,14,1:49:04
381,-181,-61,11,9,-7,150,-977,18,1:49:04
369,-168,-42,7,7,-9,149,-975,14,1:49:04
364,-171,-49,3,4,-9,145,-972,7,1:49:04
364,-171,-49,2,7,-11,142,-973,7,1:49:04
388,-181,-54,4,11,-11,145,-978,13,1:49:04
382,-177,-52,7,11,-12,148,-980,16,1:49:04
391,-172,-42,5,8,-11,150,-979,16,1:49:04
384,-169,-52,3,5,-10,150,-979,16,1:49:04
391,-190,-52,2,6,-9,150,-979,17,1:49:04
391,-190,-52,3,9,-10,148,-976,16,1:49:04
384,-159,-42,2,11,-11,145,-976,14,1:49:04
378,-174,-58,2,11,-12,143,-982,17,1:49:04
382,-165,-55,2,11,-12,141,-981,19,1:49:04
402,-178,-43,0,14,-15,140,-978,21,1:49:04
379,-168,-45,-2,18,-18,143,-977,22,1:49:04
379,-168,-45,-5,21,-18,145,-975,23,1:49:04
375,-171,-39,-9,15,-18,146,-975,22,1:49:04
375,-171,-39,-11,16,-18,145,-976,20,1:49:04
379,-180,-54,-8,14,-15,141,-979,20,1:49:04
403,-178,-48,-5,11,-14,138,-979,24,1:49:04
385,-171,-55,-5,4,-11,137,-976,28,1:49:04
385,-171,-55,-5,-2,-11,135,-974,28,1:49:04
376,-163,-55,-4,-11,-10,131,-973,25,1:49:04
387,-181,-52,-4,-11,-9,131,-974,24,1:49:04
387,-181,-52,-8,-14,-10,130,-974,28,1:49:04
382,-169,-46,-8,-20,-10,131,-976,30,1:49:04
390,-180,-48,-7,-24,-9,131,-976,30,1:49:04
393,-160,-54,-5,-25,-9,134,-977,30,1:49:04
393,-160,-54,-5,-25,-9,135,-975,29,1:49:04
375,-171,-37,-5,-28,-8,135,-975,27,1:49:04
381,-171,-49,-5,-34,-7,135,-975,27,1:49:04
396,-177,-46,-5,-34,-7,138,-975,28,1:49:04
370,-172,-52,-8,-35,-8,137,-971,27,1:49:04
388,-169,-45,-9,-37,-10,135,-969,22,1:49:04
388,-178,-57,-13,-30,-12,136,-968,22,1:49:04
388,-178,-57,-13,-30,-14,138,-967,28,1:49:04
394,-177,-49,-11,-29,-14,139,-970,27,1:49:04
385,-172,-34,-4,-17,-14,141,-973,28,1:49:04
385,-172,-34,-5,-22,-12,145,-976,33,1:49:04
396,-172,-63,-4,-29,-11,146,-975,33,1:49:04
397,-178,-36,-2,-31,-10,146,-974,29,1:49:04
381,-169,-55,-2,-25,-11,145,-970,28,1:49:04
381,-169,-55,-3,-23,-11,143,-967,27,1:49:04
397,-162,-58,-7,-22,-13,141,-969,24,1:49:04
396,-168,-48,-7,-22,-13,144,-973,23,1:49:04
397,-165,-48,-6,-14,-13,147,-976,24,1:49:04
406,-172,-54,-4,-9,-13,147,-978,24,1:49:04
375,-163,-43,-4,-7,-12,145,-978,26,1:49:04
367,-162,-66,-3,-5,-11,143,-977,27,1:49:04
367,-162,-66,-4,-4,-11,142,-977,30,1:49:04
403,-166,-54,-3,-2,-11,138,-974,30,1:49:04
390,-183,-25,-3,-2,-11,135,-973,26,1:49:04
390,-183,-25,-4,-2,-11,137,-975,25,1:49:04
390,-163,-36,-5,0,-12,137,-977,28,1:49:04
396,-177,-58,-6,0,-9,137,-977,30,1:49:04
396,-177,-58,-7,0,-7,138,-978,28,1:49:04
376,-178,-57,-6,0,-7,138,-980,30,1:49:04
405,-168,-57,-7,2,-7,135,-978,32,1:49:04
390,-165,-52,-8,3,-8,134,-978,31,1:49:04
378,-160,-67,-6,1,-12,132,-976,33,1:49:04
409,-187,-64,-4,-1,-14,128,-973,34,1:49:04
366,-175,-46,-5,-2,-15,127,-970,31,1:49:04
366,-175,-46,-3,-4,-16,125,-971,30,1:49:04
376,-153,-60,-1,-3,-14,126,-974,32,1:49:04
372,-159,-60,0,-2,-14,130,-975,34,1:49:04
387,-163,-60,-2,-3,-14,134,-974,34,1:49:04
394,-165,-45,-2,-8,-11,134,-974,34,1:49:04
390,-171,-48,-3,-8,-9,136,-972,33,1:49:04
396,-175,-40,0,-7,-7,134,-974,32,1:49:04
396,-175,-40,0,-7,-8,132,-976,32,1:49:04
390,-172,-51,2,-7,-8,134,-976,36,1:49:04
402,-157,-55,2,-7,-8,135,-976,39,1:49:04
382,-163,-52,2,-9,-9,134,-975,38,1:49:04
403,-178,-28,0,-9,-9,136,-975,39,1:49:04
405,-163,-42,-3,-13,-7,136,-975,39,1:49:04
367,-178,-69,-4,-14,-7,135,-975,35,1:49:04
367,-178,-69,-4,-11,-7,132,-978,31,1:49:04
397,-172,-64,-4,-9,-6,131,-976,34,1:49:04
394,-181,-46,-2,-10,-5,131,-974,34,1:49:04
394,-172,-43,2,-12,-4,130,-978,34,1:49:04
387,-162,-40,0,-8,-4,128,-983,38,1:49:04
388,-162,-46,0,-8,-5,131,-983,39,1:49:04
396,-165,-58,0,-14,-5,134,-978,35,1:49:04
396,-165,-58,0,-14,-5,132,-972,32,1:49:04
378,-166,-49,0,-9,-6,130,-969,33,1:49:04
390,-192,-67,2,-4,-8,131,-968,34,1:49:04
400,-181,-54,3,7,-11,131,-972,28,1:49:04
372,-166,-46,6,4,-10,131,-972,28,1:49:04
403,-174,-42,5,0,-9,128,-974,25,1:49:05
399,-180,-43,5,-3,-9,126,-973,31,1:49:05
399,-180,-43,5,-3,-9,130,-974,36,1:49:05
382,-195,-52,4,-6,-8,135,-975,35,1:49:05
381,-180,-69,3,-8,-7,136,-975,31,1:49:05
399,-156,-52,4,-9,-4,134,-976,31,1:49:05
387,-186,-43,8,-7,-4,134,-975,31,1:49:05
399,-156,-45,7,-2,-5,134,-974,29,1:49:05
388,-183,-61,6,1,-6,135,-975,28,1:49:05
388,-183,-61,4,1,-5,133,-974,29,1:49:05
387,-174,-43,2,-1,-6,131,-974,31,1:49:05
369,-174,-48,4,-4,-5,130,-975,35,1:49:05
376,-187,-52,6,-4,-6,129,-976,34,1:49:05
376,-187,-52,7,-2,-7,128,-980,30,1:49:05
393,-187,-63,5,0,-7,129,-982,29,1:49:05
384,-168,-39,4,0,-7,131,-982,30,1:49:05
384,-168,-39,3,2,-7,132,-980,32,1:49:05
406,-172,-55,2,2,-6,131,-979,32,1:49:05
400,-175,-52,2,1,-4,131,-979,32,1:49:05
388,-165,-42,0,4,-4,128,-980,28,1:49:05
396,-148,-45,0,2,-3,127,-979,27,1:49:05
397,-187,-64,1,4,-2,128,-978,28,1:49:05
399,-163,-48,1,4,-2,130,-976,30,1:49:05
399,-163,-48,0,4,-1,131,-975,34,1:49:05
402,-169,-49,-2,3,0,129,-976,32,1:49:05
388,-174,-49,-2,0,0,126,-977,30,1:49:05
373,-168,-49,-7,-3,0,120,-973,29,1:49:05
390,-162,-61,-7,-4,-1,122,-970,33,1:49:05
415,-184,-48,-9,-4,-2,124,-973,35,1:49:05
415,-184,-48,-10,-6,-1,124,-976,33,1:49:05
381,-181,-51,-11,-7,-2,124,-977,32,1:49:05
375,-153,-55,-11,-8,0,126,-980,33,1:49:05
385,-177,-18,-9,-11,0,129,-979,35,1:49:05
388,-166,-61,-7,-14,-1,132,-974,31,1:49:05
378,-157,-61,-3,-14,0,133,-973,27,1:49:05
391,-183,-51,-1,-9,-2,133,-974,32,1:49:05
391,-183,-51,0,-8,-3,133,-974,32,1:49:05
399,-160,-46,0,-9,-3,134,-974,34,1:49:05
382,-178,-57,0,-12,-3,138,-974,32,1:49:05
403,-183,-52,1,-10,-4,140,-975,30,1:49:05
367,-171,-36,-1,-7,-4,136,-974,30,1:49:05
367,-171,-36,-1,-7,-4,135,-976,32,1:49:05
394,-160,-72,0,-7,-4,135,-978,33,1:49:05
394,-160,-72,2,-5,-4,134,-977,31,1:49:05
397,-166,-40,3,-3,-3,134,-976,30,1:49:05
387,-187,-60,1,-2,-2,136,-978,33,1:49:05
396,-160,-54,-1,-5,-1,136,-976,35,1:49:05
397,-162,-48,0,-7,0,134,-972,33,1:49:05
399,-178,-60,-2,-10,0,135,-972,30,1:49:05
399,-178,-60,-4,-11,0,138,-973,31,1:49:05
393,-169,-49,-3,-7,0,139,-970,33,1:49:05
391,-165,-63,-4,-4,-2,139,-969,36,1:49:05
387,-169,-52,-4,-3,-3,147,-976,44,1:49:05
402,-159,-67,-3,-6,0,150,-978,43,1:49:05
397,-174,-51,0,-5,0,144,-977,35,1:49:05
397,-174,-51,-1,0,-1,144,-978,36,1:49:05
394,-178,-57,-2,2,-1,144,-978,36,1:49:05
393,-171,-57,-2,2,0,144,-978,36,1:49:05
399,-177,-37,-1,1,-2,140,-975,33,1:49:05
391,-166,-42,0,0,-2,137,-971,32,1:49:05
379,-168,-63,0,0,-2,137,-971,33,1:49:05
379,-168,-63,0,0,-2,135,-970,34,1:49:05
384,-177,-52,0,0,-1,138,-970,35,1:49:05
397,-174,-54,0,-2,0,138,-972,36,1:49:05
399,-171,-63,2,-2,1,139,-975,33,1:49:05
379,-171,-58,3,-4,1,139,-976,31,1:49:05
379,-171,-58,5,-2,1,137,-973,31,1:49:05
390,-183,-48,5,-2,0,139,-973,30,1:49:05
394,-150,-31,7,0,0,138,-973,28,1:49:05
394,-150,-31,9,0,-2,136,-973,30,1:49:05
393,-174,-57,5,1,-4,138,-975,36,1:49:05
382,-178,-52,2,0,-4,143,-979,39,1:49:05
396,-189,-52,0,-2,-3,146,-979,39,1:49:05
396,-189,-52,0,-4,-1,146,-977,35,1:49:05
372,-190,-49,2,-5,0,143,-975,31,1:49:05
390,-168,-46,4,5,-1,142,-972,31,1:49:05
408,-159,-48,3,2,-1,142,-972,31,1:49:05
370,-174,-69,1,-2,-1,141,-972,29,1:49:05
397,-165,-54,1,-2,-2,140,-972,28,1:49:05
381,-157,-66,1,-2,-2,141,-970,29,1:49:05
381,-157,-66,4,1,-2,142,-967,30,1:49:05
402,-175,-36,4,5,-3,142,-970,34,1:49:05
388,-177,-51,2,7,-5,143,-974,37,1:49:05
388,-177,-51,0,6,-3,146,-977,35,1:49:05
390,-157,-61,1,4,-2,147,-979,31,1:49:05
388,-169,-57,2,2,-2,147,-978,29,1:49:05
391,-172,-55,2,6,-4,147,-976,30,1:49:05
391,-172,-55,3,5,-4,145,-976,31,1:49:05
402,-166,-60,2,7,-6,141,-974,30,1:49:05
373,-163,-69,2,6,-7,139,-971,29,1:49:05
388,-172,-60,1,7,-7,138,-972,30,1:49:05
399,-190,-52,2,7,-8,139,-973,30,1:49:05
382,-172,-49,1,6,-7,140,-972,31,1:49:05
396,-175,-51,2,4,-7,140,-971,31,1:49:05
396,-175,-51,2,4,-5,139,-974,32,1:49:05
390,-160,-55,3,2,-6,139,-976,32,1:49:05
379,-178,-46,3,7,-6,140,-976,32,1:49:05
379,-178,-46,3,0,-6,141,-977,30,1:49:05
387,-163,-54,2,-2,-6,141,-978,32,1:49:05
387,-178,-58,1,-2,-9,139,-978,33,1:49:05
393,-174,-49,1,-2,-9,139,-980,30,1:49:05
393,-174,-49,1,-2,-10,142,-980,32,1:49:05
387,-178,-49,0,-3,-9,144,-976,34,1:49:05
390,-174,-51,0,-6,-8,145,-971,32,1:49:05
396,-180,-45,0,-4,-7,144,-969,31,1:49:05
397,-172,-60,0,-2,-7,143,-972,31,1:49:05
400,-180,-51,0,-1,-7,142,-974,30,1:49:06
400,-180,-51,0,0,-7,142,-974,32,1:49:06
384,-187,-67,-1,-2,-7,144,-974,34,1:49:06
385,-165,-39,0,-2,-7,145,-975,36,1:49:06
384,-159,-40,0,-5,-8,144,-976,38,1:49:06
394,-165,-60,0,-4,-9,143,-974,40,1:49:06
388,-165,-51,0,-4,-9,144,-976,38,1:49:06
388,-159,-69,2,-7,-8,144,-976,35,1:49:06
388,-159,-69,2,-9,-7,145,-972,31,1:49:06
396,-175,-45,2,-7,-7,145,-972,31,1:49:06
382,-186,-75,2,-5,-7,147,-971,31,1:49:06
393,-169,-34,0,-2,-7,145,-971,33,1:49:06
393,-169,-34,0,-1,-7,146,-974,33,1:49:06
402,-175,-60,0,0,-7,146,-974,35,1:49:06
393,-186,-54,0,0,-7,144,-972,36,1:49:06
393,-186,-54,-2,1,-7,143,-970,36,1:49:06
367,-175,-64,-2,4,-7,142,-974,37,1:49:06
400,-171,-45,-4,2,-7,142,-975,37,1:49:06
384,-183,-48,-3,2,-7,142,-974,35,1:49:06
391,-180,-52,-4,0,-7,143,-973,38,1:49:06
390,-178,-58,-4,-2,-6,142,-973,39,1:49:06
388,-160,-60,-4,-4,-6,140,-971,34,1:49:06
388,-160,-60,-5,-3,-6,139,-972,31,1:49:06
379,-177,-60,-4,0,-7,139,-976,34,1:49:06
385,-171,-48,-3,0,-6,140,-974,35,1:49:06
385,-186,-48,-2,3,-7,137,-972,34,1:49:06
385,-186,-48,-2,0,-7,134,-972,33,1:49:06
396,-174,-55,0,0,-5,137,-974,33,1:49:06
387,-162,-49,2,0,-5,137,-976,37,1:49:06
387,-162,-49,4,0,-7,138,-976,37,1:49:06
399,-166,-43,4,2,-8,138,-976,36,1:49:06
390,-177,-64,1,3,-7,141,-975,36,1:49:06
394,-168,-52,0,0,-7,140,-975,37,1:49:06
381,-172,-57,0,0,-7,141,-975,39,1:49:06
379,-172,-54,1,0,-6,143,-975,37,1:49:06
394,-169,-66,2,0,-5,140,-976,34,1:49:06
394,-169,-66,4,-2,-6,138,-974,33,1:49:06
390,-162,-61,3,-2,-5,136,-972,35,1:49:06
400,-171,-58,2,0,-4,135,-972,37,1:49:06
382,-154,-34,3,7,-7,137,-974,37,1:49:06
385,-186,-46,0,3,-7,139,-974,36,1:49:06
393,-168,-60,0,0,-6,141,-974,39,1:49:06
387,-163,-55,0,2,-7,141,-976,40,1:49:06
387,-163,-55,1,1,-7,137,-975,38,1:49:06
391,-162,-45,0,0,-7,135,-975,39,1:49:06
385,-175,-58,0,-1,-8,135,-975,38,1:49:06
363,-186,-55,0,-2,-8,138,-973,43,1:49:06
393,-175,-54,0,-4,-7,138,-973,45,1:49:06
373,-186,-67,1,-7,-6,139,-973,45,1:49:06
373,-186,-67,0,-11,-6,136,-975,48,1:49:06
388,-162,-70,0,-14,-6,134,-979,47,1:49:06
381,-174,-46,0,-16,-5,135,-979,40,1:49:06
385,-169,-69,0,-16,-5,135,-976,34,1:49:06
394,-184,-31,-1,-14,-3,137,-974,32,1:49:06
390,-171,-57,0,-11,-4,140,-973,31,1:49:06
402,-163,-60,1,-9,-3,141,-974,33,1:49:06
402,-163,-60,2,-9,-3,142,-973,40,1:49:06
387,-178,-72,1,-9,-4,142,-973,42,1:49:06
379,-172,-57,0,-7,-6,140,-973,40,1:49:06
403,-184,-67,0,-5,-7,137,-973,38,1:49:06
385,-159,-51,0,-3,-9,136,-973,40,1:49:06
381,-193,-46,0,-3,-9,137,-974,41,1:49:06
381,-193,-46,2,-4,-9,140,-974,40,1:49:06
403,-172,-42,1,-4,-9,142,-972,38,1:49:06
400,-183,-61,3,-5,-9,142,-974,35,1:49:06
394,-175,-42,4,-5,-8,140,-975,35,1:49:06
402,-168,-43,4,-7,-8,139,-976,36,1:49:06
375,-171,-39,2,-10,-7,141,-979,39,1:49:06
375,-171,-39,4,-7,-9,141,-979,39,1:49:06
396,-174,-52,4,-7,-9,142,-978,41,1:49:06
390,-172,-60,3,-2,-10,140,-975,41,1:49:06
396,-180,-46,2,-3,-9,140,-975,42,1:49:06
397,-162,-22,2,-3,-9,142,-974,42,1:49:06
385,-169,-60,1,-5,-9,142,-972,39,1:49:06
385,-169,-60,0,-7,-8,143,-975,38,1:49:06
394,-172,-60,0,-4,-8,144,-975,38,1:49:06
387,-175,-57,1,-4,-7,143,-972,38,1:49:06
384,-171,-49,2,-4,-5,141,-971,39,1:49:06
372,-196,-54,1,-6,-4,141,-973,41,1:49:06
372,-196,-54,1,-7,-3,143,-973,42,1:49:06
376,-196,-51,0,-7,-2,142,-973,42,1:49:06
385,-171,-30,0,-10,-2,141,-974,44,1:49:06
385,-171,-30,-2,-11,-2,141,-976,44,1:49:06
396,-177,-43,-3,-11,-2,139,-978,45,1:49:06
403,-177,-60,-4,-11,-3,137,-976,45,1:49:06
397,-171,-60,-5,-13,-4,137,-975,44,1:49:06
397,-171,-60,-7,-16,-4,136,-973,42,1:49:06
396,-163,-45,-6,-21,-4,136,-973,42,1:49:06
372,-186,-48,-2,-17,-3,138,-971,41,1:49:06
384,-165,-70,-2,-19,-2,141,-971,41,1:49:06
399,-183,-52,0,-21,-1,143,-970,40,1:49:06
393,-175,-63,1,-23,0,143,-968,39,1:49:06
393,-165,-54,1,-23,0,144,-967,37,1:49:06
393,-165,-54,2,-23,-1,146,-967,38,1:49:06
393,-160,-73,4,-20,-2,144,-967,38,1:49:06
381,-153,-51,5,-18,-1,144,-970,39,1:49:06
387,-169,-54,6,-14,-2,147,-972,39,1:49:06
397,-162,-40,6,-12,-2,149,-973,39,1:49:06
400,-180,-67,6,-11,-2,148,-973,39,1:49:06
378,-180,-49,7,-9,-2,148,-971,39,1:49:06
378,-180,-49,4,-5,-3,148,-973,37,1:49:06
393,-184,-43,4,-6,-3,147,-974,37,1:49:06
385,-192,-43,4,-9,-2,147,-975,35,1:49:06
385,-192,-43,4,-7,-2,146,-975,34,1:49:06
409,-174,-63,5,-7,-2,143,-975,36,1:49:06
396,-172,-60,5,-4,-3,143,-977,38,1:49:07
396,-186,-39,6,-2,-2,141,-977,38,1:49:07
396,-186,-39,5,-3,-2,142,-977,39,1:49:07
378,-180,-54,7,-5,0,143,-974,35,1:49:07
394,-169,-64,7,-13,0,142,-973,34,1:49:07
388,-169,-58,7,-4,0,143,-971,33,1:49:07
400,-180,-60,7,-4,0,143,-970,31,1:49:07
385,-169,-58,7,0,-1,141,-973,30,1:49:07
378,-177,-60,6,1,-2,140,-973,32,1:49:07
378,-177,-60,5,0,-2,143,-976,34,1:49:07
384,-186,-51,5,-3,-3,142,-979,37,1:49:07
381,-169,-55,4,2,-5,138,-976,38,1:49:07
381,-169,-55,7,-1,-7,139,-976,37,1:49:07
393,-174,-48,7,-5,-6,139,-978,38,1:49:07
394,-180,-43,9,-7,-5,138,-975,37,1:49:07
376,-169,-46,9,-5,-5,140,-973,36,1:49:07
376,-169,-46,9,-7,-5,142,-974,32,1:49:07
403,-177,-36,9,-7,-5,146,-976,31,1:49:07
394,-159,-57,9,-4,-4,148,-973,32,1:49:07
394,-189,-73,9,-5,-4,145,-973,33,1:49:07
405,-172,-51,8,-7,-4,145,-973,36,1:49:07
393,-165,-61,9,-5,-4,145,-973,36,1:49:07
394,-162,-57,7,-4,-3,146,-974,35,1:49:07
394,-162,-57,7,-4,-4,146,-976,34,1:49:07
379,-157,-64,7,-4,-4,145,-974,35,1:49:07
390,-174,-43,3,-5,-4,144,-973,34,1:49:07
390,-174,-43,3,-5,-4,144,-973,34,1:49:07
396,-180,-52,4,-6,-4,145,-972,34,1:49:07
397,-165,-61,4,-5,-4,146,-972,33,1:49:07
376,-168,-49,4,-2,-3,146,-975,36,1:49:07
376,-168,-49,4,-4,-2,149,-976,37,1:49:07
408,-183,-57,4,-2,-2,149,-976,35,1:49:07
394,-181,-70,1,-13,-2,148,-975,34,1:49:07
387,-169,-48,1,-6,-3,147,-974,33,1:49:07
381,-195,-63,0,-3,-4,146,-975,33,1:49:07
391,-172,-52,-1,-2,-4,146,-976,33,1:49:07
382,-163,-75,-2,-3,-4,146,-973,35,1:49:07
382,-163,-75,-2,-2,-3,148,-973,35,1:49:07
396,-178,-45,-3,-1,-3,149,-975,36,1:49:07
382,-163,-48,-3,-4,-2,149,-975,37,1:49:07
382,-163,-48,-2,-2,-2,150,-973,36,1:49:07
397,-162,-48,-2,0,-2,150,-973,36,1:49:07
390,-174,-60,-2,2,-2,149,-972,35,1:49:07
376,-154,-48,-1,3,-2,150,-974,36,1:49:07
376,-154,-48,-1,3,-2,149,-974,36,1:49:07
397,-178,-45,0,3,-2,148,-974,37,1:49:07
397,-171,-48,0,3,-2,148,-972,39,1:49:07
381,-175,-69,1,1,-2,147,-973,36,1:49:07
394,-177,-63,1,2,-2,146,-975,35,1:49:07
402,-165,-61,0,1,-3,144,-976,36,1:49:07
400,-165,-40,1,1,-3,142,-977,36,1:49:07
400,-165,-40,0,0,-3,141,-975,34,1:49:07
385,-174,-57,0,0,-2,144,-973,36,1:49:07
379,-183,-33,-1,0,-2,144,-975,42,1:49:07
379,-183,-33,0,-6,-3,143,-975,40,1:49:07
378,-171,-46,-2,-4,-2,144,-973,35,1:49:07
394,-150,-42,-2,-2,-2,147,-971,34,1:49:07
388,-178,-69,-3,-4,-2,146,-972,36,1:49:07
388,-178,-69,-3,-3,-2,147,-975,37,1:49:07
385,-142,-63,-4,-2,-2,149,-976,37,1:49:07
375,-157,-49,-1,0,-2,148,-974,35,1:49:07
394,-160,-51,-1,0,-4,148,-972,33,1:49:07
408,-162,-54,0,0,-4,149,-971,33,1:49:07
408,-163,-39,0,0,-4,147,-971,34,1:49:07
408,-163,-39,0,-1,-3,145,-972,34,1:49:07
406,-148,-72,2,0,-4,145,-972,34,1:49:07
381,-172,-52,3,-2,-5,148,-972,36,1:49:07
367,-168,-45,3,-2,-5,147,-972,38,1:49:07
391,-174,-54,4,-4,-6,146,-973,40,1:49:07
396,-171,-52,6,-4,-6,145,-974,38,1:49:07
387,-163,-60,7,-6,-6,146,-976,36,1:49:07
387,-163,-60,7,-6,-6,145,-976,36,1:49:07
387,-159,-58,7,-6,-7,143,-976,36,1:49:07
400,-172,-61,6,-4,-7,145,-973,34,1:49:07
381,-171,-69,6,-19,-6,146,-972,32,1:49:07
381,-171,-69,7,-10,-7,146,-975,33,1:49:07
376,-171,-66,5,-3,-9,146,-974,35,1:49:07
394,-168,-51,4,-4,-7,147,-971,36,1:49:07
394,-168,-51,4,-3,-8,149,-972,35,1:49:07
387,-177,-46,3,-2,-7,150,-974,35,1:49:07
393,-175,-51,3,-4,-6,150,-974,35,1:49:07
385,-177,-60,3,-7,-6,150,-972,36,1:49:07
376,-168,-45,2,-2,-7,149,-972,35,1:49:07
390,-157,-55,2,-3,-8,146,-973,33,1:49:07
400,-163,-58,2,-3,-8,146,-973,35,1:49:07
400,-163,-58,3,-4,-7,148,-972,35,1:49:07
387,-180,-46,4,-4,-7,147,-972,36,1:49:07
381,-174,-49,2,-5,-9,144,-971,37,1:49:07
355,-168,-49,2,0,-9,147,-971,37,1:49:07
355,-168,-49,2,-2,-9,151,-972,35,1:49:07
394,-163,-61,4,-2,-9,149,-973,34,1:49:07
381,-160,-60,4,-4,-9,148,-973,34,1:49:07
381,-160,-60,4,-4,-7,149,-973,33,1:49:07
394,-172,-58,4,-4,-7,149,-973,33,1:49:07
382,-181,-49,4,-4,-7,149,-974,34,1:49:07
391,-190,-33,4,-4,-7,148,-975,37,1:49:07
402,-166,-58,2,-2,-8,149,-976,36,1:49:07
372,-162,-52,2,-2,-8,149,-975,36,1:49:07
397,-187,-51,2,-2,-9,147,-975,38,1:49:07
397,-187,-51,1,0,-11,147,-975,38,1:49:07
382,-174,-64,0,-2,-10,145,-976,36,1:49:07
384,-184,-52,0,-2,-10,147,-975,35,1:49:07
388,-168,-73,2,-6,-9,147,-974,36,1:49:07
388,-168,-73,2,-7,-9,145,-974,37,1:49:07
399,-171,-58,2,-7,-9,147,-973,37,1:49:07
399,-171,-58,2,-7,-9,147,-973,35,1:49:07
387,-178,-52,2,-9,-7,147,-978,35,1:49:08
388,-159,-61,2,-7,-7,150,-978,36,1:49:08
