magX[mG],magY[mG],magZ[mG],gyroX[mdps],gyroY[mdps],gyroZ[mdps],accX[mg],accY[mg],accZ[mg],hh:mm:ss.ms
382,-103,-399,-2,11,-7,91,-976,62,0:10:01
382,-103,-399,-2,11,-7,91,-976,62,0:10:01
382,-103,-399,-2,11,-7,91,-976,62,0:10:01
382,-103,-399,-2,11,-7,91,-976,62,0:10:01
382,-103,-399,-1,9,-2,91,-976,62,0:10:01
369,-109,-424,-1,3,0,95,-976,62,0:10:01
375,-124,-408,-2,0,1,95,-976,62,0:10:01
385,-112,-397,-6,0,1,92,-979,59,0:10:01
372,-106,-426,-4,0,0,92,-981,57,0:10:01
379,-102,-429,-4,2,0,91,-979,59,0:10:01
375,-105,-420,-7,4,-2,89,-978,63,0:10:01
375,-105,-420,-11,7,-5,88,-977,67,0:10:01
361,-120,-421,-11,9,-7,91,-978,68,0:10:01
363,-91,-421,-11,7,-7,94,-980,64,0:10:01
367,-96,-421,-7,4,-4,94,-980,64,0:10:01
352,-111,-394,-7,4,-3,94,-980,59,0:10:01
361,-120,-412,-7,4,-2,94,-980,63,0:10:01
352,-123,-402,-6,2,-1,94,-979,64,0:10:01
352,-123,-402,-3,0,0,92,-977,62,0:10:01
363,-111,-408,-2,-3,0,91,-976,65,0:10:01
378,-120,-429,-2,-3,0,92,-976,64,0:10:01
369,-109,-415,-2,-3,0,91,-974,61,0:10:01
372,-112,-426,-6,-2,0,92,-975,62,0:10:01
361,-105,-421,-7,-2,0,92,-977,59,0:10:01
373,-111,-411,-6,0,0,88,-977,60,0:10:01
373,-111,-411,-5,-2,0,86,-978,66,0:10:01
372,-91,-420,-7,-1,0,90,-976,64,0:10:01
348,-96,-412,-9,1,-2,94,-972,61,0:10:01
367,-103,-406,-6,2,-2,99,-973,62,0:10:01
367,-103,-406,-9,1,0,103,-975,62,0:10:01
372,-118,-405,-7,2,0,99,-978,63,0:10:01
375,-112,-396,-2,2,1,96,-978,65,0:10:01
375,-112,-396,-1,1,1,96,-978,66,0:10:01
358,-114,-423,-4,-2,0,96,-977,65,0:10:01
367,-114,-412,-7,-2,0,95,-978,65,0:10:01
388,-117,-394,-5,0,0,95,-978,65,0:10:01
363,-103,-417,-4,4,0,94,-976,65,0:10:01
369,-100,-399,-4,7,0,94,-975,64,0:10:01
381,-99,-433,-4,7,0,94,-975,63,0:10:01
381,-99,-433,-4,7,0,95,-978,68,0:10:01
373,-109,-409,-5,4,0,100,-979,71,0:10:01
364,-94,-432,-7,0,2,100,-980,72,0:10:01
357,-115,-402,-7,-2,2,99,-980,71,0:10:01
354,-94,-405,-7,-4,0,96,-979,68,0:10:01
367,-105,-424,-7,-4,0,96,-977,65,0:10:01
367,-108,-412,-4,-3,0,98,-974,67,0:10:01
367,-108,-412,-3,-5,0,98,-973,71,0:10:01
378,-112,-418,0,-4,0,100,-974,72,0:10:01
370,-94,-418,2,-6,2,101,-975,70,0:10:01
375,-105,-412,3,-14,4,101,-974,65,0:10:01
375,-109,-417,4,-9,4,100,-971,65,0:10:01
370,-103,-420,4,-6,3,100,-973,69,0:10:01
352,-100,-402,4,-7,2,100,-976,68,0:10:01
352,-100,-402,2,-4,2,99,-979,67,0:10:01
376,-112,-415,0,-1,0,99,-982,66,0:10:01
372,-112,-418,0,0,-1,99,-982,66,0:10:02
369,-100,-400,-3,-4,0,100,-979,67,0:10:02
372,-109,-417,-4,-7,0,101,-976,68,0:10:02
370,-103,-409,-4,-8,0,101,-977,66,0:10:02
369,-102,-412,-4,-8,0,103,-978,65,0:10:02
369,-102,-412,-4,-4,0,104,-978,64,0:10:02
375,-94,-409,-3,0,0,103,-977,66,0:10:02
378,-118,-418,-2,0,0,104,-974,68,0:10:02
363,-109,-397,-2,-2,0,106,-974,66,0:10:02
363,-109,-397,0,0,0,106,-973,67,0:10:02
372,-103,-403,0,-2,1,104,-973,68,0:10:02
366,-93,-408,0,-2,1,102,-975,67,0:10:02
366,-93,-408,0,-2,1,102,-977,67,0:10:02
378,-100,-430,0,-2,1,101,-979,68,0:10:02
355,-108,-414,2,-1,0,100,-979,65,0:10:02
361,-108,-391,4,5,-1,98,-978,59,0:10:02
346,-112,-430,0,4,-1,98,-977,61,0:10:02
364,-106,-426,-2,1,-1,100,-975,63,0:10:02
369,-100,-418,-2,0,-2,100,-974,60,0:10:02
369,-100,-418,-2,1,-2,99,-974,61,0:10:02
372,-94,-403,-2,0,0,99,-974,61,0:10:02
388,-112,-403,0,0,0,99,-978,64,0:10:02
345,-108,-396,2,0,0,99,-981,66,0:10:02
345,-108,-396,0,0,0,100,-979,66,0:10:02
364,-115,-405,0,0,0,102,-979,65,0:10:02
355,-124,-426,0,-1,-2,99,-981,64,0:10:02
355,-124,-426,0,-2,-2,93,-980,61,0:10:02
375,-96,-423,-2,0,-3,93,-979,63,0:10:02
369,-109,-411,-2,-1,-4,97,-976,65,0:10:02
369,-88,-436,-2,-8,-4,98,-977,65,0:10:02
367,-106,-424,-4,-7,-3,96,-980,66,0:10:02
358,-115,-417,-4,-10,-2,95,-980,66,0:10:02
372,-100,-417,-3,-10,-2,96,-979,66,0:10:02
372,-100,-417,-3,-7,-2,98,-980,66,0:10:02
375,-123,-423,-2,-7,-1,99,-980,65,0:10:02
358,-109,-423,-1,-6,-2,99,-977,65,0:10:02
360,-85,-426,-2,-5,-2,97,-978,65,0:10:02
352,-102,-408,-4,-9,-2,97,-975,64,0:10:02
381,-111,-429,-4,-11,-3,97,-975,64,0:10:02
376,-118,-408,-4,-10,-3,96,-972,63,0:10:02
376,-118,-408,-4,-9,-3,95,-975,64,0:10:02
357,-106,-411,-4,-11,-2,98,-976,65,0:10:02
345,-94,-414,-3,-12,-2,102,-978,69,0:10:02
369,-99,-423,-4,-12,-2,104,-978,70,0:10:02
360,-109,-409,-4,-12,-2,103,-978,70,0:10:02
378,-103,-423,-4,-9,-3,103,-977,72,0:10:02
376,-114,-403,-6,-8,-4,104,-976,71,0:10:02
376,-114,-403,-7,-7,-4,105,-975,68,0:10:02
370,-96,-408,-7,-3,-4,105,-974,65,0:10:02
376,-109,-420,-7,-1,-4,106,-972,65,0:10:02
372,-97,-390,-5,-2,-4,109,-974,64,0:10:02
373,-96,-418,-4,0,-4,106,-977,66,0:10:02
381,-99,-423,-5,3,-5,102,-980,68,0:10:02
378,-114,-421,-7,2,-4,102,-979,71,0:10:02
369,-99,-426,-5,-2,-3,101,-978,73,0:10:02
369,-99,-426,-5,-4,-2,102,-979,72,0:10:02
370,-91,-415,-4,-6,-1,105,-978,68,0:10:02
361,-99,-432,-6,-7,-2,108,-976,66,0:10:02
355,-87,-402,-7,-4,-3,108,-976,67,0:10:02
375,-112,-402,-11,0,-4,108,-976,67,0:10:02
361,-109,-417,-11,6,-7,107,-977,67,0:10:02
384,-103,-409,-11,10,-8,106,-977,65,0:10:02
384,-103,-409,-9,8,-6,106,-975,65,0:10:02
361,-105,-415,-7,9,-6,104,-973,68,0:10:02
354,-109,-396,-7,9,-6,105,-974,68,0:10:02
360,-105,-429,-7,8,-4,107,-976,69,0:10:02
360,-99,-412,-5,5,-4,107,-977,72,0:10:02
367,-100,-406,-5,4,-5,111,-978,72,0:10:02
364,-115,-436,-5,4,-7,109,-977,72,0:10:02
364,-115,-436,-4,2,-7,104,-977,72,0:10:02
379,-103,-420,-4,2,-9,103,-976,70,0:10:02
348,-100,-402,-4,1,-9,103,-974,72,0:10:02
348,-100,-402,0,3,-9,103,-974,75,0:10:02
364,-96,-414,0,4,-9,106,-976,74,0:10:02
379,-114,-426,0,3,-8,110,-976,73,0:10:02
379,-118,-423,1,1,-8,107,-975,70,0:10:02
379,-118,-423,1,2,-7,107,-975,70,0:10:02
363,-112,-423,0,2,-6,108,-976,72,0:10:02
367,-103,-427,1,7,-7,108,-976,72,0:10:02
354,-117,-409,-2,4,-7,108,-975,71,0:10:02
372,-108,-412,-1,2,-7,106,-974,72,0:10:02
373,-94,-412,-3,-1,-7,106,-977,74,0:10:02
373,-103,-415,-4,0,-7,106,-979,74,0:10:02
373,-103,-415,-4,0,-7,105,-978,76,0:10:02
366,-100,-432,-4,0,-7,104,-977,79,0:10:02
354,-106,-412,-5,-1,-7,105,-980,77,0:10:02
354,-106,-412,-3,0,-8,106,-981,75,0:10:02
363,-102,-418,-2,1,-8,105,-978,73,0:10:02
363,-106,-411,-3,1,-9,105,-977,71,0:10:02
375,-96,-439,-4,7,-8,106,-977,75,0:10:02
375,-96,-439,-5,4,-6,105,-976,78,0:10:02
379,-106,-421,-5,0,-5,104,-976,78,0:10:02
372,-94,-405,-7,-4,-4,101,-975,77,0:10:02
357,-88,-405,-6,-2,-5,100,-974,74,0:10:02
378,-96,-406,-5,-1,-5,102,-974,74,0:10:02
370,-100,-424,-6,2,-6,104,-974,77,0:10:02
367,-99,-411,-6,2,-6,105,-973,77,0:10:02
367,-99,-411,-6,3,-7,104,-972,75,0:10:02
376,-102,-421,-4,1,-6,102,-975,73,0:10:02
348,-99,-408,-2,6,-7,102,-975,73,0:10:02
370,-97,-409,-2,8,-7,99,-977,71,0:10:02
366,-102,-426,-2,6,-7,100,-975,72,0:10:02
378,-91,-412,-1,0,-7,104,-973,78,0:10:02
363,-99,-402,-1,0,-7,105,-975,81,0:10:02
363,-99,-402,-1,-2,-7,107,-975,76,0:10:02
367,-97,-421,-1,1,-8,105,-974,73,0:10:02
370,-97,-412,0,7,-7,103,-973,74,0:10:02
361,-106,-408,0,8,-7,101,-974,74,0:10:03
370,-99,-439,0,6,-6,98,-976,76,0:10:03
379,-96,-414,-2,1,-4,99,-977,78,0:10:03
361,-102,-411,-2,-4,-3,102,-978,75,0:10:03
361,-102,-411,0,-5,-2,103,-980,71,0:10:03
366,-97,-405,-2,0,-4,102,-978,74,0:10:03
367,-82,-400,-4,6,-4,102,-975,81,0:10:03
367,-96,-403,-4,3,-4,104,-975,86,0:10:03
372,-100,-409,-8,0,-4,104,-975,82,0:10:03
382,-102,-412,-8,2,-4,102,-975,77,0:10:03
376,-118,-424,-5,2,-4,101,-973,74,0:10:03
376,-118,-424,-2,1,-5,99,-970,70,0:10:03
376,-109,-414,0,2,-5,99,-970,70,0:10:03
372,-111,-420,0,2,-6,99,-970,70,0:10:03
381,-81,-409,-2,0,-7,100,-972,79,0:10:03
369,-109,-414,-2,-5,-6,102,-973,89,0:10:03
373,-103,-414,-2,-5,-6,103,-975,86,0:10:03
388,-109,-391,-3,-6,-6,105,-978,81,0:10:03
388,-109,-391,-2,-1,-7,105,-980,79,0:10:03
364,-96,-429,0,-2,-6,106,-980,80,0:10:03
370,-79,-399,0,-2,-6,105,-973,80,0:10:03
375,-105,-418,-1,4,-7,105,-971,79,0:10:03
382,-103,-409,-2,4,-7,105,-973,82,0:10:03
364,-102,-426,-4,4,-9,103,-976,83,0:10:03
358,-114,-411,-4,4,-9,105,-976,83,0:10:03
358,-114,-411,-2,1,-7,106,-974,84,0:10:03
370,-105,-414,-3,-2,-5,104,-976,84,0:10:03
367,-103,-402,-4,-2,-5,105,-979,80,0:10:03
367,-103,-402,-5,-2,-6,105,-978,81,0:10:03
354,-111,-408,-5,0,-7,102,-977,84,0:10:03
354,-97,-411,-4,0,-6,102,-977,84,0:10:03
364,-85,-420,-4,3,-7,100,-974,85,0:10:03
364,-85,-420,-5,4,-8,101,-972,85,0:10:03
382,-103,-423,-5,0,-8,103,-972,83,0:10:03
367,-106,-414,-7,-6,-7,103,-974,83,0:10:03
361,-117,-415,-8,-2,-6,105,-976,82,0:10:03
378,-108,-424,-8,-2,-6,103,-978,82,0:10:03
375,-111,-402,-6,-2,-6,102,-974,80,0:10:03
369,-108,-433,-6,-3,-5,102,-973,81,0:10:03
369,-108,-433,-5,-1,-6,97,-974,81,0:10:03
366,-102,-424,-5,0,-7,96,-975,82,0:10:03
367,-96,-411,-5,-4,-7,101,-978,86,0:10:03
367,-96,-411,-7,-4,-7,103,-978,84,0:10:03
360,-105,-408,-6,-4,-7,103,-977,78,0:10:03
369,-94,-408,-4,-4,-8,103,-975,76,0:10:03
381,-111,-427,-2,-4,-9,101,-972,80,0:10:03
381,-111,-427,2,-4,-10,101,-971,83,0:10:03
360,-111,-409,2,-7,-9,105,-971,81,0:10:03
379,-87,-426,1,-4,-9,105,-974,81,0:10:03
364,-105,-423,4,-7,-6,106,-975,84,0:10:03
373,-105,-429,2,-11,-4,110,-974,84,0:10:03
366,-109,-438,2,-11,-2,110,-974,84,0:10:03
375,-103,-418,0,-10,-3,108,-974,82,0:10:03
375,-103,-418,0,-6,-4,101,-975,84,0:10:03
363,-100,-414,-2,-4,-6,102,-976,85,0:10:03
348,-111,-399,-3,-2,-7,104,-976,83,0:10:03
367,-106,-427,-3,-2,-7,105,-976,78,0:10:03
354,-94,-411,-3,-4,-7,105,-977,77,0:10:03
375,-96,-408,-2,-1,-8,104,-977,79,0:10:03
363,-102,-420,-2,-1,-8,104,-976,82,0:10:03
363,-102,-420,-2,0,-7,108,-975,83,0:10:03
370,-97,-420,0,-1,-7,107,-974,81,0:10:03
373,-108,-402,2,3,-7,104,-975,82,0:10:03
373,-108,-402,4,1,-7,103,-976,82,0:10:03
369,-112,-412,5,0,-8,102,-975,80,0:10:03
361,-102,-421,5,0,-8,102,-973,81,0:10:03
366,-97,-426,4,-1,-7,101,-973,85,0:10:03
384,-100,-426,3,-3,-7,101,-975,85,0:10:03
384,-100,-426,1,-7,-6,102,-976,81,0:10:03
369,-93,-406,4,-4,-7,102,-978,76,0:10:03
354,-103,-417,5,-3,-7,102,-977,76,0:10:03
367,-105,-435,5,-2,-7,102,-977,76,0:10:03
364,-93,-421,2,-2,-7,105,-975,81,0:10:03
361,-111,-429,1,-2,-7,106,-973,81,0:10:03
352,-120,-415,1,-2,-7,105,-974,80,0:10:03
352,-120,-415,0,-2,-7,107,-975,83,0:10:03
351,-100,-409,0,-3,-6,106,-975,85,0:10:03
351,-100,-409,2,-3,-5,103,-976,82,0:10:03
382,-106,-429,2,0,-6,103,-976,79,0:10:03
360,-111,-433,4,2,-5,104,-975,85,0:10:03
363,-118,-418,2,-2,-5,106,-977,88,0:10:03
373,-90,-420,1,0,-6,103,-979,86,0:10:03
373,-90,-420,3,4,-7,101,-976,84,0:10:03
360,-111,-423,3,4,-7,104,-975,83,0:10:03
370,-111,-412,2,8,-7,105,-975,83,0:10:03
363,-84,-411,3,7,-7,103,-975,82,0:10:03
361,-115,-423,2,5,-7,101,-975,81,0:10:03
355,-106,-427,3,4,-7,100,-974,81,0:10:03
369,-120,-424,4,2,-7,100,-975,80,0:10:03
369,-120,-424,3,2,-7,99,-976,79,0:10:03
369,-109,-424,2,6,-7,99,-974,84,0:10:03
369,-109,-424,2,4,-7,100,-974,84,0:10:03
384,-117,-429,0,2,-4,102,-977,89,0:10:03
363,-102,-415,-1,0,-4,104,-982,88,0:10:03
369,-118,-403,0,1,-4,104,-981,81,0:10:03
364,-105,-420,0,1,-4,101,-977,77,0:10:03
364,-105,-420,0,3,-4,99,-975,80,0:10:03
367,-108,-387,0,2,-4,101,-975,84,0:10:03
372,-118,-427,0,-2,-4,102,-974,85,0:10:03
375,-103,-436,-2,-4,-5,102,-974,84,0:10:03
355,-114,-421,-4,-7,-5,104,-977,83,0:10:03
370,-120,-406,-2,-1,-7,104,-977,83,0:10:03
354,-97,-405,-2,2,-8,102,-974,85,0:10:03
354,-97,-405,-1,0,-7,100,-975,84,0:10:03
357,-100,-405,0,-8,-6,101,-976,82,0:10:03
357,-100,-405,0,-4,-5,103,-975,81,0:10:03
382,-99,-415,4,-4,-7,100,-976,79,0:10:03
378,-100,-418,5,-3,-5,100,-976,80,0:10:04
384,-96,-406,3,-2,-7,103,-972,84,0:10:04
372,-105,-409,2,-2,-6,104,-971,85,0:10:04
372,-105,-409,0,-2,-7,104,-971,85,0:10:04
361,-99,-429,3,-2,-7,103,-975,82,0:10:04
373,-90,-406,3,1,-7,102,-976,80,0:10:04
363,-97,-426,3,0,-7,103,-978,82,0:10:04
364,-111,-418,2,-2,-7,103,-978,82,0:10:04
394,-109,-430,2,-2,-7,102,-977,82,0:10:04
355,-99,-424,0,-6,-7,103,-976,84,0:10:04
355,-99,-424,1,-7,-7,102,-975,83,0:10:04
364,-105,-405,2,-9,-7,101,-976,82,0:10:04
357,-96,-411,0,-7,-6,100,-975,82,0:10:04
373,-91,-414,0,-4,-7,103,-974,83,0:10:04
382,-99,-417,0,-6,-6,106,-975,84,0:10:04
367,-108,-436,0,-5,-6,106,-974,80,0:10:04
370,-117,-441,0,-4,-6,105,-971,75,0:10:04
370,-117,-441,0,1,-7,103,-972,78,0:10:04
369,-106,-415,3,2,-7,103,-974,83,0:10:04
369,-106,-415,4,-1,-5,105,-974,84,0:10:04
361,-114,-414,3,-3,-6,105,-975,80,0:10:04
360,-121,-414,4,-2,-9,108,-975,81,0:10:04
364,-109,-415,7,0,-9,108,-975,81,0:10:04
369,-103,-417,7,-1,-9,106,-973,85,0:10:04
369,-103,-417,7,0,-9,105,-974,85,0:10:04
367,-78,-415,9,0,-8,108,-975,85,0:10:04
355,-97,-417,9,-2,-7,109,-975,86,0:10:04
349,-103,-435,9,-4,-6,109,-976,85,0:10:04
388,-111,-435,9,-4,-6,107,-977,83,0:10:04
376,-97,-411,9,-4,-5,107,-975,82,0:10:04
378,-88,-418,9,-4,-6,109,-974,81,0:10:04
378,-88,-418,9,2,-7,107,-976,80,0:10:04
348,-100,-403,9,4,-6,105,-977,81,0:10:04
348,-100,-403,7,4,-8,105,-978,82,0:10:04
373,-102,-408,7,4,-9,105,-977,82,0:10:04
370,-108,-424,5,2,-9,107,-975,82,0:10:04
370,-99,-429,3,2,-8,106,-975,81,0:10:04
360,-108,-426,3,4,-8,103,-976,80,0:10:04
360,-108,-426,3,3,-8,104,-979,80,0:10:04
367,-91,-427,4,7,-9,105,-979,83,0:10:04
357,-96,-436,3,2,-7,106,-976,83,0:10:04
354,-106,-421,4,-2,-6,106,-978,80,0:10:04
370,-99,-411,2,-4,-5,104,-979,80,0:10:04
366,-99,-403,2,-4,-6,104,-979,80,0:10:04
363,-88,-427,2,-3,-7,102,-976,80,0:10:04
363,-88,-427,1,-4,-6,104,-975,81,0:10:04
361,-94,-411,2,-5,-5,104,-976,81,0:10:04
361,-94,-411,2,-5,-5,105,-975,75,0:10:04
360,-115,-421,0,-1,-6,107,-974,73,0:10:04
363,-103,-426,0,1,-7,106,-974,77,0:10:04
376,-109,-432,0,4,-8,106,-976,81,0:10:04
361,-99,-415,0,2,-8,105,-977,82,0:10:04
361,-99,-415,-2,2,-9,102,-975,82,0:10:04
363,-90,-424,-1,0,-9,102,-975,82,0:10:04
366,-112,-406,-2,-2,-8,102,-977,83,0:10:04
352,-108,-424,-3,-3,-8,102,-973,79,0:10:04
373,-105,-426,-3,-2,-7,101,-972,77,0:10:04
379,-103,-454,-2,-2,-7,100,-976,79,0:10:04
370,-100,-409,0,0,-8,100,-975,79,0:10:04
370,-100,-409,1,7,-9,98,-975,78,0:10:04
354,-109,-430,1,14,-9,101,-977,80,0:10:04
354,-109,-430,2,11,-9,106,-975,83,0:10:04
370,-96,-417,0,6,-8,106,-973,83,0:10:04
373,-88,-415,-2,4,-7,108,-973,83,0:10:04
366,-91,-430,-1,4,-8,108,-974,80,0:10:04
373,-108,-412,0,5,-8,104,-975,76,0:10:04
373,-108,-412,0,5,-8,102,-975,75,0:10:04
372,-103,-418,0,5,-8,102,-975,79,0:10:04
372,-103,-418,0,3,-8,105,-977,84,0:10:04
363,-97,-423,-4,5,-9,106,-977,84,0:10:04
367,-93,-430,-4,7,-9,100,-974,79,0:10:04
381,-100,-421,-1,9,-9,97,-974,73,0:10:04
369,-99,-432,0,15,-9,97,-976,75,0:10:04
369,-99,-432,1,21,-10,98,-976,81,0:10:04
358,-99,-408,0,2,-7,101,-975,82,0:10:04
358,-91,-411,0,1,-6,100,-974,81,0:10:04
366,-93,-441,0,4,-7,102,-975,78,0:10:04
364,-103,-427,2,6,-7,103,-975,74,0:10:04
369,-106,-438,4,10,-9,100,-975,74,0:10:04
369,-106,-438,4,14,-10,99,-973,78,0:10:04
375,-96,-433,4,17,-12,100,-973,80,0:10:04
364,-99,-409,5,17,-11,100,-973,80,0:10:04
364,-99,-409,4,15,-11,98,-974,81,0:10:04
367,-102,-429,5,13,-10,97,-974,81,0:10:04
375,-96,-423,6,11,-9,99,-975,80,0:10:04
375,-105,-409,6,11,-9,100,-974,82,0:10:04
375,-105,-409,7,10,-7,100,-975,82,0:10:04
363,-102,-427,7,10,-6,100,-977,81,0:10:04
381,-109,-427,5,13,-7,103,-977,82,0:10:04
363,-87,-391,4,14,-7,101,-976,82,0:10:04
378,-94,-414,4,16,-7,99,-977,82,0:10:04
366,-100,-415,4,18,-9,99,-978,81,0:10:04
367,-93,-427,2,19,-9,97,-977,82,0:10:04
367,-93,-427,1,20,-9,99,-975,83,0:10:04
375,-111,-436,1,18,-9,103,-975,83,0:10:04
349,-102,-417,0,14,-7,103,-975,81,0:10:04
349,-102,-417,0,21,-7,100,-975,79,0:10:04
364,-100,-427,3,22,-6,100,-977,80,0:10:04
376,-88,-421,4,22,-4,99,-975,80,0:10:04
381,-103,-448,6,21,-5,98,-976,81,0:10:04
381,-103,-448,7,21,-5,95,-977,80,0:10:04
364,-93,-429,7,21,-4,95,-977,80,0:10:04
379,-126,-414,6,22,-6,95,-978,79,0:10:04
367,-105,-411,6,25,-7,93,-978,80,0:10:04
376,-106,-406,5,25,-8,91,-974,77,0:10:04
369,-103,-418,5,24,-9,91,-974,78,0:10:05
375,-112,-421,5,24,-9,92,-977,81,0:10:05
375,-112,-421,5,23,-9,94,-980,81,0:10:05
370,-108,-420,5,19,-8,94,-978,81,0:10:05
358,-93,-423,4,18,-7,94,-974,79,0:10:05
358,-93,-420,7,14,-5,95,-974,76,0:10:05
375,-120,-415,8,10,-4,92,-977,76,0:10:05
372,-115,-429,9,9,-4,89,-975,76,0:10:05
378,-82,-417,9,11,-5,92,-973,76,0:10:05
378,-82,-417,10,9,-4,92,-975,78,0:10:05
355,-100,-405,9,13,-5,91,-974,79,0:10:05
363,-124,-402,14,20,-9,94,-974,79,0:10:05
363,-124,-402,14,18,-10,95,-974,76,0:10:05
375,-103,-414,14,18,-9,93,-973,80,0:10:05
367,-103,-430,11,17,-9,94,-970,84,0:10:05
370,-109,-424,9,16,-8,94,-970,84,0:10:05
370,-109,-424,9,11,-7,95,-970,81,0:10:05
402,-109,-414,11,11,-6,94,-973,78,0:10:05
351,-124,-408,14,12,-6,93,-974,77,0:10:05
360,-106,-408,13,14,-6,93,-979,81,0:10:05
402,-79,-412,13,14,-6,97,-982,84,0:10:05
366,-118,-418,14,15,-7,102,-981,85,0:10:05
382,-111,-430,13,11,-6,105,-981,85,0:10:05
382,-111,-430,13,11,-7,101,-980,86,0:10:05
358,-94,-429,15,2,-7,97,-981,85,0:10:05
378,-102,-412,16,1,-7,96,-979,77,0:10:05
378,-102,-412,13,4,-7,96,-976,76,0:10:05
363,-109,-420,11,7,-8,96,-972,84,0:10:05
384,-121,-423,9,7,-8,96,-968,85,0:10:05
376,-115,-423,5,13,-8,99,-969,81,0:10:05
376,-115,-423,2,13,-9,102,-972,82,0:10:05
373,-99,-417,2,11,-7,107,-975,84,0:10:05
361,-105,-426,2,14,-5,109,-976,83,0:10:05
381,-114,-418,1,7,-3,104,-975,80,0:10:05
375,-105,-421,1,7,-3,106,-973,76,0:10:05
370,-100,-412,0,9,-2,106,-973,76,0:10:05
376,-96,-435,0,14,-2,107,-972,70,0:10:05
376,-96,-435,-1,20,-4,106,-973,73,0:10:05
369,-93,-433,2,24,-2,109,-978,80,0:10:05
366,-99,-415,9,28,-2,107,-980,82,0:10:05
366,-99,-415,9,28,-2,104,-979,82,0:10:05
369,-91,-417,14,30,-3,103,-976,80,0:10:05
381,-112,-417,16,27,-3,103,-974,78,0:10:05
387,-99,-438,15,23,-5,103,-974,78,0:10:05
387,-99,-438,14,21,-6,104,-975,81,0:10:05
363,-87,-432,9,16,-5,102,-976,85,0:10:05
376,-99,-424,9,16,-6,104,-977,84,0:10:05
349,-109,-414,8,18,-5,104,-978,79,0:10:05
372,-109,-439,9,22,-5,102,-981,75,0:10:05
384,-129,-424,9,23,-4,102,-981,77,0:10:05
375,-106,-423,9,23,-4,103,-979,81,0:10:05
375,-106,-423,9,22,-4,101,-979,85,0:10:05
366,-96,-424,7,17,-3,100,-978,84,0:10:05
370,-94,-432,7,9,-4,102,-979,78,0:10:05
370,-94,-432,5,16,-6,102,-981,76,0:10:05
367,-109,-421,4,23,-6,102,-981,76,0:10:05
393,-84,-423,2,25,-7,103,-978,81,0:10:05
387,-129,-415,2,23,-9,105,-974,85,0:10:05
387,-129,-415,0,21,-9,105,-973,84,0:10:05
372,-100,-412,1,18,-8,103,-974,86,0:10:05
369,-100,-429,1,18,-8,101,-974,83,0:10:05
364,-105,-429,4,15,-9,99,-975,82,0:10:05
384,-96,-411,5,18,-7,97,-977,85,0:10:05
370,-108,-424,8,17,-5,99,-978,88,0:10:05
379,-91,-444,7,14,-6,100,-975,86,0:10:05
379,-91,-444,7,16,-7,98,-973,84,0:10:05
361,-103,-418,4,21,-8,96,-973,89,0:10:05
372,-100,-420,5,25,-9,99,-976,90,0:10:05
378,-103,-423,6,24,-7,102,-974,88,0:10:05
369,-94,-426,7,21,-6,98,-970,89,0:10:05
361,-112,-430,7,16,-6,96,-969,90,0:10:05
385,-112,-426,9,13,-6,98,-971,87,0:10:05
385,-112,-426,9,7,-4,94,-973,84,0:10:05
370,-94,-423,11,11,-5,89,-975,84,0:10:05
370,-105,-402,15,23,-9,89,-975,84,0:10:05
370,-105,-402,16,18,-9,88,-975,88,0:10:05
382,-103,-417,12,15,-10,90,-973,90,0:10:05
379,-94,-409,11,9,-9,91,-972,87,0:10:05
403,-115,-421,12,7,-8,93,-971,84,0:10:05
403,-115,-421,12,7,-8,92,-970,84,0:10:05
364,-99,-415,11,6,-7,92,-973,85,0:10:05
376,-117,-423,13,3,-7,93,-974,83,0:10:05
372,-99,-412,13,1,-6,95,-977,80,0:10:05
366,-108,-418,14,0,-5,96,-978,78,0:10:05
376,-99,-414,15,0,-5,97,-976,78,0:10:05
382,-112,-414,12,0,-6,100,-977,82,0:10:05
382,-112,-414,10,-1,-4,102,-977,78,0:10:05
360,-115,-427,11,0,-4,103,-976,75,0:10:05
375,-87,-408,15,4,-4,103,-976,76,0:10:05
375,-87,-408,14,3,-4,104,-976,75,0:10:05
381,-102,-433,13,1,-4,105,-977,75,0:10:05
382,-111,-417,13,-1,-4,106,-977,75,0:10:05
367,-96,-420,11,-4,-2,105,-978,72,0:10:05
367,-96,-420,13,-4,-1,102,-977,69,0:10:05
379,-115,-430,15,1,-3,101,-974,68,0:10:05
357,-112,-429,16,11,-5,101,-974,68,0:10:05
375,-120,-424,16,16,-6,100,-973,68,0:10:05
369,-100,-409,16,13,-4,101,-972,69,0:10:05
370,-99,-409,14,9,-4,101,-973,72,0:10:05
370,-105,-427,14,9,-4,100,-974,76,0:10:05
370,-105,-427,15,4,-4,95,-975,71,0:10:05
372,-99,-421,14,0,-4,91,-978,66,0:10:05
372,-114,-393,14,0,-4,90,-975,67,0:10:05
372,-114,-393,14,0,-5,90,-975,68,0:10:05
358,-93,-409,14,0,-7,91,-979,68,0:10:05
361,-108,-418,9,2,-9,92,-980,72,0:10:05
379,-112,-426,10,1,-9,89,-983,73,0:10:05
379,-112,-426,9,7,-12,89,-984,73,0:10:06
375,-99,-421,4,14,-14,93,-980,72,0:10:06
393,-108,-426,0,18,-14,98,-981,73,0:10:06
367,-118,-406,-1,11,-11,102,-980,76,0:10:06
373,-112,-399,0,4,-8,103,-980,75,0:10:06
382,-99,-429,1,4,-5,99,-982,72,0:10:06
387,-93,-423,4,5,-4,97,-982,70,0:10:06
387,-93,-423,6,13,-2,95,-980,72,0:10:06
375,-108,-424,9,14,-1,95,-980,72,0:10:06
367,-109,-403,12,5,0,94,-978,75,0:10:06
384,-99,-423,12,-2,1,96,-977,73,0:10:06
379,-103,-424,14,-4,1,96,-975,69,0:10:06
378,-99,-429,14,-4,1,91,-971,66,0:10:06
394,-120,-436,16,-3,0,92,-972,64,0:10:06
394,-120,-436,16,-1,-1,94,-974,64,0:10:06
375,-97,-417,16,-3,-1,91,-973,67,0:10:06
366,-88,-399,16,-3,-2,92,-974,73,0:10:06
366,-88,-399,14,-3,-2,93,-978,75,0:10:06
397,-103,-426,14,-4,0,93,-982,74,0:10:06
375,-109,-417,14,-7,0,97,-983,74,0:10:06
381,-126,-415,15,-10,0,99,-981,72,0:10:06
381,-126,-415,18,-16,3,99,-977,72,0:10:06
370,-84,-435,23,-16,3,101,-973,74,0:10:06
369,-108,-426,23,-7,1,100,-969,75,0:10:06
367,-103,-426,28,-9,2,103,-972,76,0:10:06
372,-114,-412,28,-9,2,108,-975,76,0:10:06
369,-91,-427,28,-8,3,108,-975,76,0:10:06
379,-99,-439,30,-3,3,111,-972,72,0:10:06
379,-99,-439,36,-2,3,110,-969,70,0:10:06
382,-106,-402,36,7,3,107,-967,68,0:10:06
391,-115,-420,39,14,2,104,-968,70,0:10:06
391,-115,-420,35,16,2,103,-969,73,0:10:06
382,-106,-411,35,16,2,103,-969,75,0:10:06
381,-117,-412,31,16,2,101,-974,76,0:10:06
378,-127,-424,31,18,2,100,-977,75,0:10:06
378,-127,-424,33,19,2,96,-976,75,0:10:06
388,-102,-427,34,23,1,96,-974,74,0:10:06
376,-100,-415,32,23,0,100,-972,72,0:10:06
373,-103,-414,32,21,0,100,-972,71,0:10:06
385,-100,-417,33,25,0,99,-973,71,0:10:06
360,-105,-420,34,30,0,101,-973,71,0:10:06
366,-109,-421,32,28,0,102,-971,71,0:10:06
366,-109,-421,36,27,1,99,-971,69,0:10:06
370,-108,-426,38,29,2,93,-969,68,0:10:06
370,-103,-412,40,35,1,93,-970,65,0:10:06
370,-103,-412,41,29,3,95,-971,62,0:10:06
381,-94,-403,41,28,4,90,-971,62,0:10:06
369,-115,-415,39,27,7,90,-971,62,0:10:06
367,-91,-427,39,23,9,88,-970,65,0:10:06
367,-91,-427,40,14,12,87,-969,68,0:10:06
375,-121,-423,42,12,13,83,-974,69,0:10:06
393,-102,-423,46,11,14,86,-980,71,0:10:06
391,-94,-400,46,11,14,88,-982,73,0:10:06
360,-115,-414,45,4,16,86,-980,76,0:10:06
375,-126,-405,46,-1,18,85,-976,75,0:10:06
379,-100,-420,47,-7,18,88,-975,69,0:10:06
379,-100,-420,48,-13,18,91,-974,62,0:10:06
370,-109,-420,47,-10,15,98,-976,59,0:10:06
352,-96,-396,51,-5,15,95,-971,61,0:10:06
378,-109,-390,54,-7,17,87,-967,66,0:10:06
382,-117,-411,58,-21,18,87,-970,68,0:10:06
370,-112,-403,58,-29,18,86,-969,66,0:10:06
382,-109,-424,54,-31,18,83,-965,70,0:10:06
382,-109,-424,49,-37,17,80,-962,73,0:10:06
352,-129,-430,45,-45,17,78,-963,69,0:10:06
342,-100,-405,42,-49,18,75,-967,68,0:10:06
342,-100,-405,39,-57,19,70,-969,75,0:10:06
378,-118,-424,34,-74,24,70,-969,75,0:10:06
385,-112,-414,33,-94,32,68,-971,80,0:10:06
390,-109,-426,38,-118,41,72,-970,81,0:10:06
390,-109,-426,38,-118,41,78,-966,82,0:10:06
358,-96,-406,49,-142,56,74,-951,89,0:10:06
367,-97,-415,51,-175,57,82,-943,76,0:10:06
375,-100,-411,53,-179,56,106,-952,59,0:10:06
376,-102,-435,64,-172,60,121,-958,58,0:10:06
376,-94,-423,79,-170,67,133,-950,53,0:10:06
376,-99,-405,86,-169,64,140,-947,52,0:10:06
376,-99,-405,91,-166,64,143,-950,53,0:10:06
370,-102,-408,89,-172,64,144,-954,53,0:10:06
349,-114,-382,87,-182,63,146,-963,54,0:10:06
349,-114,-382,75,-200,61,147,-966,54,0:10:06
357,-99,-405,48,-221,51,148,-971,55,0:10:06
372,-111,-415,42,-263,51,161,-979,57,0:10:06
364,-108,-408,37,-289,57,171,-987,51,0:10:06
364,-108,-408,30,-288,53,175,-997,31,0:10:06
351,-106,-393,37,-260,55,186,-1010,22,0:10:06
370,-96,-403,42,-223,57,197,-1014,33,0:10:06
355,-108,-384,46,-211,63,197,-1014,33,0:10:06
352,-103,-385,49,-199,65,199,-1005,45,0:10:06
363,-97,-397,46,-174,60,194,-994,45,0:10:06
367,-99,-411,46,-174,60,186,-987,49,0:10:06
367,-99,-411,42,-164,53,185,-965,53,0:10:06
361,-102,-415,45,-156,53,196,-955,56,0:10:06
339,-102,-396,44,-166,54,192,-972,77,0:10:06
339,-102,-396,32,-189,57,192,-979,83,0:10:06
355,-94,-379,25,-218,63,198,-984,79,0:10:06
369,-103,-394,25,-254,68,187,-982,70,0:10:06
352,-117,-387,28,-272,70,184,-974,64,0:10:06
352,-117,-387,37,-271,70,197,-965,49,0:10:06
346,-106,-391,50,-254,68,216,-952,25,0:10:06
364,-115,-381,62,-237,67,235,-944,11,0:10:06
355,-105,-388,75,-212,62,251,-943,-3,0:10:06
360,-103,-391,98,-192,64,271,-934,-17,0:10:06
358,-112,-381,102,-179,56,270,-935,-13,0:10:06
351,-111,-405,105,-151,46,259,-949,-5,0:10:06
351,-111,-405,120,-135,55,284,-935,-13,0:10:06
354,-114,-393,116,-130,49,284,-935,-13,0:10:07
334,-90,-373,107,-115,39,207,-970,32,0:10:07
334,-90,-373,93,-117,37,207,-970,32,0:10:07
343,-94,-396,73,-125,30,189,-974,46,0:10:07
339,-97,-400,50,-131,23,168,-975,61,0:10:07
348,-108,-379,50,-131,23,151,-972,76,0:10:07
333,-82,-378,30,-128,12,151,-966,79,0:10:07
333,-82,-378,20,-130,7,169,-963,80,0:10:07
355,-111,-391,18,-151,4,186,-948,77,0:10:07
343,-103,-372,23,-157,6,205,-944,49,0:10:07
334,-93,-381,39,-153,6,216,-957,36,0:10:07
337,-87,-369,93,-155,9,219,-983,45,0:10:07
333,-111,-384,56,-144,4,233,-968,22,0:10:07
358,-100,-381,72,-129,-10,245,-936,-1,0:10:07
337,-109,-364,189,-110,-10,226,-932,9,0:10:07
337,-109,-364,133,-86,-23,227,-955,31,0:10:07
328,-99,-361,126,-74,-33,223,-932,12,0:10:07
337,-108,-379,144,-70,-35,217,-912,5,0:10:07
337,-94,-378,149,-57,-49,232,-942,32,0:10:07
330,-90,-384,161,-50,-59,247,-949,29,0:10:07
328,-102,-384,184,-49,-66,247,-949,29,0:10:07
310,-118,-390,189,-49,-74,232,-918,16,0:10:07
310,-118,-390,203,-44,-87,218,-918,26,0:10:07
342,-99,-370,308,-42,-111,226,-956,44,0:10:07
325,-106,-357,194,-27,-113,220,-1029,98,0:10:07
324,-97,-367,194,-27,-113,217,-1023,100,0:10:07
348,-115,-360,165,-30,-116,202,-932,47,0:10:07
325,-109,-358,177,-35,-124,206,-928,45,0:10:07
352,-114,-348,189,-22,-147,221,-934,45,0:10:07
352,-114,-348,189,-13,-143,241,-941,50,0:10:07
322,-118,-354,193,-16,-145,262,-950,63,0:10:07
346,-111,-370,191,-25,-151,266,-957,76,0:10:07
331,-114,-369,189,-39,-163,271,-976,77,0:10:07
355,-123,-376,184,-49,-161,260,-982,58,0:10:07
339,-105,-382,186,-51,-160,234,-968,41,0:10:07
363,-129,-382,199,-52,-184,197,-960,60,0:10:07
363,-129,-382,191,-60,-187,170,-950,76,0:10:07
328,-120,-360,184,-72,-192,165,-952,91,0:10:07
339,-117,-366,163,-98,-196,162,-951,113,0:10:07
340,-120,-351,147,-127,-198,173,-939,121,0:10:07
345,-112,-351,141,-147,-201,173,-939,121,0:10:07
358,-136,-361,226,-189,-217,204,-934,122,0:10:07
358,-132,-370,154,-133,-213,233,-925,108,0:10:07
358,-132,-370,145,-105,-215,292,-956,108,0:10:07
349,-112,-355,145,-105,-215,335,-993,119,0:10:07
348,-112,-366,143,-75,-228,329,-993,112,0:10:07
343,-133,-358,109,-44,-231,349,-1029,91,0:10:07
369,-126,-351,128,-79,-218,357,-1071,55,0:10:07
352,-121,-370,18,14,-187,405,-1161,37,0:10:07
351,-126,-358,-63,69,-145,429,-1210,22,0:10:07
351,-126,-358,-77,43,-101,405,-1236,5,0:10:07
345,-121,-354,-166,89,-72,357,-1280,0,0:10:07
363,-105,-387,-226,139,-69,233,-1259,-4,0:10:07
352,-127,-376,-290,198,-83,117,-1241,2,0:10:07
354,-126,-378,-401,287,-99,57,-1246,6,0:10:07
378,-114,-376,-590,408,-100,29,-1263,1,0:10:07
378,-111,-397,-812,471,-79,-14,-1220,7,0:10:07
378,-111,-397,-942,445,-76,-68,-1098,20,0:10:07
364,-121,-381,-976,413,-79,-74,-1046,30,0:10:07
375,-100,-399,-1128,469,-62,-40,-1070,26,0:10:07
361,-115,-414,-1236,512,-31,-40,-1070,26,0:10:07
367,-118,-421,-1297,525,1,-15,-1056,18,0:10:07
379,-103,-414,-1331,445,18,-7,-1055,50,0:10:07
358,-109,-426,-1331,445,18,-20,-1078,120,0:10:07
358,-109,-426,-1412,280,30,-44,-1106,165,0:10:07
358,-105,-429,-1413,105,53,-27,-1102,111,0:10:07
379,-88,-436,-1349,-16,72,-31,-1112,68,0:10:07
387,-84,-445,-1364,-109,63,-50,-1160,40,0:10:07
387,-81,-459,-1333,-179,42,-19,-1147,-48,0:10:07
376,-57,-465,-1297,-86,30,5,-1103,-102,0:10:07
385,-72,-478,-1259,82,-5,-6,-1040,-116,0:10:07
385,-72,-478,-1134,277,-57,58,-994,-89,0:10:07
372,-70,-463,-1067,457,1,140,-980,-11,0:10:07
379,-55,-471,-1052,566,18,158,-979,88,0:10:07
370,-51,-490,-1073,606,24,181,-985,159,0:10:07
373,-45,-477,-1016,645,89,179,-985,175,0:10:07
370,-66,-505,-955,637,121,146,-1001,203,0:10:07
382,-45,-507,-913,660,174,126,-1005,237,0:10:07
382,-45,-507,-878,684,212,87,-992,252,0:10:07
388,-49,-508,-855,653,247,87,-967,252,0:10:07
373,-28,-525,-813,618,275,11,-967,266,0:10:07
403,-42,-522,-721,600,298,-34,-928,261,0:10:07
390,-21,-517,-641,590,310,-84,-892,250,0:10:07
388,-6,-525,-571,595,311,-123,-868,238,0:10:07
408,-15,-522,-571,595,311,-114,-856,197,0:10:07
408,-15,-522,-514,629,310,-88,-843,153,0:10:07
391,-16,-528,-466,690,274,-122,-747,141,0:10:07
412,6,-534,-351,625,228,-98,-763,171,0:10:07
412,0,-532,-333,608,235,-47,-861,236,0:10:07
414,1,-532,-328,564,210,-68,-819,270,0:10:07
429,-10,-528,-311,513,169,-76,-768,282,0:10:07
420,10,-558,-279,453,139,-83,-739,307,0:10:07
420,10,-558,-227,408,104,-78,-740,319,0:10:07
430,9,-541,-151,368,100,-75,-738,320,0:10:07
429,-4,-550,-52,312,86,-76,-712,327,0:10:07
418,7,-540,50,266,91,-64,-701,336,0:10:07
433,19,-541,150,214,93,-22,-694,344,0:10:07
430,-4,-549,240,163,103,15,-698,362,0:10:07
433,-10,-544,306,84,109,39,-724,385,0:10:07
411,6,-553,354,18,134,59,-736,405,0:10:07
418,-9,-544,368,16,147,60,-720,411,0:10:07
427,1,-543,387,28,126,56,-700,400,0:10:07
430,-4,-543,408,23,113,47,-691,401,0:10:07
427,-3,-541,408,23,113,41,-683,410,0:10:07
436,0,-555,442,9,146,58,-693,399,0:10:07
436,0,-555,488,-21,130,60,-703,420,0:10:07
429,3,-537,522,-43,130,36,-718,479,0:10:07
415,-9,-544,548,-49,159,44,-754,507,0:10:08
424,-12,-558,585,-67,177,66,-775,531,0:10:08
421,-21,-538,585,-81,202,91,-811,575,0:10:08
424,-25,-550,557,-91,208,105,-844,602,0:10:08
405,-25,-540,507,-95,209,110,-867,617,0:10:08
405,-25,-540,445,-107,210,111,-899,629,0:10:08
411,-10,-517,380,-105,210,106,-927,634,0:10:08
411,-10,-517,307,-114,201,104,-964,634,0:10:08
436,-21,-529,227,-116,175,100,-1009,598,0:10:08
399,-34,-535,151,-88,140,90,-1055,540,0:10:08
415,-28,-546,90,-37,119,90,-1055,540,0:10:08
424,-40,-528,57,42,123,99,-1112,501,0:10:08
424,-40,-528,75,131,149,121,-1166,500,0:10:08
411,-33,-516,140,210,172,122,-1141,516,0:10:08
411,-33,-516,188,279,165,79,-1014,559,0:10:08
432,-18,-525,179,317,135,47,-848,636,0:10:08
435,-25,-523,179,317,135,27,-666,694,0:10:08
427,-22,-525,173,312,66,1,-512,669,0:10:08
420,-43,-544,187,293,0,-11,-463,540,0:10:08
420,-43,-544,240,240,-45,-52,-546,381,0:10:08
397,-36,-514,300,124,-53,-75,-765,249,0:10:08
412,-37,-540,348,-58,-32,-43,-1097,142,0:10:08
438,-49,-525,354,-233,-36,-43,-1467,110,0:10:08
420,-46,-550,301,-302,-86,-79,-1788,140,0:10:08
442,-31,-534,193,-223,-133,-86,-1961,209,0:10:08
442,-31,-534,37,-5,-175,-2,-1924,355,0:10:08
429,-42,-534,-169,145,-160,92,-1590,483,0:10:08
429,-48,-519,-291,50,-105,33,-1059,429,0:10:08
429,-48,-519,-168,-321,-76,-119,-610,191,0:10:08
420,-46,-526,61,-700,-119,-219,-394,-29,0:10:08
417,-42,-541,160,-769,-207,-219,-394,-29,0:10:08
423,-51,-523,80,-550,-294,-186,-398,-96,0:10:08
423,-51,-523,-23,-289,-307,-54,-520,-48,0:10:08
417,-43,-520,-34,-266,-275,139,-698,34,0:10:08
423,-64,-543,-34,-266,-275,319,-865,54,0:10:08
426,-39,-522,108,-465,-196,428,-961,-33,0:10:08
427,-46,-534,321,-690,-93,464,-1032,-155,0:10:08
403,-25,-519,482,-742,-7,441,-1106,-207,0:10:08
391,-54,-532,521,-592,30,406,-1142,-161,0:10:08
402,-42,-526,452,-363,56,331,-1129,-19,0:10:08
402,-42,-526,354,-221,91,238,-1067,137,0:10:08
399,-64,-501,330,-230,151,182,-974,202,0:10:08
399,-64,-501,347,-347,188,118,-907,236,0:10:08
385,-51,-507,332,-473,193,33,-876,265,0:10:08
400,-58,-514,314,-523,184,-36,-843,237,0:10:08
384,-33,-501,291,-543,150,-52,-844,212,0:10:08
384,-33,-501,252,-582,114,-22,-897,198,0:10:08
402,-54,-502,211,-659,93,28,-946,173,0:10:08
387,-54,-501,198,-741,81,93,-971,124,0:10:08
366,-78,-492,226,-820,83,145,-977,43,0:10:08
372,-73,-513,254,-848,78,145,-977,43,0:10:08
379,-63,-502,280,-826,72,174,-978,0,0:10:08
360,-67,-492,314,-768,66,193,-979,-12,0:10:08
360,-67,-492,340,-676,65,218,-969,-19,0:10:08
376,-55,-504,340,-581,51,228,-941,-3,0:10:08
363,-57,-466,340,-581,51,221,-911,23,0:10:08
363,-57,-466,338,-487,42,225,-890,42,0:10:08
342,-55,-471,345,-441,35,232,-879,52,0:10:08
372,-64,-489,359,-439,35,248,-882,57,0:10:08
357,-81,-486,363,-442,35,262,-887,46,0:10:08
357,-72,-495,361,-415,26,262,-891,22,0:10:08
357,-72,-495,350,-371,0,266,-898,21,0:10:08
346,-88,-468,331,-308,-32,268,-912,45,0:10:08
358,-78,-466,308,-266,-46,267,-926,68,0:10:08
355,-63,-465,293,-219,-60,267,-934,77,0:10:08
360,-73,-468,276,-163,-69,269,-947,78,0:10:08
354,-82,-478,259,-126,-67,262,-953,84,0:10:08
367,-67,-471,240,-106,-65,249,-953,90,0:10:08
367,-67,-471,229,-98,-69,235,-943,88,0:10:08
346,-66,-453,220,-75,-80,213,-922,97,0:10:08
346,-82,-466,215,-63,-88,213,-922,97,0:10:08
357,-73,-465,234,-78,-102,203,-909,110,0:10:08
360,-87,-457,221,-47,-109,208,-912,104,0:10:08
360,-76,-460,221,-12,-121,194,-914,100,0:10:08
360,-76,-460,221,-12,-121,180,-907,103,0:10:08
346,-87,-463,226,-30,-141,194,-922,84,0:10:08
345,-70,-442,236,-47,-137,209,-926,52,0:10:08
345,-70,-442,260,-42,-134,211,-923,35,0:10:08
352,-93,-459,294,-51,-138,205,-926,30,0:10:08
361,-78,-472,316,-63,-148,199,-923,41,0:10:08
363,-94,-465,326,-65,-163,199,-942,64,0:10:08
376,-91,-447,336,-82,-165,193,-955,85,0:10:08
376,-91,-447,336,-114,-172,181,-951,90,0:10:08
357,-99,-459,332,-123,-182,167,-961,84,0:10:08
370,-90,-445,330,-141,-191,162,-974,76,0:10:08
357,-82,-451,332,-161,-205,160,-977,58,0:10:08
381,-90,-447,315,-153,-217,159,-966,46,0:10:08
381,-91,-447,304,-131,-231,166,-953,47,0:10:08
379,-123,-447,283,-128,-235,176,-954,44,0:10:08
379,-123,-447,268,-131,-233,180,-971,39,0:10:08
358,-100,-448,266,-127,-222,180,-971,39,0:10:08
358,-100,-448,268,-121,-204,179,-994,47,0:10:08
367,-105,-447,265,-113,-187,173,-1007,66,0:10:08
373,-88,-442,258,-88,-173,164,-1006,89,0:10:08
387,-97,-427,258,-88,-173,167,-994,103,0:10:08
387,-97,-427,245,-60,-162,183,-982,113,0:10:08
375,-111,-445,231,-48,-155,202,-965,113,0:10:08
387,-112,-448,217,-45,-141,227,-954,105,0:10:08
384,-106,-453,207,-37,-130,258,-965,105,0:10:08
390,-108,-429,200,-17,-122,285,-980,118,0:10:08
382,-112,-442,173,-2,-121,321,-997,114,0:10:08
381,-109,-469,121,4,-116,372,-1042,73,0:10:08
381,-109,-469,69,33,-93,416,-1113,29,0:10:08
394,-127,-462,25,90,-63,439,-1176,8,0:10:08
385,-120,-441,-27,157,-41,467,-1228,8,0:10:08
385,-120,-441,-95,233,-7,479,-1265,-6,0:10:08
394,-132,-457,-157,324,31,414,-1288,-26,0:10:09
394,-124,-448,-227,420,46,287,-1289,0,0:10:09
399,-102,-447,-345,490,16,171,-1270,47,0:10:09
403,-102,-474,-490,560,-28,171,-1270,47,0:10:09
403,-102,-474,-623,645,-53,125,-1240,46,0:10:09
402,-112,-457,-728,765,-60,111,-1180,-1,0:10:09
415,-109,-445,-774,868,-23,140,-1108,-86,0:10:09
423,-97,-465,-906,896,-86,87,-1012,-43,0:10:09
436,-102,-478,-906,896,-86,-50,-901,52,0:10:09
433,-99,-457,-1018,1014,-137,-54,-871,25,0:10:09
433,-99,-457,-1083,1122,-121,-24,-828,0,0:10:09
421,-82,-487,-1155,1148,-137,-15,-827,44,0:10:09
444,-79,-477,-1260,1104,-157,20,-943,117,0:10:09
453,-84,-501,-1367,1015,-168,48,-1033,135,0:10:09
477,-90,-498,-1376,867,-179,68,-1096,127,0:10:09
463,-84,-501,-1402,739,-106,88,-1133,96,0:10:09
475,-64,-522,-1376,620,-40,77,-1140,92,0:10:09
475,-64,-522,-1369,478,-5,47,-1140,142,0:10:09
459,-70,-513,-1312,350,9,51,-1124,123,0:10:09
468,-66,-510,-1220,329,38,114,-1113,-30,0:10:09
468,-66,-510,-1124,469,57,148,-1112,-78,0:10:09
474,-54,-517,-1062,639,57,182,-1060,-2,0:10:09
456,-51,-520,-983,735,72,182,-1060,-2,0:10:09
472,-25,-535,-865,751,128,287,-1017,47,0:10:09
472,-25,-535,-778,762,149,316,-1006,111,0:10:09
489,-30,-519,-727,812,175,276,-1005,151,0:10:09
466,-33,-526,-735,932,184,224,-1019,206,0:10:09
480,-27,-534,-732,1017,203,153,-1030,270,0:10:09
484,-16,-543,-732,1017,203,73,-1018,303,0:10:09
495,-22,-550,-699,1082,234,21,-965,304,0:10:09
508,-34,-565,-653,1095,270,-16,-935,317,0:10:09
508,-34,-565,-613,1042,326,-16,-949,306,0:10:09
498,-22,-556,-559,948,380,-2,-944,261,0:10:09
511,-10,-559,-480,875,438,-44,-905,236,0:10:09
511,-10,-559,-386,824,475,-70,-865,210,0:10:09
495,-9,-550,-296,820,501,-57,-856,187,0:10:09
499,-7,-556,-214,847,522,-42,-864,190,0:10:09
510,-1,-574,-153,868,536,-38,-858,222,0:10:09
510,-1,-574,-112,838,539,-20,-848,259,0:10:09
511,-12,-561,-90,776,522,-14,-834,285,0:10:09
505,-13,-579,-81,707,499,-16,-819,310,0:10:09
492,12,-576,-72,627,472,-5,-817,330,0:10:09
525,-4,-568,-60,576,472,-11,-800,332,0:10:09
505,3,-567,-23,555,471,-11,-800,332,0:10:09
523,1,-547,86,545,471,-29,-769,320,0:10:09
523,1,-547,173,566,472,-23,-760,329,0:10:09
525,-22,-577,256,589,457,20,-791,351,0:10:09
507,-7,-555,256,589,457,60,-806,350,0:10:09
507,-7,-555,312,601,461,95,-791,341,0:10:09
517,9,-567,366,634,451,135,-779,347,0:10:09
535,-24,-555,420,658,456,153,-759,371,0:10:09
517,-12,-570,487,670,473,171,-752,407,0:10:09
531,-21,-577,578,697,492,184,-742,443,0:10:09
531,-21,-577,688,687,524,211,-725,470,0:10:09
534,-15,-567,782,653,555,244,-741,506,0:10:09
534,-28,-565,816,614,567,258,-782,538,0:10:09
552,-49,-543,793,601,563,274,-822,518,0:10:09
555,-33,-565,737,659,552,285,-866,468,0:10:09
543,-39,-559,676,766,557,290,-897,429,0:10:09
538,-48,-559,632,863,548,284,-906,390,0:10:09
538,-48,-559,636,919,502,216,-897,351,0:10:09
541,-49,-537,641,925,429,135,-897,318,0:10:09
558,-64,-546,592,942,352,102,-941,280,0:10:09
568,-70,-543,485,967,294,102,-941,280,0:10:09
561,-63,-541,359,1017,238,88,-1024,253,0:10:09
559,-70,-544,268,1047,189,48,-1081,210,0:10:09
559,-70,-544,268,1047,189,-33,-1077,176,0:10:09
571,-70,-531,128,1134,63,-122,-1046,203,0:10:09
567,-66,-537,128,1134,63,-206,-978,245,0:10:09
567,-66,-537,77,1159,-11,-263,-826,254,0:10:09
588,-72,-532,147,991,-75,-275,-678,204,0:10:09
604,-81,-541,317,732,-137,-271,-606,11,0:10:09
576,-73,-538,543,553,-207,-266,-613,-204,0:10:09
576,-73,-538,725,546,-259,-174,-773,-215,0:10:09
597,-84,-546,764,697,-233,106,-1095,1,0:10:09
603,-78,-511,627,890,-111,448,-1483,381,0:10:09
597,-112,-520,420,931,30,636,-1704,643,0:10:09
618,-93,-532,255,889,130,654,-1622,616,0:10:09
609,-75,-507,162,799,203,567,-1357,434,0:10:09
618,-102,-516,135,737,245,433,-1056,190,0:10:09
618,-102,-516,236,732,249,278,-798,-67,0:10:09
625,-91,-510,431,821,208,139,-667,-218,0:10:09
615,-94,-517,583,1077,128,75,-680,-188,0:10:09
615,-94,-517,623,1430,31,75,-680,-188,0:10:09
613,-100,-526,541,1698,-39,78,-755,-24,0:10:09
654,-111,-498,426,1773,-53,134,-837,173,0:10:09
640,-106,-498,426,1773,-53,208,-894,266,0:10:09
640,-106,-498,368,1708,-12,259,-918,227,0:10:09
667,-112,-493,387,1613,59,275,-936,134,0:10:09
660,-127,-478,437,1560,133,268,-959,64,0:10:09
673,-112,-475,486,1532,183,256,-978,56,0:10:09
682,-127,-478,515,1495,213,248,-989,72,0:10:09
679,-132,-448,520,1442,226,239,-1001,94,0:10:09
675,-132,-465,501,1395,228,206,-1001,109,0:10:09
675,-132,-465,471,1384,240,205,-998,83,0:10:09
679,-121,-450,426,1391,207,215,-1006,45,0:10:09
684,-153,-442,383,1448,219,225,-997,42,0:10:09
684,-153,-442,365,1494,174,219,-990,51,0:10:09
700,-133,-432,362,1558,231,198,-986,35,0:10:09
720,-135,-432,394,1564,267,207,-960,10,0:10:09
721,-130,-426,418,1582,256,173,-951,-4,0:10:09
721,-130,-426,438,1590,255,194,-953,-4,0:10:09
714,-150,-403,467,1582,298,194,-941,-16,0:10:09
702,-168,-405,488,1568,319,214,-925,-16,0:10:09
711,-159,-385,485,1551,322,172,-935,-25,0:10:09
732,-163,-402,478,1523,312,176,-935,-13,0:10:09
729,-150,-402,464,1504,301,164,-949,-42,0:10:09
724,-159,-369,464,1504,301,181,-964,-67,0:10:10
724,-159,-369,457,1436,309,201,-975,-61,0:10:10
741,-177,-369,449,1398,305,177,-1006,-56,0:10:10
712,-178,-328,439,1380,299,146,-1020,-60,0:10:10
712,-178,-328,443,1376,270,98,-997,-54,0:10:10
744,-172,-337,452,1369,269,104,-1004,-26,0:10:10
721,-172,-319,438,1363,252,111,-1028,-11,0:10:10
709,-165,-321,423,1369,233,97,-1020,-7,0:10:10
709,-165,-321,401,1384,203,94,-1004,-13,0:10:10
735,-187,-313,368,1404,175,104,-997,-4,0:10:10
736,-175,-315,336,1366,151,115,-1006,14,0:10:10
724,-186,-294,317,1309,147,119,-1010,12,0:10:10
733,-178,-285,315,1286,140,104,-1014,7,0:10:10
724,-192,-307,287,1264,118,85,-1012,8,0:10:10
741,-168,-303,268,1195,97,97,-1002,-13,0:10:10
741,-168,-303,266,1148,93,97,-1002,-13,0:10:10
726,-183,-279,272,1180,84,101,-1010,-78,0:10:10
727,-177,-247,292,1204,76,78,-1004,-102,0:10:10
738,-198,-261,287,1219,60,72,-992,-54,0:10:10
732,-177,-271,270,1190,53,115,-983,-4,0:10:10
715,-195,-262,270,1190,53,162,-969,26,0:10:10
721,-186,-243,241,1136,32,199,-966,40,0:10:10
721,-186,-243,203,1079,11,233,-984,40,0:10:10
730,-184,-247,174,1008,4,257,-1006,16,0:10:10
736,-183,-211,165,989,7,251,-1009,-38,0:10:10
736,-183,-211,182,1011,11,182,-1007,-67,0:10:10
733,-177,-226,203,1039,-7,75,-998,-4,0:10:10
735,-190,-237,191,1013,-45,-4,-1002,100,0:10:10
733,-184,-211,131,931,-98,-37,-1024,176,0:10:10
733,-184,-211,61,807,-143,-33,-1040,176,0:10:10
732,-184,-207,6,707,-173,-2,-1039,114,0:10:10
742,-198,-208,-33,661,-203,45,-1029,60,0:10:10
714,-186,-202,-63,630,-218,100,-1020,42,0:10:10
735,-184,-202,-86,606,-232,140,-1020,41,0:10:10
750,-199,-207,-101,598,-242,140,-1020,41,0:10:10
739,-178,-201,-105,585,-244,167,-1023,36,0:10:10
739,-178,-201,-91,589,-245,177,-1014,16,0:10:10
748,-189,-207,-77,607,-252,174,-1011,-11,0:10:10
720,-190,-166,-77,607,-252,171,-1022,-11,0:10:10
720,-190,-166,-92,629,-289,182,-1039,13,0:10:10
745,-192,-202,-92,629,-289,209,-1059,49,0:10:10
750,-184,-184,-132,625,-307,237,-1068,78,0:10:10
748,-162,-193,-161,602,-304,269,-1056,83,0:10:10
748,-162,-193,-168,586,-281,292,-1035,74,0:10:10
747,-190,-183,-162,594,-249,284,-1015,69,0:10:10
738,-180,-163,-159,622,-219,259,-980,63,0:10:10
745,-181,-172,-169,676,-205,228,-939,43,0:10:10
748,-165,-193,-190,747,-207,201,-904,21,0:10:10
741,-186,-175,-208,831,-212,186,-881,7,0:10:10
745,-165,-180,-203,905,-210,194,-874,7,0:10:10
745,-165,-180,-191,956,-198,210,-876,29,0:10:10
754,-184,-175,-204,1005,-191,208,-892,54,0:10:10
727,-180,-160,-233,1066,-178,213,-903,58,0:10:10
727,-180,-160,-265,1113,-159,224,-908,57,0:10:10
748,-148,-162,-306,1138,-133,214,-914,50,0:10:10
738,-187,-154,-360,1166,-104,214,-914,50,0:10:10
736,-169,-154,-385,1157,-52,194,-926,42,0:10:10
736,-169,-154,-445,1166,-17,175,-915,23,0:10:10
736,-172,-175,-445,1166,-17,151,-929,23,0:10:10
724,-174,-160,-495,1147,29,116,-952,46,0:10:10
712,-187,-153,-520,1080,88,92,-960,62,0:10:10
718,-195,-162,-522,991,156,67,-966,81,0:10:10
726,-190,-150,-369,1059,179,-5,-993,95,0:10:10
718,-175,-156,-450,1038,232,-7,-1008,266,0:10:10
718,-175,-156,-550,716,270,69,-999,257,0:10:10
720,-181,-172,-500,700,309,85,-1021,50,0:10:10
702,-172,-147,-443,763,331,74,-1013,25,0:10:10
709,-204,-156,-413,833,336,101,-1009,43,0:10:10
711,-190,-175,-360,860,376,147,-1007,54,0:10:10
672,-189,-157,-356,872,403,148,-1015,78,0:10:10
694,-181,-168,-346,850,424,144,-1074,116,0:10:10
694,-181,-168,-373,847,457,158,-1132,161,0:10:10
681,-186,-160,-373,786,495,157,-1153,178,0:10:10
660,-205,-156,-330,699,576,199,-1150,164,0:10:10
660,-205,-156,-317,590,671,199,-1108,162,0:10:10
670,-198,-145,-253,466,765,207,-1108,162,0:10:10
667,-202,-171,-172,379,848,180,-1064,133,0:10:10
660,-202,-144,-53,348,929,192,-1037,86,0:10:10
660,-202,-144,-53,348,929,191,-987,7,0:10:10
663,-207,-147,105,422,1027,209,-970,-17,0:10:10
643,-201,-136,259,640,1097,253,-992,-41,0:10:10
624,-214,-144,266,886,1102,222,-1020,-18,0:10:10
625,-201,-168,198,1131,1015,137,-1034,121,0:10:10
610,-205,-150,121,1308,933,88,-1038,207,0:10:10
607,-211,-148,-2,1415,840,64,-1035,229,0:10:10
607,-211,-148,-126,1501,757,56,-1018,219,0:10:10
622,-216,-130,-238,1526,683,51,-1018,215,0:10:10
565,-208,-141,-298,1540,616,49,-1017,213,0:10:10
565,-208,-141,-315,1509,558,53,-1014,223,0:10:10
589,-222,-136,-318,1450,509,56,-1017,221,0:10:10
562,-225,-127,-312,1372,467,50,-1013,211,0:10:10
561,-219,-127,-307,1299,432,47,-1013,222,0:10:10
561,-219,-127,-310,1239,397,45,-1015,259,0:10:10
567,-226,-144,-323,1194,358,45,-1017,292,0:10:10
559,-214,-145,-330,1174,315,66,-1020,292,0:10:10
531,-225,-156,-325,1164,290,66,-1020,292,0:10:10
552,-229,-132,-307,1145,273,77,-1002,294,0:10:10
558,-217,-142,-290,1102,240,69,-958,289,0:10:10
532,-205,-172,-290,1102,240,39,-918,294,0:10:10
532,-205,-172,-280,1053,200,15,-893,295,0:10:10
538,-220,-154,-263,1003,154,18,-875,290,0:10:10
517,-217,-141,-240,989,133,-9,-828,314,0:10:10
517,-217,-141,-200,934,66,-11,-816,334,0:10:10
532,-217,-139,-182,876,31,20,-810,331,0:10:10
522,-217,-175,-179,816,-14,47,-802,310,0:10:10
528,-214,-172,-164,777,-46,43,-800,308,0:10:10
528,-214,-172,-123,727,-99,13,-764,313,0:10:10
534,-205,-174,-74,656,-115,0,-739,329,0:10:11
522,-205,-154,-18,577,-88,-21,-706,338,0:10:11
522,-205,-154,31,483,-127,1,-711,363,0:10:11
519,-226,-172,80,420,-135,48,-734,396,0:10:11
535,-210,-174,118,362,-98,36,-700,395,0:10:11
538,-213,-172,158,307,-82,32,-670,408,0:10:11
538,-213,-172,207,257,-98,87,-722,434,0:10:11
535,-228,-175,259,212,-75,87,-722,434,0:10:11
519,-210,-138,303,152,-61,114,-734,444,0:10:11
514,-220,-145,335,89,-49,106,-698,450,0:10:11
552,-213,-163,359,56,-44,105,-697,455,0:10:11
531,-220,-145,379,39,-34,103,-708,472,0:10:11
543,-214,-168,379,39,-34,105,-716,494,0:10:11
543,-214,-168,404,41,-16,105,-719,499,0:10:11
523,-222,-166,438,50,7,103,-736,514,0:10:11
520,-207,-138,459,71,32,105,-761,543,0:10:11
520,-207,-138,462,98,58,111,-799,594,0:10:11
522,-219,-150,449,116,85,122,-823,622,0:10:11
547,-198,-138,452,125,102,141,-843,633,0:10:11
522,-213,-144,452,94,112,177,-892,642,0:10:11
522,-213,-144,422,16,126,224,-965,630,0:10:11
523,-213,-117,363,-93,149,249,-1051,592,0:10:11
553,-201,-133,328,-168,163,224,-1125,549,0:10:11
526,-195,-139,291,-196,188,127,-1125,602,0:10:11
523,-199,-132,249,-75,184,19,-1030,683,0:10:11
537,-208,-117,173,112,158,-56,-935,733,0:10:11
535,-205,-135,124,294,86,-56,-935,733,0:10:11
535,-205,-135,103,411,2,-109,-859,680,0:10:11
547,-216,-138,51,340,-56,-115,-889,541,0:10:11
522,-226,-121,25,49,-85,-81,-1065,449,0:10:11
522,-226,-121,103,-367,-70,-25,-1253,352,0:10:11
531,-207,-111,103,-367,-70,21,-1394,211,0:10:11
544,-193,-115,256,-705,-34,79,-1490,80,0:10:11
543,-219,-118,279,-772,-2,182,-1549,63,0:10:11
543,-219,-118,122,-546,27,246,-1462,196,0:10:11
549,-205,-118,-142,-259,77,222,-1186,409,0:10:11
540,-213,-115,-334,-227,158,156,-828,442,0:10:11
540,-201,-124,-260,-527,212,50,-485,244,0:10:11
553,-208,-132,-14,-994,182,-59,-267,11,0:10:11
544,-205,-138,161,-1219,79,-61,-308,-151,0:10:11
543,-196,-121,161,-1054,-32,88,-581,-165,0:10:11
543,-196,-121,40,-717,-92,316,-893,-76,0:10:11
570,-195,-129,-9,-528,-102,484,-1106,4,0:10:11
535,-196,-133,74,-556,-70,547,-1199,-10,0:10:11
535,-196,-133,205,-630,13,542,-1208,-94,0:10:11
561,-195,-127,282,-609,99,428,-1141,-129,0:10:11
562,-199,-121,263,-496,101,428,-1141,-129,0:10:11
562,-199,-118,214,-431,99,236,-994,-45,0:10:11
562,-199,-118,182,-469,79,62,-850,120,0:10:11
565,-198,-124,182,-616,44,-65,-766,259,0:10:11
576,-198,-126,182,-616,44,-124,-749,331,0:10:11
576,-198,-126,217,-840,33,-103,-814,351,0:10:11
565,-217,-121,242,-1102,58,-29,-894,298,0:10:11
571,-193,-126,319,-1259,50,72,-955,145,0:10:11
574,-195,-105,312,-1246,30,180,-1014,0,0:10:11
582,-201,-138,255,-1178,28,278,-1049,-45,0:10:11
582,-201,-138,206,-1115,32,356,-1049,-66,0:10:11
571,-204,-97,213,-1039,37,394,-1011,-101,0:10:11
571,-204,-97,292,-891,37,394,-954,-154,0:10:11
574,-201,-127,308,-666,12,364,-913,-125,0:10:11
592,-199,-127,319,-529,4,328,-864,-34,0:10:11
588,-190,-120,319,-457,-9,303,-805,-6,0:10:11
588,-190,-120,324,-409,-35,308,-806,-18,0:10:11
591,-193,-127,286,-354,-83,326,-842,-23,0:10:11
591,-186,-121,303,-331,-87,337,-870,-26,0:10:11
597,-202,-108,286,-275,-110,345,-922,-14,0:10:11
600,-181,-103,299,-254,-92,345,-922,-14,0:10:11
594,-199,-117,284,-221,-81,307,-934,12,0:10:11
604,-192,-118,258,-175,-77,268,-944,42,0:10:11
604,-192,-118,258,-144,-67,257,-977,57,0:10:11
604,-184,-108,261,-124,-59,246,-974,51,0:10:11
598,-213,-90,261,-124,-59,234,-977,52,0:10:11
603,-193,-108,249,-124,-60,209,-980,75,0:10:11
615,-175,-106,229,-153,-71,192,-967,105,0:10:11
603,-187,-103,207,-207,-81,191,-954,114,0:10:11
616,-202,-78,196,-266,-86,198,-928,94,0:10:11
616,-202,-78,170,-291,-97,196,-873,56,0:10:11
616,-184,-94,193,-288,-116,194,-847,17,0:10:11
606,-159,-87,244,-268,-140,197,-842,-6,0:10:11
606,-159,-87,289,-239,-164,202,-842,-16,0:10:11
600,-171,-94,323,-219,-189,209,-864,8,0:10:11
625,-180,-84,364,-236,-209,212,-892,60,0:10:11
612,-174,-75,389,-250,-226,222,-920,74,0:10:11
612,-174,-75,415,-266,-239,233,-936,69,0:10:11
624,-175,-85,429,-287,-249,236,-934,79,0:10:11
616,-183,-82,422,-316,-256,236,-934,79,0:10:11
619,-174,-79,401,-333,-266,242,-932,81,0:10:11
636,-178,-72,378,-333,-277,244,-932,67,0:10:11
631,-181,-69,333,-296,-298,244,-943,41,0:10:11
640,-175,-79,327,-276,-300,213,-956,52,0:10:11
640,-175,-79,327,-276,-300,204,-957,63,0:10:11
655,-154,-55,315,-261,-299,236,-970,61,0:10:11
633,-163,-66,288,-256,-294,254,-989,67,0:10:11
633,-163,-66,260,-263,-277,275,-1007,53,0:10:11
643,-156,-84,233,-274,-250,296,-1028,46,0:10:11
648,-159,-78,201,-265,-221,304,-1030,50,0:10:11
637,-157,-67,170,-235,-196,322,-1012,37,0:10:11
637,-157,-67,149,-172,-176,346,-992,25,0:10:11
642,-157,-79,144,-97,-154,350,-958,37,0:10:11
646,-154,-76,148,-45,-134,333,-938,75,0:10:11
649,-157,-66,147,-28,-116,309,-945,127,0:10:11
631,-166,-79,142,-43,-114,296,-960,184,0:10:11
645,-150,-63,113,-74,-120,289,-987,225,0:10:11
651,-165,-58,70,-112,-133,294,-998,216,0:10:11
651,-165,-58,30,-125,-156,321,-973,168,0:10:11
645,-159,-84,-4,-127,-171,378,-971,95,0:10:11
640,-147,-49,-44,-109,-156,426,-1023,60,0:10:11
640,-147,-49,-112,-70,-122,426,-1023,60,0:10:12
657,-154,-66,-190,21,-81,467,-1101,75,0:10:12
669,-178,-70,-276,170,-46,517,-1184,53,0:10:12
648,-162,-79,-276,170,-46,538,-1234,-34,0:10:12
648,-162,-79,-359,371,-14,490,-1248,-122,0:10:12
649,-153,-79,-464,573,0,364,-1241,-137,0:10:12
658,-159,-84,-582,724,4,204,-1224,-70,0:10:12
640,-165,-66,-842,779,-45,61,-1265,3,0:10:12
648,-157,-87,-1054,836,-44,5,-1261,-35,0:10:12
649,-186,-102,-1177,901,-17,-11,-1193,-61,0:10:12
628,-160,-91,-1292,891,5,-34,-1170,8,0:10:12
628,-160,-91,-1391,826,14,-54,-1151,68,0:10:12
643,-174,-100,-1455,686,27,-60,-1159,131,0:10:12
610,-190,-99,-1491,519,30,-62,-1177,177,0:10:12
634,-171,-117,-1509,342,10,-69,-1192,200,0:10:12
639,-190,-144,-1498,141,2,-49,-1207,204,0:10:12
652,-186,-141,-1459,-26,3,-32,-1179,173,0:10:12
642,-181,-162,-1383,-136,26,-17,-1141,130,0:10:12
642,-181,-162,-1334,-161,28,-10,-1107,84,0:10:12
634,-198,-168,-1296,-88,17,-10,-1107,84,0:10:12
634,-186,-160,-1196,-15,15,20,-1035,38,0:10:12
634,-186,-160,-1020,97,34,73,-950,-12,0:10:12
639,-208,-202,-975,287,13,142,-896,-56,0:10:12
637,-193,-202,-975,287,13,156,-882,5,0:10:12
633,-196,-193,-961,452,-20,143,-891,48,0:10:12
633,-196,-193,-924,653,0,207,-938,37,0:10:12
624,-180,-210,-928,814,43,238,-1003,123,0:10:12
649,-199,-208,-898,852,81,218,-1006,223,0:10:12
637,-204,-223,-847,896,123,187,-985,271,0:10:12
631,-190,-211,-793,976,192,117,-956,307,0:10:12
651,-207,-219,-709,968,221,33,-884,319,0:10:12
628,-202,-234,-593,864,242,3,-868,324,0:10:12
628,-202,-234,-541,730,296,-9,-914,339,0:10:12
631,-211,-237,-508,656,335,-42,-901,291,0:10:12
612,-205,-228,-473,670,355,-91,-847,233,0:10:12
612,-205,-228,-417,718,359,-108,-810,208,0:10:12
621,-186,-232,-362,756,347,-119,-782,225,0:10:12
621,-195,-241,-295,739,335,-119,-782,225,0:10:12
625,-199,-228,-231,656,274,-108,-746,252,0:10:12
625,-199,-228,-177,545,206,-105,-697,276,0:10:12
609,-214,-231,-138,443,170,-78,-707,310,0:10:12
619,-207,-246,-93,343,165,-44,-724,336,0:10:12
618,-207,-232,-28,283,163,-29,-727,345,0:10:12
630,-202,-232,-28,283,163,9,-754,339,0:10:12
619,-207,-247,33,238,173,14,-750,336,0:10:12
627,-198,-249,90,200,193,26,-740,339,0:10:12
627,-198,-249,172,140,191,38,-716,338,0:10:12
609,-205,-243,252,79,163,66,-721,364,0:10:12
612,-196,-217,290,49,172,96,-738,396,0:10:12
612,-196,-217,321,39,176,94,-708,413,0:10:12
612,-205,-231,367,26,159,90,-685,437,0:10:12
610,-213,-216,425,25,152,88,-680,444,0:10:12
619,-204,-235,489,26,144,80,-675,442,0:10:12
607,-219,-220,541,25,138,79,-687,442,0:10:12
607,-219,-220,583,25,143,75,-706,439,0:10:12
616,-208,-226,618,11,157,61,-737,439,0:10:12
606,-198,-219,637,3,165,57,-776,438,0:10:12
603,-208,-208,635,2,175,64,-814,441,0:10:12
594,-195,-199,620,-11,184,64,-814,441,0:10:12
597,-199,-208,596,-43,206,66,-847,455,0:10:12
597,-199,-208,587,-72,218,62,-854,466,0:10:12
601,-213,-186,569,-100,231,73,-874,474,0:10:12
601,-213,-186,569,-100,231,97,-908,475,0:10:12
582,-198,-189,546,-128,240,137,-931,470,0:10:12
589,-204,-187,519,-151,248,167,-948,489,0:10:12
607,-204,-196,476,-132,238,189,-965,508,0:10:12
586,-202,-189,388,-82,217,218,-986,511,0:10:12
586,-202,-189,288,-42,192,224,-1010,520,0:10:12
592,-199,-190,182,-15,170,210,-1036,522,0:10:12
579,-216,-180,105,30,169,206,-1073,522,0:10:12
579,-216,-180,68,104,168,207,-1085,534,0:10:12
577,-216,-175,61,233,172,171,-1044,575,0:10:12
586,-222,-172,34,410,152,118,-944,613,0:10:12
592,-210,-190,4,541,114,84,-784,590,0:10:12
592,-210,-190,50,571,72,46,-646,488,0:10:12
577,-226,-172,133,499,47,13,-623,376,0:10:12
583,-210,-186,201,333,49,13,-716,286,0:10:12
576,-208,-180,226,128,50,22,-883,210,0:10:12
595,-202,-184,228,0,19,22,-883,210,0:10:12
577,-199,-172,206,-44,-47,2,-1068,190,0:10:12
583,-198,-172,137,28,-128,-34,-1247,219,0:10:12
583,-198,-172,137,28,-128,-24,-1417,288,0:10:12
594,-213,-163,59,165,-191,15,-1521,374,0:10:12
574,-222,-174,1,246,-207,71,-1498,422,0:10:12
574,-222,-174,-46,206,-168,126,-1345,399,0:10:12
591,-210,-166,-35,55,-110,116,-1107,306,0:10:12
592,-213,-166,50,-131,-66,47,-874,211,0:10:12
588,-198,-163,119,-234,-53,1,-742,160,0:10:12
588,-198,-163,130,-245,-70,19,-707,129,0:10:12
589,-213,-171,105,-219,-92,81,-729,94,0:10:12
573,-205,-178,86,-196,-98,150,-777,70,0:10:12
579,-201,-159,77,-203,-91,209,-818,54,0:10:12
600,-196,-171,119,-205,-70,254,-846,24,0:10:12
591,-217,-151,197,-206,-47,277,-887,9,0:10:12
594,-195,-174,257,-213,-33,283,-956,24,0:10:12
594,-195,-174,277,-217,-19,280,-1031,46,0:10:12
579,-199,-153,268,-203,0,260,-1078,56,0:10:12
589,-208,-156,252,-175,14,220,-1093,80,0:10:12
589,-208,-156,234,-168,32,220,-1093,80,0:10:12
597,-187,-169,204,-197,32,161,-1076,128,0:10:12
583,-201,-163,204,-238,45,100,-1032,168,0:10:12
600,-210,-163,219,-280,56,62,-980,170,0:10:12
600,-210,-163,219,-280,56,50,-938,158,0:10:12
580,-180,-166,231,-325,61,57,-919,155,0:10:12
592,-214,-157,238,-368,62,86,-918,129,0:10:12
577,-196,-148,234,-404,60,126,-936,95,0:10:12
588,-217,-156,223,-427,66,158,-955,63,0:10:13
597,-208,-159,206,-415,58,190,-971,44,0:10:13
603,-213,-154,203,-380,60,229,-979,46,0:10:13
603,-213,-154,218,-343,82,251,-975,59,0:10:13
597,-189,-174,228,-325,95,252,-958,97,0:10:13
586,-186,-160,228,-338,97,247,-932,134,0:10:13
586,-186,-160,261,-378,105,244,-905,122,0:10:13
580,-208,-154,281,-382,93,237,-895,99,0:10:13
594,-198,-157,271,-345,69,219,-900,98,0:10:13
592,-193,-168,232,-296,43,208,-900,107,0:10:13
592,-193,-168,210,-259,34,225,-908,115,0:10:13
597,-190,-142,217,-267,35,225,-908,115,0:10:13
561,-192,-123,229,-300,46,250,-923,114,0:10:13
561,-192,-123,243,-308,60,258,-930,87,0:10:13
589,-189,-145,255,-268,69,248,-932,43,0:10:13
582,-198,-135,258,-217,67,227,-943,24,0:10:13
594,-202,-148,258,-217,67,216,-953,51,0:10:13
594,-202,-148,247,-196,59,208,-967,93,0:10:13
591,-198,-145,234,-201,52,198,-970,108,0:10:13
558,-177,-145,224,-202,42,193,-963,106,0:10:13
579,-199,-148,214,-195,28,188,-952,99,0:10:13
580,-192,-126,196,-185,16,195,-949,98,0:10:13
588,-202,-145,176,-180,3,201,-955,89,0:10:13
610,-210,-144,159,-163,-4,205,-958,66,0:10:13
610,-210,-144,154,-139,-10,218,-963,59,0:10:13
580,-183,-157,156,-132,-14,227,-965,75,0:10:13
589,-189,-126,155,-146,-10,232,-962,101,0:10:13
589,-189,-126,147,-176,-1,231,-952,113,0:10:13
588,-171,-139,143,-221,1,233,-950,109,0:10:13
591,-195,-136,146,-251,2,235,-957,103,0:10:13
610,-160,-132,154,-257,3,233,-960,105,0:10:13
610,-160,-132,157,-268,2,233,-960,105,0:10:13
583,-190,-114,154,-293,2,231,-955,114,0:10:13
586,-202,-132,141,-306,0,223,-956,119,0:10:13
585,-205,-138,126,-322,-7,215,-963,117,0:10:13
586,-210,-129,111,-326,-16,216,-967,105,0:10:13
601,-190,-142,111,-326,-16,223,-975,93,0:10:13
612,-190,-127,91,-308,-26,223,-983,80,0:10:13
612,-190,-127,63,-266,-31,193,-981,71,0:10:13
600,-177,-123,24,-217,-52,178,-971,70,0:10:13
595,-183,-124,14,-169,-66,205,-963,58,0:10:13
595,-183,-124,42,-152,-60,216,-954,55,0:10:13
606,-163,-127,9,-97,-82,214,-942,65,0:10:13
592,-189,-129,-17,-67,-101,217,-938,81,0:10:13
607,-187,-129,-11,-65,-102,233,-941,82,0:10:13
607,-187,-129,-10,-71,-102,250,-940,71,0:10:13
594,-193,-129,-14,-79,-105,265,-946,72,0:10:13
591,-195,-121,-7,-95,-100,277,-958,71,0:10:13
580,-183,-124,-11,-120,-91,284,-987,70,0:10:13
603,-192,-130,-12,-144,-76,287,-1016,57,0:10:13
624,-183,-139,-18,-147,-80,287,-1016,57,0:10:13
594,-208,-144,35,-144,-56,302,-1033,37,0:10:13
594,-208,-144,70,-128,-44,291,-1025,33,0:10:13
618,-184,-118,77,-106,-44,261,-994,35,0:10:13
604,-186,-112,77,-106,-44,254,-972,30,0:10:13
604,-186,-112,81,-93,-42,247,-956,24,0:10:13
606,-177,-141,98,-87,-39,239,-946,9,0:10:13
600,-187,-123,114,-79,-39,232,-938,-4,0:10:13
598,-196,-126,123,-67,-40,217,-940,-14,0:10:13
609,-183,-144,125,-33,-46,200,-952,-11,0:10:13
609,-183,-144,126,2,-52,187,-966,5,0:10:13
615,-186,-124,124,17,-58,173,-980,21,0:10:13
615,-186,-124,123,31,-65,159,-987,26,0:10:13
607,-208,-130,120,43,-72,149,-986,20,0:10:13
604,-177,-130,118,51,-81,140,-979,14,0:10:13
615,-192,-135,114,56,-91,130,-970,7,0:10:13
615,-192,-135,106,63,-105,125,-965,5,0:10:13
606,-183,-108,93,65,-115,125,-963,9,0:10:13
625,-174,-111,82,60,-125,124,-970,14,0:10:13
615,-186,-115,78,49,-122,133,-975,16,0:10:13
615,-178,-118,73,36,-115,143,-973,13,0:10:13
618,-184,-136,70,18,-105,143,-973,13,0:10:13
600,-168,-124,70,0,-93,140,-975,16,0:10:13
621,-172,-120,73,-18,-79,138,-979,15,0:10:13
621,-172,-120,73,-18,-79,133,-979,7,0:10:13
612,-174,-115,70,-30,-65,127,-972,0,0:10:13
625,-178,-112,64,-27,-65,128,-968,5,0:10:13
625,-184,-118,54,-21,-67,131,-969,15,0:10:13
622,-171,-103,42,-20,-70,134,-968,22,0:10:13
609,-180,-108,26,-12,-74,139,-968,20,0:10:13
609,-180,-108,14,-6,-77,143,-967,16,0:10:13
606,-172,-112,4,-2,-75,145,-969,14,0:10:13
607,-166,-115,0,-2,-71,146,-983,16,0:10:13
621,-180,-123,0,0,-70,142,-986,22,0:10:13
628,-187,-117,-4,0,-69,140,-986,30,0:10:13
618,-190,-117,-7,-4,-68,142,-986,31,0:10:13
621,-177,-117,-7,-6,-67,141,-986,30,0:10:13
621,-177,-117,-6,-2,-65,136,-985,30,0:10:13
612,-183,-112,-2,-8,-64,136,-985,30,0:10:13
612,-183,-112,4,-9,-60,133,-985,25,0:10:13
610,-169,-124,9,-4,-60,127,-988,13,0:10:13
631,-162,-123,13,-1,-63,117,-983,16,0:10:13
621,-166,-121,17,-2,-67,109,-975,29,0:10:13
627,-165,-118,17,-2,-67,106,-973,30,0:10:13
634,-147,-127,21,0,-74,104,-969,30,0:10:13
634,-147,-127,18,-1,-79,104,-960,31,0:10:13
616,-175,-118,16,-4,-84,105,-952,28,0:10:13
627,-180,-108,21,-2,-86,110,-945,27,0:10:13
625,-171,-124,24,-1,-88,116,-937,29,0:10:13
634,-192,-130,24,-9,-86,120,-934,28,0:10:13
622,-184,-124,22,-16,-81,123,-936,29,0:10:13
622,-184,-124,24,-19,-72,125,-943,33,0:10:13
618,-166,-111,27,-23,-60,124,-949,45,0:10:13
618,-166,-111,32,-37,-46,127,-954,59,0:10:13
627,-174,-108,34,-49,-33,131,-963,63,0:10:13
624,-175,-111,33,-61,-22,136,-975,61,0:10:14
613,-168,-135,31,-74,-11,142,-989,56,0:10:14
613,-168,-135,23,-76,-6,147,-1003,62,0:10:14
625,-192,-109,14,-77,-2,147,-1003,62,0:10:14
616,-177,-115,6,-74,-2,149,-1013,71,0:10:14
607,-181,-91,-4,-72,-4,153,-1019,69,0:10:14
625,-178,-115,-21,-70,-7,148,-1022,75,0:10:14
634,-168,-109,-34,-67,-13,140,-1017,80,0:10:14
603,-175,-109,-34,-67,-13,134,-1004,77,0:10:14
618,-169,-127,-42,-67,-18,126,-994,73,0:10:14
618,-169,-127,-53,-67,-24,128,-987,61,0:10:14
622,-180,-108,-59,-60,-28,135,-982,51,0:10:14
622,-180,-108,-68,-48,-30,141,-981,54,0:10:14
630,-181,-106,-67,-42,-26,148,-977,57,0:10:14
634,-178,-111,-57,-44,-22,155,-969,56,0:10:14
613,-169,-135,-48,-47,-18,158,-966,53,0:10:14
645,-175,-135,-42,-45,-16,151,-972,54,0:10:14
645,-175,-135,-33,-35,-15,147,-977,59,0:10:14
636,-172,-105,-25,-30,-16,150,-979,63,0:10:14
636,-172,-105,-18,-32,-18,145,-977,61,0:10:14
657,-178,-117,-13,-31,-19,137,-972,56,0:10:14
615,-186,-145,-4,-25,-21,134,-969,59,0:10:14
625,-177,-111,2,-24,-23,134,-971,64,0:10:14
625,-177,-111,0,-29,-23,134,-971,64,0:10:14
616,-186,-124,-5,-28,-23,134,-972,63,0:10:14
625,-183,-111,-7,-28,-21,135,-966,59,0:10:14
637,-177,-126,-7,-32,-18,136,-964,60,0:10:14
621,-180,-133,-7,-32,-18,132,-968,61,0:10:14
618,-172,-138,-7,-28,-16,131,-968,61,0:10:14
621,-193,-126,-11,-19,-15,134,-967,65,0:10:14
630,-169,-117,-15,-16,-12,140,-968,70,0:10:14
630,-169,-117,-18,-12,-11,147,-966,73,0:10:14
634,-180,-109,-20,-9,-11,151,-966,72,0:10:14
634,-180,-109,-22,-14,-9,153,-967,65,0:10:14
634,-175,-127,-23,-14,-7,154,-968,58,0:10:14
624,-184,-121,-21,-4,-7,151,-970,54,0:10:14
625,-174,-129,-21,4,-7,145,-970,58,0:10:14
625,-174,-129,-21,11,-7,142,-969,68,0:10:14
640,-178,-126,-23,11,-5,142,-970,76,0:10:14
640,-165,-127,-20,11,-5,142,-973,79,0:10:14
642,-165,-117,-22,4,-2,143,-971,75,0:10:14
619,-160,-120,-24,4,0,142,-970,72,0:10:14
639,-192,-117,-21,6,0,138,-971,72,0:10:14
624,-192,-133,-19,10,-1,138,-971,72,0:10:14
636,-171,-129,-17,14,0,134,-971,71,0:10:14
636,-171,-129,-15,11,-1,132,-972,70,0:10:14
636,-174,-106,-15,8,-2,131,-972,69,0:10:14
636,-174,-106,-15,8,-2,132,-971,70,0:10:14
624,-183,-124,-13,5,-2,133,-971,75,0:10:14
627,-171,-126,-11,0,-1,137,-975,73,0:10:14
636,-180,-121,-14,-1,-1,136,-977,70,0:10:14
628,-183,-123,-16,2,-2,135,-978,70,0:10:14
628,-183,-123,-14,5,0,136,-977,71,0:10:14
628,-180,-126,-15,3,0,137,-974,76,0:10:14
625,-184,-117,-15,6,-1,137,-971,82,0:10:14
625,-190,-142,-18,2,-2,135,-969,78,0:10:14
636,-193,-120,-21,-2,-2,134,-968,72,0:10:14
612,-178,-115,-21,4,-3,135,-966,70,0:10:14
633,-172,-133,-18,14,-4,139,-967,72,0:10:14
633,-172,-133,-14,11,-3,142,-969,77,0:10:14
633,-157,-105,-11,2,-2,144,-970,75,0:10:14
633,-157,-105,-9,2,-2,144,-970,73,0:10:14
621,-174,-111,-7,3,-1,144,-970,73,0:10:14
636,-183,-129,-4,3,0,142,-971,73,0:10:14
630,-162,-129,-4,3,-1,142,-971,73,0:10:14
630,-162,-129,-4,-2,-2,141,-972,74,0:10:14
640,-181,-135,-4,-2,-2,141,-973,72,0:10:14
615,-175,-120,-4,-2,-2,137,-973,71,0:10:14
615,-175,-120,-6,4,-4,136,-974,75,0:10:14
607,-181,-112,-7,3,-4,138,-975,77,0:10:14
628,-177,-138,-7,1,-4,140,-973,73,0:10:14
619,-177,-121,-8,2,-5,141,-970,68,0:10:14
619,-177,-121,-8,9,-6,140,-968,70,0:10:14
631,-171,-135,-8,15,-5,138,-963,76,0:10:14
622,-192,-106,-8,14,-6,137,-961,79,0:10:14
619,-186,-136,-8,11,-6,139,-966,76,0:10:14
634,-196,-142,-8,8,-4,140,-971,79,0:10:14
631,-181,-132,-7,3,-2,141,-975,82,0:10:14
631,-177,-121,-6,-2,-2,141,-975,77,0:10:14
633,-178,-126,-2,-1,-2,140,-972,72,0:10:14
633,-178,-126,0,9,-2,144,-972,73,0:10:14
618,-184,-123,2,6,-2,151,-970,76,0:10:14
618,-184,-123,1,11,-3,151,-970,76,0:10:14
627,-172,-126,1,14,-2,153,-966,73,0:10:14
619,-181,-126,0,14,-2,151,-968,74,0:10:14
619,-163,-133,0,10,-1,147,-970,80,0:10:14
619,-163,-133,0,10,-1,139,-969,81,0:10:14
624,-187,-130,-2,11,-3,133,-970,78,0:10:14
619,-195,-114,-4,12,-4,129,-973,75,0:10:14
625,-181,-124,-7,12,-5,127,-975,73,0:10:14
601,-178,-142,-9,9,-5,128,-976,77,0:10:14
631,-189,-123,-7,4,-6,130,-978,82,0:10:14
631,-183,-123,-6,-4,-6,132,-977,82,0:10:14
616,-160,-124,-4,-10,-4,131,-974,81,0:10:14
616,-160,-124,-3,-14,-3,131,-972,78,0:10:14
618,-174,-132,-1,-16,-3,131,-971,77,0:10:14
618,-174,-132,-1,-19,-2,136,-971,78,0:10:14
627,-169,-123,1,-23,-1,142,-973,77,0:10:14
618,-181,-132,2,-25,0,146,-973,81,0:10:14
624,-171,-132,4,-30,0,147,-973,83,0:10:14
624,-171,-132,2,-33,0,146,-971,80,0:10:14
630,-163,-115,-1,-33,-2,145,-969,77,0:10:14
622,-181,-138,-3,-32,-2,144,-968,76,0:10:14
618,-178,-136,-5,-23,-4,144,-968,76,0:10:14
639,-186,-130,-5,-21,-2,143,-970,72,0:10:14
615,-166,-126,-4,-18,0,144,-969,72,0:10:14
622,-172,-117,-4,-18,0,144,-966,78,0:10:14
627,-190,-139,-3,-11,0,145,-967,82,0:10:15
627,-190,-139,-3,-10,0,146,-969,83,0:10:15
598,-180,-109,0,-14,0,148,-969,80,0:10:15
598,-180,-109,3,-18,2,150,-969,76,0:10:15
631,-178,-135,6,-21,4,148,-971,74,0:10:15
628,-157,-142,9,-18,3,145,-968,73,0:10:15
652,-175,-124,12,-12,3,143,-967,66,0:10:15
652,-175,-124,12,-7,2,140,-968,64,0:10:15
633,-181,-150,11,-2,0,141,-966,69,0:10:15
618,-181,-139,15,-2,-2,144,-969,72,0:10:15
622,-174,-130,16,-2,-2,148,-975,74,0:10:15
649,-171,-130,16,-2,-2,149,-976,74,0:10:15
634,-175,-144,18,0,-2,147,-975,71,0:10:15
630,-177,-142,21,0,-3,146,-972,66,0:10:15
630,-177,-142,21,0,-6,140,-966,68,0:10:15
624,-183,-129,18,7,-7,140,-966,68,0:10:15
616,-180,-109,18,1,-5,139,-967,68,0:10:15
615,-171,-117,18,1,-7,142,-971,71,0:10:15
627,-177,-132,18,0,-5,140,-971,75,0:10:15
624,-168,-132,18,0,-5,140,-975,73,0:10:15
633,-174,-139,18,0,-3,142,-976,71,0:10:15
633,-174,-139,17,0,-3,142,-974,69,0:10:15
625,-181,-132,14,4,-3,142,-970,71,0:10:15
606,-168,-126,13,0,-3,145,-969,70,0:10:15
606,-168,-126,10,3,-3,146,-972,67,0:10:15
622,-169,-127,9,4,-3,147,-973,66,0:10:15
622,-178,-123,9,2,-4,148,-971,65,0:10:15
630,-178,-142,7,2,-7,148,-970,62,0:10:15
630,-178,-142,8,4,-7,146,-972,63,0:10:15
624,-165,-124,10,4,-7,147,-975,64,0:10:15
627,-178,-138,12,5,-7,147,-976,65,0:10:15
618,-186,-126,11,7,-7,145,-973,67,0:10:15
639,-183,-123,11,5,-8,145,-971,66,0:10:15
636,-189,-148,10,0,-7,145,-971,66,0:10:15
621,-174,-141,7,0,-7,146,-970,62,0:10:15
621,-174,-141,6,0,-7,144,-970,61,0:10:15
633,-178,-124,5,1,-7,140,-971,64,0:10:15
630,-163,-109,5,0,-7,139,-970,63,0:10:15
630,-163,-109,7,2,-7,138,-970,62,0:10:15
637,-162,-115,7,2,-7,140,-972,65,0:10:15
634,-192,-118,9,3,-6,144,-972,66,0:10:15
622,-183,-139,12,5,-7,147,-969,66,0:10:15
633,-171,-121,16,1,-6,148,-968,62,0:10:15
633,-171,-121,17,-2,-4,146,-967,58,0:10:15
636,-166,-118,16,-2,-3,145,-969,57,0:10:15
624,-165,-124,15,-9,-3,145,-972,59,0:10:15
612,-169,-118,14,-11,-4,146,-970,59,0:10:15
625,-177,-132,11,-4,-9,147,-971,59,0:10:15
636,-186,-129,7,4,-11,145,-975,63,0:10:15
625,-196,-133,4,10,-12,144,-978,67,0:10:15
625,-196,-133,4,7,-11,146,-979,71,0:10:15
616,-172,-123,4,-1,-9,145,-976,68,0:10:15
616,-172,-123,7,-8,-7,143,-974,63,0:10:15
610,-181,-133,5,-11,-5,142,-973,65,0:10:15
616,-175,-138,3,-13,-5,142,-973,65,0:10:15
628,-165,-132,0,-9,-6,144,-969,65,0:10:15
628,-165,-132,0,-4,-7,148,-966,60,0:10:15
640,-186,-130,-1,3,-6,151,-963,61,0:10:15
627,-169,-148,-1,3,-6,152,-964,65,0:10:15
616,-175,-118,-2,11,-6,152,-968,68,0:10:15
637,-180,-130,-4,15,-7,151,-969,70,0:10:15
630,-181,-120,-8,12,-8,150,-970,70,0:10:15
613,-181,-132,-10,9,-8,148,-973,67,0:10:15
636,-174,-126,-5,1,-7,146,-974,66,0:10:15
636,-174,-126,0,-1,-6,145,-974,67,0:10:15
625,-190,-124,1,-4,-5,140,-976,68,0:10:15
625,-190,-124,4,0,-6,140,-978,70,0:10:15
612,-183,-129,8,-3,-5,142,-979,69,0:10:15
615,-174,-126,6,-3,-6,142,-976,69,0:10:15
622,-186,-130,4,-2,-6,144,-972,72,0:10:15
622,-186,-130,3,-3,-5,146,-973,73,0:10:15
627,-172,-109,2,-7,-6,145,-972,72,0:10:15
618,-172,-112,0,-11,-5,145,-968,70,0:10:15
618,-172,-112,1,-14,-5,144,-969,66,0:10:15
622,-180,-118,0,-11,-6,144,-969,66,0:10:15
616,-186,-124,0,-7,-7,144,-971,66,0:10:15
613,-186,-124,0,-8,-7,146,-970,69,0:10:15
613,-186,-124,0,-8,-7,146,-970,69,0:10:15
621,-169,-135,0,-5,-9,147,-974,68,0:10:15
613,-175,-106,0,-5,-9,146,-974,70,0:10:15
628,-192,-130,2,-4,-8,142,-974,71,0:10:15
633,-178,-147,2,-5,-7,143,-973,71,0:10:15
625,-178,-133,1,-10,-7,143,-972,72,0:10:15
622,-181,-147,0,-14,-6,143,-971,72,0:10:15
628,-181,-139,1,-16,-6,144,-970,71,0:10:15
628,-181,-139,1,-16,-5,143,-971,69,0:10:15
615,-192,-126,-1,-11,-6,143,-969,68,0:10:15
615,-192,-126,-4,-9,-6,145,-970,68,0:10:15
640,-181,-130,-4,-7,-6,146,-974,67,0:10:15
618,-166,-138,-4,-8,-6,146,-973,67,0:10:15
619,-195,-123,-2,-7,-7,146,-972,66,0:10:15
627,-171,-126,-3,-7,-7,144,-970,67,0:10:15
627,-171,-126,-3,-7,-7,143,-968,66,0:10:15
621,-193,-133,-2,-11,-7,142,-970,65,0:10:15
616,-193,-120,0,-11,-7,142,-970,65,0:10:15
622,-201,-141,0,-11,-7,143,-973,67,0:10:15
634,-181,-130,-2,-8,-7,142,-974,69,0:10:15
628,-171,-139,-2,-8,-7,138,-975,68,0:10:15
628,-171,-139,-3,-11,-7,140,-975,66,0:10:15
628,-187,-132,-4,-9,-7,141,-974,66,0:10:15
628,-187,-132,-4,-10,-6,138,-973,69,0:10:15
609,-177,-138,-4,-15,-6,140,-972,70,0:10:15
642,-171,-141,-4,-10,-7,143,-973,68,0:10:15
634,-174,-138,-3,-9,-7,142,-971,69,0:10:15
637,-174,-129,-2,-11,-7,143,-968,70,0:10:15
621,-181,-136,-4,-15,-7,142,-968,68,0:10:15
621,-181,-136,-7,-13,-7,140,-970,63,0:10:16
619,-174,-138,-5,-12,-7,143,-973,63,0:10:16
613,-189,-145,-7,-10,-7,146,-971,65,0:10:16
619,-183,-142,-6,-13,-4,146,-971,64,0:10:16
625,-171,-130,-7,-14,-4,143,-972,62,0:10:16
621,-184,-126,-8,-11,-6,142,-973,63,0:10:16
633,-172,-139,-8,-9,-6,142,-974,68,0:10:16
633,-172,-139,-7,-13,-4,142,-972,68,0:10:16
618,-186,-120,-9,-13,-5,140,-972,68,0:10:16
618,-186,-120,-9,-11,-4,140,-969,65,0:10:16
612,-178,-121,-5,-12,-4,139,-969,62,0:10:16
627,-165,-141,-4,-11,-4,140,-969,62,0:10:16
619,-181,-144,-4,-11,-4,141,-970,67,0:10:16
619,-181,-144,-4,-9,-4,145,-969,69,0:10:16
615,-184,-118,-2,-16,-4,145,-969,67,0:10:16
624,-186,-130,0,-15,-4,142,-970,65,0:10:16
624,-186,-130,-1,-9,-5,144,-971,66,0:10:16
624,-171,-121,2,-6,-7,147,-973,66,0:10:16
613,-168,-121,3,-4,-7,147,-972,64,0:10:16
618,-169,-130,1,-4,-8,145,-971,65,0:10:16
643,-187,-132,2,-4,-8,144,-974,65,0:10:16
643,-187,-132,3,-3,-9,142,-973,67,0:10:16
624,-184,-138,2,-4,-8,139,-970,70,0:10:16
624,-184,-138,0,-3,-8,139,-971,72,0:10:16
619,-165,-117,0,-4,-7,141,-971,72,0:10:16
616,-183,-130,1,-7,-7,142,-972,70,0:10:16
625,-174,-133,0,-9,-5,142,-972,70,0:10:16
639,-166,-148,1,-9,-4,141,-973,68,0:10:16
639,-166,-148,1,-7,-4,141,-972,67,0:10:16
601,-178,-109,0,-5,-4,142,-974,68,0:10:16
601,-178,-109,3,-4,-6,143,-971,71,0:10:16
622,-168,-136,4,-2,-7,143,-972,71,0:10:16
637,-172,-129,4,-2,-7,144,-973,68,0:10:16
615,-184,-123,7,0,-8,144,-971,66,0:10:16
615,-184,-123,9,0,-7,145,-969,66,0:10:16
616,-193,-114,7,-2,-6,142,-966,68,0:10:16
625,-184,-126,9,0,-4,141,-965,71,0:10:16
627,-169,-132,5,2,-2,141,-966,72,0:10:16
609,-181,-145,4,2,-2,140,-970,69,0:10:16
627,-169,-142,5,7,-3,143,-972,69,0:10:16
618,-181,-132,7,9,-3,144,-972,73,0:10:16
643,-162,-133,7,8,-4,143,-973,73,0:10:16
643,-162,-133,9,6,-4,140,-972,72,0:10:16
618,-171,-112,10,9,-5,136,-973,72,0:10:16
618,-171,-112,13,9,-7,134,-973,71,0:10:16
630,-151,-118,15,9,-9,137,-970,72,0:10:16
630,-193,-130,16,10,-8,137,-970,72,0:10:16
615,-177,-124,18,7,-8,139,-971,74,0:10:16
615,-177,-124,18,2,-5,143,-970,73,0:10:16
622,-178,-129,20,-2,-4,148,-968,71,0:10:16
621,-186,-144,20,0,-4,146,-970,68,0:10:16
634,-168,-124,20,0,-4,142,-972,67,0:10:16
634,-168,-138,17,2,-4,139,-971,68,0:10:16
630,-178,-121,15,5,-5,138,-971,71,0:10:16
628,-168,-135,14,4,-5,139,-970,70,0:10:16
628,-168,-135,14,4,-5,142,-968,72,0:10:16
622,-175,-142,11,2,-4,146,-970,77,0:10:16
619,-172,-138,10,9,-4,148,-973,77,0:10:16
619,-172,-138,11,0,-3,147,-976,73,0:10:16
631,-192,-127,9,-1,-4,148,-976,68,0:10:16
631,-196,-124,7,1,-2,151,-974,70,0:10:16
639,-160,-126,9,0,-2,148,-972,69,0:10:16
627,-168,-124,9,0,-3,143,-970,67,0:10:16
627,-168,-124,7,3,-4,141,-969,69,0:10:16
639,-166,-118,7,2,-4,141,-971,69,0:10:16
610,-175,-117,7,0,-3,144,-969,71,0:10:16
633,-172,-120,8,-5,-2,146,-968,74,0:10:16
615,-154,-129,9,-4,-1,146,-968,74,0:10:16
618,-166,-126,7,-5,-2,146,-970,74,0:10:16
618,-166,-126,5,-7,-1,146,-970,73,0:10:16
619,-178,-144,6,-7,-1,145,-971,72,0:10:16
621,-169,-115,6,-7,-1,145,-971,71,0:10:16
622,-172,-129,4,-5,-2,144,-972,69,0:10:16
645,-168,-130,5,-7,-1,145,-973,68,0:10:16
637,-190,-130,6,-6,-2,147,-971,67,0:10:16
628,-180,-151,7,-4,-2,147,-968,66,0:10:16
628,-180,-151,7,0,-2,145,-970,66,0:10:16
630,-160,-133,7,2,-4,143,-974,70,0:10:16
612,-168,-120,11,2,-4,143,-973,71,0:10:16
612,-168,-120,11,0,-6,146,-970,68,0:10:16
624,-169,-130,10,0,-7,145,-967,67,0:10:16
613,-180,-133,11,0,-7,143,-967,69,0:10:16
634,-190,-117,12,2,-9,145,-967,72,0:10:16
625,-178,-136,11,1,-9,148,-969,73,0:10:16
625,-178,-136,14,1,-7,149,-972,74,0:10:16
618,-172,-120,15,0,-8,147,-975,75,0:10:16
625,-156,-115,16,-4,-7,147,-977,75,0:10:16
636,-171,-130,16,-4,-7,145,-977,73,0:10:16
618,-174,-124,18,-7,-5,141,-975,70,0:10:16
630,-166,-132,18,-9,-5,138,-975,66,0:10:16
621,-192,-114,18,-9,-5,138,-975,63,0:10:16
621,-192,-114,20,-14,-4,138,-973,61,0:10:16
648,-183,-129,20,-11,-4,141,-968,61,0:10:16
648,-183,-129,21,-14,-4,144,-965,63,0:10:16
628,-172,-126,20,-18,-6,147,-966,61,0:10:16
627,-169,-147,17,-23,-6,147,-973,61,0:10:16
630,-166,-130,15,-24,-6,146,-976,62,0:10:16
630,-166,-130,14,-24,-7,145,-975,61,0:10:16
624,-171,-126,13,-23,-7,146,-973,63,0:10:16
622,-178,-148,13,-18,-9,150,-971,64,0:10:16
619,-178,-105,13,-17,-9,152,-972,65,0:10:16
624,-174,-135,14,-19,-11,151,-967,67,0:10:16
633,-178,-126,16,-14,-10,155,-969,63,0:10:16
622,-169,-129,15,-15,-10,156,-976,60,0:10:16
616,-168,-132,14,-18,-10,153,-973,61,0:10:16
616,-168,-132,13,-16,-10,153,-971,57,0:10:16
622,-190,-105,16,-14,-11,153,-971,57,0:10:16
622,-190,-105,15,-13,-10,152,-972,60,0:10:17
616,-189,-135,14,-18,-10,152,-972,66,0:10:17
625,-187,-118,13,-16,-9,152,-972,65,0:10:17
628,-192,-126,13,-20,-7,150,-973,62,0:10:17
627,-162,-121,13,-20,-7,150,-970,60,0:10:17
627,-162,-121,14,-18,-8,154,-968,59,0:10:17
646,-189,-129,15,-16,-8,153,-967,59,0:10:17
615,-183,-130,18,-14,-9,148,-971,59,0:10:17
627,-162,-114,18,-9,-10,149,-972,61,0:10:17
622,-175,-126,18,-8,-11,152,-970,64,0:10:17
622,-165,-115,21,-14,-8,153,-969,60,0:10:17
621,-184,-118,20,-18,-8,155,-969,54,0:10:17
621,-184,-118,20,-17,-8,154,-968,55,0:10:17
613,-168,-118,22,-14,-8,154,-967,56,0:10:17
613,-168,-118,23,-21,-8,154,-968,53,0:10:17
610,-178,-127,19,-25,-8,151,-968,51,0:10:17
622,-186,-142,17,-24,-9,149,-967,52,0:10:17
639,-166,-135,15,-22,-12,147,-965,54,0:10:17
619,-193,-124,15,-20,-14,149,-968,48,0:10:17
619,-193,-124,18,-17,-13,149,-968,48,0:10:17
622,-168,-106,16,-14,-15,148,-968,46,0:10:17
622,-168,-106,17,-19,-15,145,-967,51,0:10:17
630,-174,-127,18,-25,-16,149,-968,50,0:10:17
627,-181,-118,18,-25,-16,153,-966,47,0:10:17
630,-172,-127,18,-25,-16,153,-966,44,0:10:17
630,-172,-127,21,-23,-15,154,-966,45,0:10:17
633,-154,-123,21,-19,-16,158,-967,46,0:10:17
627,-181,-109,22,-14,-17,160,-972,49,0:10:17
609,-174,-136,20,-16,-18,158,-975,50,0:10:17
627,-168,-123,17,-14,-18,155,-976,48,0:10:17
643,-177,-126,15,-13,-21,152,-978,48,0:10:17
637,-169,-139,11,-11,-23,151,-978,48,0:10:17
631,-187,-133,9,-10,-25,150,-978,46,0:10:17
631,-187,-133,11,-12,-27,147,-976,47,0:10:17
624,-172,-127,14,-7,-28,142,-972,48,0:10:17
624,-172,-127,14,-4,-28,141,-970,47,0:10:17
610,-169,-136,18,-6,-29,143,-968,48,0:10:17
631,-177,-129,22,-9,-28,146,-967,50,0:10:17
630,-174,-111,23,-11,-28,146,-967,50,0:10:17
630,-174,-111,23,-16,-27,149,-966,49,0:10:17
642,-169,-124,24,-21,-27,150,-966,46,0:10:17
634,-172,-135,25,-24,-26,150,-966,44,0:10:17
631,-181,-130,24,-21,-28,149,-967,42,0:10:17
621,-160,-127,24,-21,-28,148,-970,45,0:10:17
642,-174,-132,23,-17,-29,146,-972,47,0:10:17
640,-177,-127,23,-17,-29,147,-974,46,0:10:17
645,-166,-130,21,-14,-30,147,-975,46,0:10:17
645,-166,-130,20,-13,-30,146,-974,50,0:10:17
636,-163,-106,20,-18,-29,148,-975,52,0:10:17
636,-163,-106,19,-18,-30,148,-976,50,0:10:17
622,-175,-123,17,-18,-32,148,-972,46,0:10:17
631,-163,-106,18,-16,-32,149,-970,44,0:10:17
622,-187,-109,18,-15,-34,148,-969,44,0:10:17
622,-187,-109,21,-11,-35,145,-969,45,0:10:17
645,-169,-118,23,-9,-37,144,-970,45,0:10:17
622,-168,-130,25,-2,-37,146,-971,43,0:10:17
631,-157,-126,26,-5,-36,145,-971,45,0:10:17
630,-160,-115,28,-10,-37,141,-969,46,0:10:17
640,-183,-115,30,-12,-37,141,-969,46,0:10:17
640,-184,-129,33,-13,-38,136,-968,43,0:10:17
640,-184,-129,32,-11,-39,134,-969,42,0:10:17
