magX[mG],magY[mG],magZ[mG],gyroX[mdps],gyroY[mdps],gyroZ[mdps],accX[mg],accY[mg],accZ[mg],hh:mm:ss.ms
595,-196,-447,-11,-11,-7,143,-983,-1,2:23:13
595,-196,-447,-11,-11,-7,143,-983,-1,2:23:13
595,-196,-447,-11,-11,-7,143,-983,-1,2:23:13
595,-196,-447,-11,-11,-7,143,-983,-1,2:23:13
595,-196,-447,-6,-5,-9,142,-975,-10,2:23:13
568,-195,-438,-7,-2,-9,141,-975,-10,2:23:13
580,-211,-439,-6,-1,-9,136,-977,-9,2:23:13
582,-201,-445,-5,-4,-7,132,-972,-8,2:23:13
574,-205,-451,-6,-5,-7,134,-972,-7,2:23:13
586,-202,-450,-7,-7,-7,136,-974,-5,2:23:13
597,-204,-453,-8,-8,-5,135,-978,-5,2:23:13
571,-186,-435,-11,-10,-7,132,-980,-8,2:23:13
576,-195,-454,-12,-11,-9,132,-979,-7,2:23:13
573,-216,-447,-14,-18,-9,132,-974,-7,2:23:13
573,-201,-438,-14,-22,-9,131,-970,-11,2:23:13
574,-190,-444,-14,-22,-9,129,-972,-13,2:23:13
582,-193,-456,-10,-20,-7,133,-974,-11,2:23:13
580,-199,-427,-6,-13,-7,138,-975,-6,2:23:13
580,-199,-427,-5,-11,-5,141,-974,-4,2:23:13
556,-210,-436,-6,-15,-4,144,-972,-4,2:23:13
589,-183,-435,-8,-16,-4,145,-972,-6,2:23:13
570,-210,-442,-8,-14,-4,141,-974,-8,2:23:13
580,-193,-459,-8,-10,-4,138,-976,-5,2:23:13
573,-198,-439,-11,-11,-4,135,-976,-4,2:23:13
601,-204,-456,-14,-15,-7,132,-975,-5,2:23:13
601,-204,-456,-18,-20,-8,134,-976,-4,2:23:13
580,-204,-424,-19,-19,-9,135,-982,-2,2:23:13
577,-204,-441,-18,-19,-9,135,-986,0,2:23:13
570,-219,-459,-16,-21,-7,135,-985,0,2:23:13
586,-211,-466,-14,-23,-7,136,-982,-1,2:23:13
582,-187,-436,-11,-24,-6,136,-982,-1,2:23:13
562,-189,-444,-11,-25,-5,141,-978,-1,2:23:14
562,-189,-444,-13,-23,-4,145,-976,-2,2:23:14
577,-207,-435,-16,-24,-3,147,-974,-2,2:23:14
580,-199,-433,-16,-24,-2,149,-971,-2,2:23:14
583,-192,-436,-16,-24,-2,148,-969,-1,2:23:14
589,-190,-451,-15,-19,-2,147,-974,2,2:23:14
589,-199,-450,-12,-14,-4,143,-976,4,2:23:14
597,-196,-447,-14,-18,-4,141,-975,3,2:23:14
597,-196,-447,-18,-7,-7,143,-973,0,2:23:14
583,-202,-457,-18,-15,-7,143,-973,-2,2:23:14
579,-202,-447,-18,-13,-9,144,-973,0,2:23:14
588,-205,-444,-17,-3,-9,145,-971,2,2:23:14
565,-201,-459,-15,0,-9,147,-970,4,2:23:14
579,-208,-465,-14,-2,-8,149,-970,3,2:23:14
576,-211,-436,-14,-3,-7,149,-971,-1,2:23:14
576,-211,-436,-11,0,-7,149,-972,-4,2:23:14
570,-195,-430,-7,8,-7,144,-977,0,2:23:14
586,-202,-445,-4,12,-7,143,-975,7,2:23:14
583,-193,-456,-4,8,-7,145,-974,11,2:23:14
574,-195,-456,-7,4,-7,145,-974,11,2:23:14
580,-198,-456,-7,3,-9,142,-974,8,2:23:14
579,-205,-457,-9,5,-11,139,-974,4,2:23:14
579,-205,-457,-7,10,-10,141,-975,1,2:23:14
579,-214,-421,-7,10,-10,143,-977,0,2:23:14
580,-202,-456,-4,10,-9,143,-978,5,2:23:14
577,-210,-439,-5,12,-8,144,-976,8,2:23:14
591,-214,-448,-7,7,-7,142,-973,7,2:23:14
564,-193,-474,-9,3,-7,139,-973,8,2:23:14
594,-198,-454,-11,-1,-7,138,-975,8,2:23:14
594,-198,-454,-11,7,-7,136,-979,8,2:23:14
574,-207,-435,-11,4,-7,136,-981,10,2:23:14
567,-204,-450,-9,0,-7,138,-981,10,2:23:14
585,-190,-453,-11,-4,-7,140,-977,7,2:23:14
604,-199,-463,-12,-5,-8,137,-973,4,2:23:14
582,-192,-454,-13,-2,-9,137,-975,6,2:23:14
580,-214,-453,-10,-1,-10,138,-978,11,2:23:14
580,-214,-453,-9,-5,-11,141,-977,12,2:23:14
567,-198,-444,-11,-11,-9,142,-976,11,2:23:14
585,-210,-447,-12,-15,-9,142,-976,11,2:23:14
583,-198,-433,-12,-18,-8,141,-976,10,2:23:14
583,-196,-444,-11,-17,-8,145,-976,11,2:23:14
583,-190,-450,-8,-12,-9,145,-977,10,2:23:14
598,-190,-436,-8,-12,-9,142,-980,9,2:23:14
598,-190,-436,-6,-5,-9,142,-979,10,2:23:14
592,-198,-450,-5,-4,-8,142,-977,13,2:23:14
580,-190,-447,-4,-7,-8,142,-977,14,2:23:14
562,-208,-456,-5,-15,-7,142,-974,17,2:23:14
579,-205,-448,-6,-16,-7,138,-974,18,2:23:14
579,-204,-451,-8,-16,-8,139,-975,19,2:23:14
594,-207,-441,-9,-16,-9,142,-976,21,2:23:14
594,-207,-441,-14,-27,-7,143,-974,18,2:23:14
570,-201,-417,-12,-23,-7,144,-970,12,2:23:14
585,-201,-460,-11,-14,-7,144,-968,9,2:23:14
589,-192,-447,-8,-3,-9,149,-975,14,2:23:14
576,-180,-453,-2,3,-7,154,-981,20,2:23:14
580,-187,-468,0,0,-5,154,-978,19,2:23:14
580,-187,-468,0,-7,-4,152,-971,14,2:23:14
582,-180,-454,-3,-13,-4,148,-965,9,2:23:14
580,-190,-460,-3,-9,-6,148,-965,9,2:23:14
595,-196,-456,-1,-5,-7,141,-968,9,2:23:14
576,-186,-442,0,-3,-7,137,-971,12,2:23:14
586,-193,-447,-1,-4,-8,137,-972,13,2:23:14
574,-192,-445,-1,-4,-8,139,-973,15,2:23:14
574,-192,-445,-2,-7,-6,142,-974,17,2:23:14
568,-201,-433,-6,-7,-6,143,-975,17,2:23:14
568,-201,-433,-8,-9,-6,142,-976,13,2:23:14
571,-193,-445,-7,-4,-6,137,-978,10,2:23:14
589,-198,-436,-9,-1,-7,135,-976,13,2:23:14
573,-193,-445,-10,0,-7,135,-975,16,2:23:14
574,-207,-450,-10,-2,-6,139,-974,17,2:23:14
574,-207,-450,-11,-6,-5,142,-973,16,2:23:14
591,-192,-460,-12,-8,-4,139,-974,14,2:23:14
588,-198,-447,-11,-5,-3,141,-975,12,2:23:14
589,-192,-442,-9,-2,-3,142,-975,12,2:23:14
573,-189,-463,-6,-2,-4,140,-976,12,2:23:14
579,-201,-429,-4,-2,-6,140,-977,10,2:23:14
579,-193,-447,-4,-2,-7,140,-974,9,2:23:14
579,-193,-447,-3,-1,-7,137,-970,10,2:23:14
573,-193,-454,-2,0,-9,137,-970,10,2:23:14
573,-193,-454,-2,-1,-9,137,-968,11,2:23:14
585,-177,-441,0,-4,-9,138,-972,12,2:23:14
592,-198,-439,1,-5,-8,139,-975,13,2:23:14
591,-195,-445,1,-5,-8,139,-975,14,2:23:14
601,-196,-444,2,-7,-7,139,-973,17,2:23:14
601,-196,-444,3,-11,-6,139,-974,18,2:23:14
576,-183,-450,2,-13,-4,139,-978,20,2:23:14
576,-183,-450,1,-16,-6,138,-976,21,2:23:14
579,-196,-445,0,-16,-6,135,-975,17,2:23:14
576,-199,-456,1,-11,-6,135,-974,16,2:23:14
573,-190,-447,-1,-11,-7,139,-975,17,2:23:14
571,-184,-448,-2,-11,-6,141,-979,16,2:23:14
571,-184,-448,-3,-12,-6,139,-981,15,2:23:14
564,-201,-436,-5,-17,-4,138,-979,16,2:23:14
570,-207,-439,-5,-18,-6,139,-976,16,2:23:14
574,-207,-450,-4,-20,-6,140,-974,10,2:23:14
571,-193,-456,-2,-19,-6,138,-972,10,2:23:14
579,-187,-444,-4,-18,-7,138,-972,10,2:23:14
550,-205,-460,-3,-18,-9,135,-972,13,2:23:14
550,-205,-460,-2,-18,-9,135,-974,14,2:23:14
579,-189,-447,-4,-28,-5,137,-975,16,2:23:14
579,-189,-447,-4,-26,-4,141,-973,14,2:23:14
556,-192,-454,-2,-22,-6,139,-971,12,2:23:14
582,-199,-468,-2,-22,-6,135,-971,14,2:23:14
582,-201,-454,-2,-20,-7,138,-973,17,2:23:14
579,-201,-459,-2,-20,-8,141,-975,18,2:23:14
579,-201,-459,-1,-23,-8,142,-977,16,2:23:14
579,-201,-459,2,-21,-7,142,-977,15,2:23:14
574,-213,-477,0,-22,-7,141,-976,16,2:23:15
573,-193,-468,-2,-27,-7,142,-974,16,2:23:15
582,-195,-454,-2,-29,-7,143,-975,14,2:23:15
564,-189,-444,-2,-30,-6,143,-977,12,2:23:15
565,-195,-459,-6,-29,-6,140,-975,13,2:23:15
565,-195,-459,-9,-23,-7,141,-972,13,2:23:15
579,-175,-450,-6,-18,-7,145,-970,12,2:23:15
579,-175,-450,-1,-16,-5,149,-970,14,2:23:15
573,-195,-462,0,-14,-4,149,-974,17,2:23:15
556,-223,-460,0,-11,-4,148,-975,20,2:23:15
577,-187,-451,0,-11,-4,148,-975,20,2:23:15
577,-192,-447,0,-8,-4,146,-976,21,2:23:15
577,-192,-447,0,-10,-5,143,-975,22,2:23:15
582,-207,-454,-3,-11,-7,144,-974,21,2:23:15
576,-186,-459,-4,-11,-9,146,-971,17,2:23:15
570,-186,-441,-4,-11,-9,144,-971,14,2:23:15
591,-184,-460,-6,-9,-9,143,-974,12,2:23:15
579,-192,-471,-3,-4,-9,144,-975,13,2:23:15
595,-190,-457,-2,-2,-7,144,-973,16,2:23:15
595,-190,-457,0,-1,-7,144,-972,17,2:23:15
558,-196,-444,0,-4,-6,145,-974,19,2:23:15
558,-196,-444,0,-3,-4,143,-976,18,2:23:15
573,-181,-456,3,-4,-4,139,-979,16,2:23:15
568,-186,-453,2,-4,-5,141,-978,15,2:23:15
568,-190,-444,4,-4,-6,143,-975,17,2:23:15
576,-202,-444,4,-7,-4,143,-974,17,2:23:15
576,-202,-444,3,-7,-3,141,-974,17,2:23:15
568,-204,-442,1,-9,-2,140,-973,15,2:23:15
580,-204,-471,-4,-7,-1,142,-971,13,2:23:15
559,-192,-456,-9,-4,-2,147,-972,16,2:23:15
582,-204,-445,-14,-5,0,147,-972,16,2:23:15
571,-205,-460,-18,-10,2,151,-975,19,2:23:15
574,-198,-454,-25,-10,4,149,-976,21,2:23:15
574,-198,-454,-25,-10,4,147,-979,21,2:23:15
579,-207,-442,-28,-11,6,145,-981,20,2:23:15
579,-207,-442,-28,-11,6,139,-979,21,2:23:15
577,-181,-439,-30,-11,4,137,-976,18,2:23:15
570,-201,-466,-28,-6,2,136,-982,23,2:23:15
573,-210,-456,-25,-8,4,130,-984,27,2:23:15
577,-192,-448,-23,-7,4,125,-980,22,2:23:15
577,-192,-448,-19,-4,3,127,-979,24,2:23:15
570,-189,-457,-18,-7,3,128,-978,29,2:23:15
562,-190,-469,-16,-9,0,129,-976,28,2:23:15
573,-189,-456,-14,-13,0,131,-973,23,2:23:15
594,-195,-454,-13,-15,-1,131,-971,20,2:23:15
567,-190,-468,-12,-20,-3,131,-971,18,2:23:15
576,-207,-448,-11,-24,-4,129,-973,18,2:23:15
576,-207,-448,-10,-25,-5,132,-972,17,2:23:15
580,-184,-441,-8,-28,-5,135,-973,19,2:23:15
580,-184,-441,-7,-30,-5,141,-974,20,2:23:15
559,-193,-453,-7,-29,-4,141,-974,20,2:23:15
565,-184,-460,-5,-30,-4,146,-975,19,2:23:15
592,-192,-469,-3,-30,-2,145,-976,21,2:23:15
586,-201,-444,-3,-30,-2,148,-976,22,2:23:15
586,-201,-444,-2,-25,-2,149,-975,20,2:23:15
579,-177,-459,0,-23,-2,149,-973,21,2:23:15
591,-199,-447,-1,-21,-3,151,-971,21,2:23:15
588,-181,-462,0,-21,-4,151,-973,21,2:23:15
561,-193,-463,0,-21,-5,152,-975,21,2:23:15
568,-190,-444,1,-19,-4,154,-975,20,2:23:15
573,-199,-456,2,-14,-5,155,-973,19,2:23:15
573,-199,-456,4,-11,-5,151,-972,21,2:23:15
552,-193,-453,5,-6,-4,148,-975,23,2:23:15
552,-208,-438,5,-5,-5,148,-974,22,2:23:15
567,-196,-460,4,-2,-6,146,-973,21,2:23:15
582,-196,-436,2,-2,-7,145,-972,24,2:23:15
583,-178,-460,2,-4,-9,146,-972,24,2:23:15
576,-202,-459,1,-5,-9,147,-974,21,2:23:15
576,-202,-459,1,-7,-9,148,-975,19,2:23:15
582,-181,-421,0,-16,-9,148,-975,19,2:23:15
582,-181,-421,1,-12,-8,146,-973,18,2:23:15
580,-195,-460,4,-9,-9,144,-971,20,2:23:15
571,-208,-451,4,-5,-8,145,-970,23,2:23:15
579,-183,-471,4,-5,-7,145,-969,26,2:23:15
568,-193,-465,4,-5,-7,148,-971,28,2:23:15
568,-193,-465,3,-9,-7,146,-972,27,2:23:15
561,-190,-444,2,-9,-7,145,-974,25,2:23:15
577,-195,-448,2,-9,-5,149,-973,27,2:23:15
574,-190,-463,3,-8,-5,152,-970,27,2:23:15
546,-193,-457,4,-7,-5,152,-972,25,2:23:15
550,-190,-454,4,-7,-6,150,-973,23,2:23:15
576,-192,-460,4,-4,-5,149,-972,22,2:23:15
576,-192,-460,4,-5,-5,148,-970,23,2:23:15
556,-190,-448,2,-5,-7,151,-969,22,2:23:15
556,-190,-448,1,-1,-7,152,-971,22,2:23:15
582,-192,-448,2,1,-7,148,-973,23,2:23:15
565,-193,-463,2,1,-7,145,-973,21,2:23:15
570,-195,-454,2,2,-6,146,-971,21,2:23:15
564,-184,-450,2,3,-5,144,-971,21,2:23:15
564,-184,-450,0,2,-5,144,-971,21,2:23:15
567,-202,-460,2,2,-5,143,-974,21,2:23:15
589,-195,-451,2,4,-5,143,-973,20,2:23:15
576,-204,-457,2,4,-5,143,-970,20,2:23:15
564,-196,-465,1,2,-5,143,-973,20,2:23:15
577,-195,-444,1,2,-5,142,-975,21,2:23:15
571,-183,-456,0,1,-6,143,-975,22,2:23:15
571,-183,-456,0,1,-6,144,-976,21,2:23:15
555,-190,-441,0,1,-6,142,-973,20,2:23:15
555,-190,-441,0,2,-7,142,-973,20,2:23:15
568,-189,-460,1,2,-7,140,-975,21,2:23:15
588,-199,-450,2,4,-7,138,-977,20,2:23:15
559,-169,-444,2,1,-6,137,-976,17,2:23:15
580,-195,-454,3,1,-7,137,-976,18,2:23:15
580,-195,-454,4,4,-7,140,-978,19,2:23:15
574,-202,-460,4,10,-7,141,-977,18,2:23:15
571,-189,-460,4,6,-7,140,-976,18,2:23:15
582,-183,-466,2,2,-7,140,-977,18,2:23:15
568,-193,-469,4,2,-8,140,-975,17,2:23:16
571,-213,-462,3,1,-9,140,-975,17,2:23:16
556,-186,-456,4,3,-11,141,-971,17,2:23:16
556,-186,-456,6,5,-11,143,-972,20,2:23:16
556,-186,-456,7,-2,-12,142,-972,24,2:23:16
559,-184,-471,9,1,-13,142,-972,24,2:23:16
571,-213,-445,9,1,-13,145,-970,25,2:23:16
576,-204,-459,9,0,-14,146,-973,25,2:23:16
546,-193,-459,11,1,-14,145,-974,24,2:23:16
576,-217,-465,13,0,-13,146,-972,26,2:23:16
583,-187,-462,14,2,-12,144,-972,27,2:23:16
583,-187,-462,14,-5,-9,143,-970,27,2:23:16
573,-189,-453,12,-3,-9,144,-970,26,2:23:16
583,-196,-462,11,-2,-9,146,-974,26,2:23:16
573,-195,-462,9,-4,-9,149,-976,26,2:23:16
567,-187,-447,9,-4,-9,150,-976,25,2:23:16
570,-201,-445,8,-2,-9,150,-977,25,2:23:16
580,-184,-459,6,-2,-8,150,-976,23,2:23:16
580,-184,-459,7,9,-9,151,-973,20,2:23:16
567,-195,-438,3,1,-7,150,-971,19,2:23:16
567,-189,-445,2,0,-7,149,-972,21,2:23:16
585,-204,-438,2,2,-7,148,-974,22,2:23:16
574,-195,-469,2,4,-7,148,-974,22,2:23:16
592,-186,-462,1,4,-5,148,-973,23,2:23:16
591,-193,-459,2,3,-5,148,-974,23,2:23:16
591,-193,-459,2,3,-5,146,-975,23,2:23:16
582,-195,-447,3,2,-6,145,-975,22,2:23:16
561,-195,-444,4,2,-6,145,-973,22,2:23:16
577,-202,-471,2,2,-5,144,-973,19,2:23:16
583,-208,-459,1,0,-6,144,-973,17,2:23:16
571,-198,-444,0,-2,-6,143,-973,18,2:23:16
561,-190,-474,-1,-3,-5,142,-975,19,2:23:16
561,-190,-474,0,15,-7,141,-975,21,2:23:16
564,-190,-435,-1,4,-6,141,-976,24,2:23:16
568,-195,-469,-2,-2,-5,140,-977,25,2:23:16
576,-177,-453,-2,-2,-5,143,-977,23,2:23:16
565,-186,-448,-2,-2,-6,144,-977,20,2:23:16
582,-192,-471,-1,-2,-7,140,-975,18,2:23:16
585,-211,-448,-1,0,-8,141,-973,19,2:23:16
585,-211,-448,0,4,-9,142,-974,19,2:23:16
558,-198,-450,0,3,-8,140,-973,17,2:23:16
571,-195,-460,0,0,-7,140,-973,17,2:23:16
592,-198,-454,-2,0,-6,141,-974,19,2:23:16
577,-193,-448,-2,1,-5,142,-975,20,2:23:16
573,-202,-451,0,1,-5,144,-976,20,2:23:16
570,-196,-462,0,1,-5,145,-978,20,2:23:16
570,-196,-462,0,4,-4,144,-977,21,2:23:16
574,-186,-445,-2,3,-4,143,-978,23,2:23:16
564,-187,-469,-2,2,-5,142,-978,21,2:23:16
576,-187,-469,-2,2,-6,138,-977,21,2:23:16
579,-201,-463,-3,-1,-7,135,-976,20,2:23:16
570,-180,-460,-4,-2,-8,137,-976,19,2:23:16
577,-193,-453,-4,-4,-9,139,-974,20,2:23:16
577,-193,-453,-2,-3,-10,137,-972,22,2:23:16
579,-184,-439,-2,-5,-11,137,-973,25,2:23:16
576,-201,-472,-1,-7,-9,140,-973,27,2:23:16
573,-205,-472,1,-9,-8,141,-975,26,2:23:16
585,-192,-457,4,-9,-9,145,-978,24,2:23:16
579,-204,-454,7,-8,-8,150,-978,23,2:23:16
558,-196,-457,8,-9,-7,152,-975,21,2:23:16
558,-196,-457,7,-7,-6,152,-975,21,2:23:16
574,-202,-457,7,-5,-5,152,-972,20,2:23:16
588,-196,-477,7,-2,-4,150,-971,20,2:23:16
559,-184,-462,6,0,-6,148,-970,22,2:23:16
573,-198,-453,5,2,-7,148,-970,26,2:23:16
559,-190,-457,5,2,-7,147,-973,28,2:23:16
576,-198,-466,4,1,-8,146,-973,30,2:23:16
576,-198,-466,4,4,-9,146,-974,31,2:23:16
565,-198,-444,2,2,-9,147,-975,28,2:23:16
564,-208,-463,4,0,-11,145,-973,25,2:23:16
588,-196,-471,5,0,-10,146,-974,25,2:23:16
570,-189,-466,6,-1,-9,146,-975,24,2:23:16
571,-207,-445,7,1,-9,144,-976,24,2:23:16
577,-192,-450,7,2,-8,145,-976,24,2:23:16
577,-192,-450,7,-8,-7,150,-971,23,2:23:16
559,-195,-480,6,-1,-7,151,-969,22,2:23:16
576,-201,-471,7,2,-6,148,-968,23,2:23:16
573,-178,-468,6,2,-6,147,-970,24,2:23:16
567,-207,-466,6,2,-6,147,-973,24,2:23:16
565,-187,-456,6,2,-7,147,-973,26,2:23:16
579,-187,-459,7,2,-7,147,-973,26,2:23:16
579,-187,-459,7,11,-8,147,-973,23,2:23:16
571,-207,-433,5,6,-7,146,-974,22,2:23:16
573,-178,-465,3,4,-7,147,-975,26,2:23:16
573,-202,-459,2,2,-8,147,-976,27,2:23:16
580,-186,-477,2,2,-8,145,-974,26,2:23:16
573,-181,-463,2,4,-9,145,-972,24,2:23:16
589,-192,-450,2,6,-8,145,-973,25,2:23:16
589,-192,-450,2,8,-7,143,-974,27,2:23:16
570,-205,-477,5,7,-6,144,-975,27,2:23:16
574,-196,-468,7,5,-6,147,-977,25,2:23:16
579,-202,-463,8,6,-7,146,-976,22,2:23:16
564,-202,-448,10,6,-6,144,-976,20,2:23:16
577,-190,-456,10,7,-5,142,-977,18,2:23:16
564,-190,-459,9,8,-6,141,-976,18,2:23:16
564,-190,-459,6,5,-7,140,-974,24,2:23:16
541,-186,-445,4,5,-8,140,-974,26,2:23:16
568,-172,-448,2,5,-8,140,-973,24,2:23:16
576,-181,-451,1,5,-9,141,-972,25,2:23:16
571,-189,-466,2,7,-8,143,-973,26,2:23:16
585,-187,-472,4,7,-7,143,-973,26,2:23:16
582,-175,-474,4,7,-5,145,-972,27,2:23:16
582,-175,-474,7,7,-5,146,-973,24,2:23:16
552,-202,-456,7,7,-4,145,-973,23,2:23:16
580,-196,-456,7,5,-6,143,-972,23,2:23:16
577,-199,-442,7,5,-6,141,-973,22,2:23:16
564,-213,-460,8,4,-6,142,-976,22,2:23:16
565,-181,-454,9,2,-5,141,-976,21,2:23:17
580,-204,-468,11,2,-4,141,-976,20,2:23:17
580,-204,-468,11,8,-6,143,-979,20,2:23:17
574,-196,-439,11,7,-5,146,-979,21,2:23:17
570,-199,-447,10,9,-4,147,-978,23,2:23:17
573,-193,-472,8,7,-4,149,-978,26,2:23:17
567,-204,-466,6,7,-5,147,-977,25,2:23:17
580,-186,-462,2,7,-4,145,-975,23,2:23:17
564,-186,-445,1,9,-4,144,-972,23,2:23:17
564,-186,-445,0,6,-3,142,-974,22,2:23:17
565,-190,-456,-2,5,-4,142,-975,21,2:23:17
570,-192,-472,-3,4,-4,139,-974,21,2:23:17
562,-195,-453,-3,4,-4,140,-975,19,2:23:17
564,-178,-445,-2,2,-4,140,-975,19,2:23:17
586,-204,-457,-1,4,-4,142,-975,21,2:23:17
558,-190,-456,0,6,-4,142,-973,20,2:23:17
558,-190,-456,0,7,-4,143,-975,16,2:23:17
580,-201,-447,2,5,-3,144,-975,15,2:23:17
565,-193,-448,2,5,-3,143,-975,16,2:23:17
585,-190,-466,2,3,-2,143,-973,17,2:23:17
561,-180,-454,2,2,-2,143,-970,18,2:23:17
589,-204,-453,2,2,-3,143,-972,19,2:23:17
574,-202,-460,3,4,-4,146,-975,19,2:23:17
574,-202,-460,0,-10,0,145,-974,19,2:23:17
565,-198,-457,2,6,-2,146,-976,18,2:23:17
576,-198,-442,4,11,-3,146,-974,18,2:23:17
574,-180,-462,4,11,-4,143,-973,19,2:23:17
582,-199,-456,3,11,-4,144,-976,21,2:23:17
567,-204,-445,2,10,-4,143,-975,23,2:23:17
564,-187,-463,2,11,-6,142,-974,24,2:23:17
561,-189,-433,3,16,-7,146,-977,19,2:23:17
568,-189,-447,3,16,-6,147,-976,19,2:23:17
559,-184,-460,5,18,-6,147,-976,19,2:23:17
586,-186,-457,6,17,-4,148,-973,20,2:23:17
571,-192,-462,5,15,-2,148,-973,19,2:23:17
598,-186,-463,5,15,-2,148,-975,19,2:23:17
598,-186,-463,6,15,-2,143,-977,18,2:23:17
591,-190,-442,4,11,-2,138,-978,17,2:23:17
580,-189,-450,4,9,-3,139,-978,19,2:23:17
583,-193,-462,2,9,-4,138,-977,21,2:23:17
586,-190,-450,2,9,-3,139,-976,20,2:23:17
577,-184,-459,1,14,-3,144,-974,19,2:23:17
555,-210,-460,1,16,-2,148,-973,21,2:23:17
555,-210,-460,2,14,-2,148,-976,20,2:23:17
579,-196,-445,3,16,-2,147,-977,19,2:23:17
586,-204,-465,1,14,-1,148,-976,21,2:23:17
579,-198,-466,0,14,-1,146,-973,21,2:23:17
580,-195,-447,0,11,0,143,-972,22,2:23:17
579,-192,-453,-2,9,-1,141,-974,24,2:23:17
555,-207,-465,-4,10,-1,139,-974,25,2:23:17
555,-207,-465,-3,16,-2,142,-976,25,2:23:17
567,-183,-430,-3,14,-3,146,-975,26,2:23:17
568,-193,-466,-2,14,-3,146,-975,26,2:23:17
585,-174,-466,-2,16,-4,147,-973,26,2:23:17
588,-178,-466,0,18,-3,147,-973,25,2:23:17
579,-187,-484,0,18,-2,151,-974,24,2:23:17
603,-193,-460,0,18,-2,154,-974,23,2:23:17
603,-193,-460,1,16,-1,150,-973,22,2:23:17
574,-196,-454,0,18,-1,147,-972,22,2:23:17
570,-211,-459,0,18,0,147,-973,22,2:23:17
571,-183,-460,-1,17,0,146,-973,22,2:23:17
577,-216,-465,0,14,0,145,-971,23,2:23:17
573,-193,-472,-1,15,0,144,-972,26,2:23:17
576,-189,-459,-2,17,-1,144,-976,25,2:23:17
576,-189,-459,-1,28,-3,144,-977,25,2:23:17
579,-183,-450,-1,24,-4,145,-975,25,2:23:17
553,-196,-465,0,23,-3,148,-977,23,2:23:17
577,-181,-453,0,21,-3,148,-980,22,2:23:17
573,-205,-472,2,16,-4,147,-977,23,2:23:17
568,-175,-454,2,14,-4,146,-973,23,2:23:17
589,-186,-466,3,15,-5,146,-973,21,2:23:17
589,-186,-466,5,12,-5,146,-973,21,2:23:17
577,-187,-435,4,16,-4,147,-971,21,2:23:17
586,-184,-439,4,20,-5,147,-969,23,2:23:17
579,-172,-456,5,21,-6,149,-969,24,2:23:17
558,-202,-462,7,23,-4,153,-970,23,2:23:17
582,-190,-460,7,23,-4,153,-972,21,2:23:17
586,-198,-466,7,25,-4,154,-971,22,2:23:17
586,-198,-466,8,24,-3,155,-970,23,2:23:17
568,-184,-436,8,23,-2,152,-972,24,2:23:17
579,-198,-462,7,21,0,151,-974,21,2:23:17
583,-186,-460,4,21,1,153,-973,19,2:23:17
574,-196,-468,1,22,2,150,-976,23,2:23:17
570,-183,-451,-1,23,2,147,-975,24,2:23:17
568,-198,-439,-1,24,2,145,-975,22,2:23:17
568,-198,-439,-1,18,2,143,-976,22,2:23:17
576,-181,-444,-1,24,0,144,-977,24,2:23:17
576,-169,-460,-2,25,0,143,-977,25,2:23:17
586,-175,-453,-1,22,-2,144,-975,26,2:23:17
582,-187,-453,-1,21,-2,142,-975,24,2:23:17
577,-192,-460,-1,18,-4,142,-975,24,2:23:17
570,-186,-454,-1,16,-4,140,-977,25,2:23:17
570,-186,-454,1,14,-4,139,-977,29,2:23:17
579,-177,-462,0,12,-3,136,-970,22,2:23:17
577,-192,-453,0,11,-2,140,-969,21,2:23:17
580,-190,-456,0,11,-2,144,-973,28,2:23:17
586,-207,-466,0,11,-1,145,-970,26,2:23:17
594,-189,-468,0,13,0,145,-970,27,2:23:17
574,-181,-456,0,16,0,145,-971,30,2:23:17
574,-181,-456,0,12,0,146,-970,32,2:23:17
574,-193,-424,0,11,-2,147,-971,32,2:23:17
577,-195,-465,0,12,-3,150,-972,29,2:23:17
582,-196,-445,0,15,-4,149,-971,28,2:23:17
573,-190,-465,0,19,-7,148,-971,31,2:23:17
576,-184,-456,0,19,-7,148,-973,32,2:23:17
582,-174,-486,1,21,-8,152,-974,32,2:23:18
582,-174,-486,3,28,-10,154,-975,32,2:23:18
588,-196,-462,2,21,-9,152,-976,31,2:23:18
589,-198,-466,2,15,-9,153,-976,29,2:23:18
591,-216,-445,2,11,-7,153,-974,30,2:23:18
582,-196,-456,1,11,-8,150,-971,26,2:23:18
582,-199,-469,0,10,-8,150,-971,26,2:23:18
579,-208,-447,0,13,-10,151,-970,23,2:23:18
579,-208,-447,0,21,-10,150,-970,23,2:23:18
579,-193,-448,0,23,-12,150,-969,25,2:23:18
583,-195,-459,0,23,-12,152,-967,27,2:23:18
586,-196,-465,-2,23,-12,157,-967,29,2:23:18
580,-187,-474,-2,23,-12,159,-968,29,2:23:18
585,-202,-463,-4,23,-13,157,-969,27,2:23:18
582,-195,-466,-5,28,-14,156,-970,27,2:23:18
582,-195,-466,-7,39,-13,156,-972,26,2:23:18
580,-201,-451,-10,51,-12,156,-975,28,2:23:18
589,-196,-450,-12,56,-12,157,-977,31,2:23:18
579,-213,-456,-11,57,-12,162,-974,30,2:23:18
592,-202,-444,-7,53,-11,168,-974,28,2:23:18
571,-195,-456,-5,46,-9,172,-973,30,2:23:18
594,-195,-450,-7,38,-7,173,-971,31,2:23:18
594,-195,-450,-7,31,-7,168,-971,29,2:23:18
562,-184,-447,-6,36,-6,162,-970,29,2:23:18
583,-196,-451,-2,44,-5,159,-970,32,2:23:18
589,-193,-466,3,51,-5,159,-970,32,2:23:18
582,-195,-457,7,50,-6,157,-969,33,2:23:18
588,-186,-456,7,44,-7,154,-973,35,2:23:18
598,-184,-457,5,42,-9,150,-974,36,2:23:18
598,-184,-457,5,42,-9,146,-975,35,2:23:18
585,-199,-451,2,38,-11,147,-977,33,2:23:18
585,-192,-444,2,42,-16,149,-982,36,2:23:18
582,-193,-447,-1,42,-16,148,-983,36,2:23:18
565,-202,-462,-3,46,-16,147,-974,30,2:23:18
576,-195,-436,-1,57,-16,151,-973,27,2:23:18
570,-190,-445,0,60,-14,150,-975,25,2:23:18
564,-178,-442,3,60,-11,153,-975,32,2:23:18
613,-198,-444,5,56,-8,153,-976,33,2:23:18
574,-195,-441,7,49,-7,153,-974,32,2:23:18
583,-199,-454,9,45,-7,154,-973,33,2:23:18
588,-186,-454,9,43,-6,153,-971,34,2:23:18
579,-189,-448,5,42,-6,154,-968,33,2:23:18
579,-189,-448,3,43,-7,155,-968,31,2:23:18
585,-193,-432,0,35,-7,152,-969,28,2:23:18
585,-193,-432,0,41,-9,152,-969,28,2:23:18
591,-190,-442,0,48,-9,150,-971,27,2:23:18
574,-201,-468,1,51,-10,151,-973,27,2:23:18
597,-204,-451,3,56,-10,150,-976,24,2:23:18
598,-177,-450,3,56,-10,148,-979,21,2:23:18
598,-177,-450,14,71,-11,148,-990,35,2:23:18
597,-180,-423,12,74,-11,147,-994,46,2:23:18
597,-180,-423,10,66,-10,144,-984,39,2:23:18
601,-190,-447,9,53,-10,144,-981,34,2:23:18
589,-207,-472,6,38,-11,143,-977,34,2:23:18
580,-201,-456,1,24,-11,141,-975,35,2:23:18
580,-201,-456,-4,14,-13,140,-973,34,2:23:18
589,-202,-448,-7,12,-14,138,-974,30,2:23:18
570,-177,-442,-9,13,-14,138,-977,29,2:23:18
570,-177,-442,-8,20,-16,137,-970,25,2:23:18
592,-189,-442,-10,26,-15,142,-971,27,2:23:18
598,-199,-459,-10,18,-13,149,-974,33,2:23:18
607,-177,-444,-10,10,-12,149,-972,31,2:23:18
607,-177,-444,-13,2,-11,150,-976,27,2:23:18
592,-187,-441,-16,0,-11,151,-980,23,2:23:18
589,-190,-448,-20,4,-11,151,-980,23,2:23:18
591,-192,-451,-26,17,-13,149,-981,23,2:23:18
577,-169,-471,-32,30,-15,149,-981,25,2:23:18
591,-201,-454,-31,46,-21,152,-984,25,2:23:18
594,-202,-460,-31,46,-21,153,-998,37,2:23:18
594,-202,-460,-37,46,-20,151,-1002,42,2:23:18
595,-183,-439,-44,47,-17,146,-993,32,2:23:18
598,-187,-456,-53,49,-16,147,-990,37,2:23:18
598,-187,-456,-62,46,-17,150,-993,39,2:23:18
589,-202,-451,-74,49,-17,148,-999,29,2:23:18
591,-183,-457,-78,56,-18,146,-1007,16,2:23:18
577,-187,-448,-86,66,-18,147,-1010,15,2:23:18
603,-199,-454,-91,75,-18,149,-1008,15,2:23:18
603,-199,-454,-86,84,-17,153,-1003,9,2:23:18
597,-189,-453,-75,91,-15,160,-994,10,2:23:18
586,-180,-441,-69,82,-12,167,-986,18,2:23:18
595,-184,-450,-67,66,-9,172,-974,23,2:23:18
594,-174,-460,-71,51,-7,174,-959,20,2:23:18
597,-183,-459,-80,46,-7,174,-959,20,2:23:18
580,-172,-465,-82,43,-9,173,-954,11,2:23:18
580,-172,-465,-86,6,-11,168,-954,13,2:23:18
589,-180,-435,-96,-37,-11,164,-958,31,2:23:18
589,-180,-435,-109,-67,-7,164,-964,32,2:23:18
597,-180,-432,-119,-86,2,167,-979,21,2:23:18
580,-175,-454,-119,-86,2,174,-998,15,2:23:18
600,-190,-465,-128,-94,11,174,-1009,5,2:23:18
612,-180,-468,-133,-88,17,167,-1010,4,2:23:18
612,-180,-468,-144,-70,11,165,-999,5,2:23:18
583,-189,-474,-155,-44,0,171,-991,4,2:23:18
583,-168,-463,-165,-44,-11,183,-991,9,2:23:18
582,-195,-477,-179,-53,-18,191,-992,9,2:23:18
595,-180,-451,-194,-44,-24,188,-993,0,2:23:18
585,-174,-463,-209,-28,-30,177,-996,0,2:23:18
610,-183,-447,-226,-30,-35,166,-994,8,2:23:18
610,-183,-447,-242,-37,-37,158,-997,10,2:23:18
571,-168,-468,-254,-25,-38,154,-1000,6,2:23:18
571,-168,-468,-264,-31,-35,151,-1000,9,2:23:18
576,-178,-472,-277,-39,-34,152,-1000,15,2:23:18
592,-183,-486,-289,-53,-30,149,-1003,26,2:23:18
586,-172,-474,-301,-79,-30,149,-1003,26,2:23:18
577,-175,-492,-317,-107,-28,135,-1008,30,2:23:18
577,-175,-492,-336,-134,-28,116,-1010,25,2:23:18
606,-181,-481,-357,-154,-30,94,-1014,18,2:23:19
583,-175,-468,-379,-163,-35,71,-1018,5,2:23:19
591,-156,-477,-379,-163,-35,53,-1020,-8,2:23:19
600,-160,-493,-400,-179,-38,35,-1021,-10,2:23:19
597,-181,-484,-410,-207,-42,13,-1024,-16,2:23:19
597,-181,-484,-398,-210,-50,-19,-1045,-3,2:23:19
591,-163,-486,-428,-255,-70,-41,-1047,-6,2:23:19
585,-162,-490,-470,-283,-121,-54,-1032,-32,2:23:19
582,-157,-514,-482,-329,-157,-83,-1047,19,2:23:19
607,-165,-502,-464,-364,-179,-45,-1013,8,2:23:19
601,-141,-510,-450,-471,-212,-45,-996,33,2:23:19
582,-160,-516,-410,-612,-241,-70,-977,68,2:23:19
582,-160,-516,-343,-758,-266,-51,-940,43,2:23:19
574,-138,-505,-281,-863,-280,-13,-927,30,2:23:19
577,-148,-511,-214,-940,-282,15,-906,41,2:23:19
564,-141,-505,-129,-1009,-294,28,-855,37,2:23:19
570,-126,-519,-25,-1043,-298,28,-855,37,2:23:19
556,-133,-516,58,-1024,-275,71,-831,42,2:23:19
553,-129,-513,112,-1027,-266,140,-832,89,2:23:19
553,-129,-513,112,-1027,-266,197,-831,139,2:23:19
567,-120,-505,164,-986,-235,232,-843,200,2:23:19
562,-148,-489,146,-935,-229,262,-884,270,2:23:19
550,-139,-501,70,-914,-242,262,-919,318,2:23:19
568,-147,-525,-18,-921,-252,233,-934,354,2:23:19
544,-132,-517,-97,-954,-267,217,-940,366,2:23:19
546,-135,-523,-177,-982,-288,204,-962,363,2:23:19
546,-135,-523,-263,-982,-309,196,-981,346,2:23:19
529,-153,-537,-326,-935,-322,182,-979,326,2:23:19
538,-135,-513,-367,-875,-334,172,-943,304,2:23:19
510,-135,-514,-379,-806,-349,179,-887,270,2:23:19
525,-126,-517,-374,-744,-364,176,-837,241,2:23:19
543,-127,-528,-333,-712,-372,174,-800,210,2:23:19
526,-151,-525,-282,-680,-364,183,-731,156,2:23:19
526,-151,-525,-198,-697,-360,173,-673,88,2:23:19
513,-135,-526,-100,-674,-375,163,-690,45,2:23:19
516,-132,-523,-21,-602,-384,179,-740,48,2:23:19
519,-117,-525,14,-526,-382,179,-740,48,2:23:19
513,-124,-532,18,-463,-373,194,-802,97,2:23:19
510,-129,-511,62,-426,-355,174,-833,143,2:23:19
525,-135,-528,62,-426,-355,131,-837,147,2:23:19
525,-135,-528,140,-389,-331,60,-851,140,2:23:19
498,-115,-523,219,-312,-294,46,-900,134,2:23:19
507,-130,-517,293,-243,-269,-64,-908,213,2:23:19
520,-117,-519,310,-212,-275,-33,-978,188,2:23:19
517,-139,-510,347,-214,-270,-26,-1050,206,2:23:19
511,-123,-520,401,-296,-248,-29,-1084,219,2:23:19
508,-133,-517,441,-377,-244,-32,-1123,204,2:23:19
508,-133,-517,433,-399,-236,-44,-1150,133,2:23:19
519,-138,-499,428,-324,-231,-68,-1151,5,2:23:19
495,-163,-507,446,-217,-205,-97,-1147,-57,2:23:19
508,-160,-480,407,-136,-184,-106,-1142,-39,2:23:19
514,-147,-504,389,-102,-164,-102,-1134,-30,2:23:19
511,-163,-498,364,-196,-133,-74,-1113,37,2:23:19
511,-163,-498,322,-438,-99,-74,-1113,37,2:23:19
517,-162,-495,247,-711,-68,-48,-1108,132,2:23:19
487,-162,-490,181,-908,-26,-28,-1105,120,2:23:19
487,-162,-490,142,-1044,24,-3,-1091,68,2:23:19
505,-162,-496,111,-1137,86,-8,-1076,55,2:23:19
508,-132,-492,111,-1137,86,-2,-1057,52,2:23:19
486,-166,-490,88,-1216,150,25,-1033,51,2:23:19
471,-171,-480,52,-1311,210,34,-1002,77,2:23:19
471,-171,-480,5,-1409,257,38,-968,76,2:23:19
480,-156,-487,-28,-1477,300,50,-939,49,2:23:19
468,-151,-483,-42,-1546,337,58,-909,18,2:23:19
450,-154,-490,-33,-1589,352,64,-881,-35,2:23:19
447,-168,-468,8,-1552,348,50,-860,-64,2:23:19
444,-153,-486,47,-1414,344,30,-854,-50,2:23:19
444,-153,-486,64,-1225,326,33,-860,-26,2:23:19
435,-150,-468,57,-1066,292,80,-895,50,2:23:19
411,-172,-460,23,-1011,271,159,-937,117,2:23:19
411,-172,-460,37,-1025,284,233,-934,52,2:23:19
397,-147,-456,88,-1035,311,265,-903,-74,2:23:19
405,-159,-448,133,-981,316,265,-903,-74,2:23:19
391,-157,-459,184,-870,299,229,-880,-132,2:23:19
391,-157,-459,251,-766,255,166,-880,-57,2:23:19
399,-168,-439,282,-735,192,116,-913,62,2:23:19
405,-151,-442,282,-735,192,131,-992,94,2:23:19
381,-147,-451,389,-630,86,155,-1137,125,2:23:19
390,-141,-456,389,-630,86,166,-1370,189,2:23:19
378,-150,-444,355,-475,72,211,-1610,271,2:23:19
387,-160,-450,180,-387,89,267,-1709,397,2:23:19
387,-160,-450,-57,-362,128,331,-1498,368,2:23:19
382,-165,-421,-192,-406,143,369,-1161,215,2:23:19
358,-156,-417,-213,-431,211,350,-932,147,2:23:19
358,-156,-417,-208,-505,289,245,-770,145,2:23:19
375,-159,-450,-178,-565,317,134,-688,106,2:23:19
370,-148,-447,-112,-599,301,101,-698,78,2:23:19
351,-147,-447,-106,-636,266,132,-780,101,2:23:19
351,-147,-447,-97,-704,267,202,-863,51,2:23:19
360,-145,-442,-49,-713,254,209,-899,-36,2:23:19
355,-156,-442,-10,-686,211,147,-916,-42,2:23:19
358,-142,-433,-7,-672,154,130,-930,0,2:23:19
348,-151,-427,-39,-708,100,177,-931,39,2:23:19
349,-148,-423,-86,-787,65,177,-931,39,2:23:19
348,-150,-420,-133,-877,42,239,-946,67,2:23:19
348,-150,-420,-179,-953,29,272,-977,73,2:23:19
352,-159,-412,-222,-1065,18,262,-1012,76,2:23:19
334,-147,-403,-222,-1065,18,234,-1034,67,2:23:19
334,-147,-403,-261,-1190,14,214,-1048,37,2:23:19
313,-156,-388,-297,-1320,11,196,-1044,9,2:23:19
340,-159,-418,-301,-1467,16,180,-1017,-5,2:23:19
309,-138,-402,-296,-1582,25,174,-984,-17,2:23:19
309,-138,-402,-285,-1656,32,165,-955,-16,2:23:19
318,-153,-400,-294,-1724,27,160,-934,-4,2:23:19
312,-144,-399,-308,-1761,30,190,-909,-19,2:23:20
291,-159,-369,-312,-1767,30,230,-886,-62,2:23:20
294,-130,-366,-331,-1774,25,252,-887,-78,2:23:20
283,-145,-363,-340,-1753,21,265,-914,-59,2:23:20
297,-144,-363,-349,-1742,21,265,-932,-40,2:23:20
297,-144,-363,-361,-1731,22,280,-934,-33,2:23:20
282,-147,-357,-364,-1736,23,293,-920,-59,2:23:20
274,-126,-334,-381,-1780,16,267,-922,-66,2:23:20
286,-148,-333,-375,-1801,14,267,-955,-60,2:23:20
277,-126,-333,-383,-1820,-1,232,-955,-60,2:23:20
276,-130,-330,-377,-1857,-26,246,-951,-49,2:23:20
282,-135,-309,-380,-1857,-32,283,-945,-22,2:23:20
282,-135,-309,-380,-1857,-32,283,-935,-55,2:23:20
262,-123,-319,-388,-1890,-38,298,-924,-107,2:23:20
226,-132,-288,-366,-1859,-44,322,-948,-98,2:23:20
226,-132,-288,-324,-1852,-30,332,-966,-66,2:23:20
261,-124,-289,-284,-1764,-2,322,-947,-30,2:23:20
255,-126,-288,-279,-1736,0,312,-919,22,2:23:20
238,-129,-274,-264,-1705,-17,318,-951,8,2:23:20
238,-129,-274,-267,-1645,14,280,-975,-5,2:23:20
247,-147,-252,-291,-1618,15,269,-976,-10,2:23:20
268,-114,-237,-309,-1601,21,276,-962,-34,2:23:20
243,-141,-250,-330,-1579,10,298,-933,-54,2:23:20
268,-135,-247,-345,-1539,-4,341,-939,-66,2:23:20
265,-141,-255,-359,-1475,-7,348,-930,-51,2:23:20
256,-133,-225,-379,-1420,-18,356,-908,-29,2:23:20
258,-144,-237,-390,-1383,-30,380,-902,-8,2:23:20
258,-144,-237,-388,-1376,-33,401,-897,-24,2:23:20
232,-132,-201,-380,-1369,-37,401,-897,-24,2:23:20
232,-132,-201,-373,-1338,-39,413,-895,-37,2:23:20
252,-141,-201,-367,-1311,-44,409,-899,-38,2:23:20
270,-147,-225,-357,-1294,-53,398,-901,-36,2:23:20
267,-141,-204,-357,-1294,-53,397,-906,-30,2:23:20
267,-141,-204,-340,-1286,-60,395,-908,-29,2:23:20
261,-124,-198,-326,-1274,-70,379,-904,-46,2:23:20
280,-142,-192,-294,-1245,-77,346,-908,-65,2:23:20
265,-126,-174,-272,-1227,-81,337,-911,-39,2:23:20
246,-136,-174,-254,-1179,-103,357,-899,-9,2:23:20
280,-139,-187,-236,-1166,-100,365,-908,-2,2:23:20
273,-154,-168,-234,-1148,-99,355,-919,-30,2:23:20
273,-154,-168,-239,-1134,-99,354,-905,-47,2:23:20
261,-144,-177,-238,-1103,-93,374,-910,-20,2:23:20
255,-150,-127,-249,-1073,-98,388,-929,-1,2:23:20
255,-150,-127,-270,-1039,-109,395,-939,-6,2:23:20
262,-135,-162,-289,-982,-108,392,-947,-29,2:23:20
282,-141,-154,-282,-941,-102,385,-952,-35,2:23:20
283,-147,-159,-291,-933,-102,386,-964,-18,2:23:20
283,-147,-159,-303,-919,-98,386,-981,-7,2:23:20
291,-151,-153,-305,-879,-91,386,-981,-7,2:23:20
285,-147,-144,-296,-814,-94,373,-986,0,2:23:20
264,-138,-147,-298,-788,-100,345,-973,17,2:23:20
297,-136,-145,-297,-780,-102,330,-960,15,2:23:20
298,-153,-130,-297,-780,-102,310,-947,16,2:23:20
301,-157,-132,-301,-759,-112,276,-929,39,2:23:20
301,-157,-132,-298,-740,-129,260,-922,55,2:23:20
297,-145,-129,-284,-735,-144,256,-923,54,2:23:20
301,-153,-118,-262,-717,-172,284,-920,29,2:23:20
313,-141,-121,-252,-707,-182,321,-910,8,2:23:20
310,-157,-124,-249,-683,-188,359,-908,-12,2:23:20
324,-151,-133,-240,-660,-185,386,-913,-30,2:23:20
297,-153,-141,-222,-634,-172,398,-916,-52,2:23:20
297,-153,-141,-210,-603,-154,387,-926,-70,2:23:20
298,-160,-120,-196,-558,-126,370,-950,-82,2:23:20
312,-160,-120,-194,-536,-92,330,-986,-67,2:23:20
328,-166,-112,-197,-476,-60,297,-1024,-64,2:23:20
324,-148,-132,-210,-413,-35,266,-1052,-60,2:23:20
327,-148,-132,-222,-385,-15,266,-1052,-60,2:23:20
321,-163,-105,-235,-375,-8,184,-1057,-9,2:23:20
321,-163,-105,-247,-338,-14,86,-1051,51,2:23:20
319,-145,-91,-256,-308,-25,27,-1047,101,2:23:20
319,-145,-91,-264,-289,-42,15,-1042,130,2:23:20
319,-175,-115,-264,-289,-42,37,-1038,133,2:23:20
321,-177,-121,-268,-283,-53,85,-1029,111,2:23:20
339,-171,-121,-273,-297,-61,109,-1018,101,2:23:20
334,-168,-115,-300,-310,-63,129,-1014,83,2:23:20
334,-168,-115,-345,-323,-65,131,-1001,76,2:23:20
322,-177,-127,-365,-296,-57,94,-988,121,2:23:20
312,-160,-117,-385,-333,-59,80,-981,144,2:23:20
325,-165,-114,-390,-358,-54,89,-976,139,2:23:20
328,-163,-129,-380,-410,-46,79,-973,142,2:23:20
330,-174,-138,-366,-474,-24,51,-974,151,2:23:20
319,-172,-112,-358,-532,6,40,-979,154,2:23:20
319,-172,-112,-352,-569,38,31,-980,152,2:23:20
337,-174,-94,-344,-600,60,23,-986,148,2:23:20
337,-174,-94,-352,-602,66,24,-987,146,2:23:20
330,-171,-124,-368,-573,49,34,-991,144,2:23:20
348,-172,-127,-394,-527,18,34,-991,144,2:23:20
343,-174,-115,-412,-479,-9,56,-994,150,2:23:20
333,-183,-129,-424,-429,-31,90,-995,172,2:23:20
333,-183,-129,-419,-400,-51,120,-988,186,2:23:20
337,-184,-111,-413,-373,-70,133,-962,191,2:23:20
337,-184,-111,-413,-373,-70,136,-938,197,2:23:20
327,-178,-126,-391,-359,-88,135,-911,195,2:23:20
345,-184,-117,-364,-360,-112,117,-883,206,2:23:20
354,-177,-124,-333,-373,-136,105,-865,213,2:23:20
345,-190,-130,-291,-396,-162,88,-849,211,2:23:20
345,-190,-130,-258,-427,-186,64,-842,210,2:23:20
357,-192,-117,-240,-455,-214,55,-839,197,2:23:20
339,-198,-111,-215,-476,-241,61,-847,182,2:23:20
354,-168,-127,-189,-469,-259,68,-867,178,2:23:20
349,-190,-115,-163,-446,-275,73,-882,176,2:23:20
357,-180,-123,-136,-399,-280,79,-892,169,2:23:20
375,-186,-135,-103,-353,-284,73,-890,174,2:23:20
375,-186,-135,-63,-322,-294,75,-890,184,2:23:20
355,-190,-96,-15,-319,-298,82,-902,204,2:23:20
355,-190,-96,14,-322,-309,105,-909,218,2:23:20
367,-207,-124,41,-325,-303,105,-909,218,2:23:21
381,-208,-123,78,-340,-287,132,-926,226,2:23:21
364,-202,-123,111,-331,-284,120,-933,220,2:23:21
382,-195,-123,147,-308,-278,111,-931,194,2:23:21
382,-195,-123,147,-308,-278,119,-935,190,2:23:21
378,-196,-114,172,-312,-269,122,-945,196,2:23:21
381,-205,-118,187,-327,-247,111,-955,205,2:23:21
393,-192,-100,191,-356,-218,87,-970,215,2:23:21
390,-196,-97,193,-378,-198,62,-987,214,2:23:21
385,-180,-114,216,-404,-176,51,-987,210,2:23:21
397,-193,-103,248,-428,-148,53,-986,222,2:23:21
397,-193,-103,279,-452,-121,78,-987,238,2:23:21
393,-184,-87,297,-455,-106,155,-995,229,2:23:21
393,-184,-87,340,-501,-47,212,-1009,210,2:23:21
396,-210,-90,381,-569,4,225,-1003,191,2:23:21
402,-186,-87,407,-595,33,236,-992,169,2:23:21
411,-187,-85,425,-588,55,243,-985,150,2:23:21
409,-178,-72,440,-569,56,229,-977,126,2:23:21
409,-178,-72,417,-534,41,205,-968,116,2:23:21
393,-196,-70,375,-520,23,205,-968,116,2:23:21
406,-168,-63,342,-504,-10,177,-943,119,2:23:21
396,-192,-76,294,-448,-63,129,-916,114,2:23:21
421,-199,-66,230,-361,-102,88,-922,107,2:23:21
393,-186,-52,211,-262,-135,47,-925,94,2:23:21
399,-195,-84,211,-262,-135,21,-926,71,2:23:21
399,-195,-84,188,-170,-171,22,-944,79,2:23:21
411,-190,-48,171,-105,-195,30,-956,109,2:23:21
411,-190,-48,177,-51,-203,48,-964,120,2:23:21
409,-199,-64,203,-9,-198,81,-972,128,2:23:21
402,-183,-57,249,-25,-179,110,-968,116,2:23:21
420,-163,-72,303,-49,-144,140,-967,87,2:23:21
409,-172,-51,333,-109,-114,173,-982,67,2:23:21
409,-172,-51,350,-174,-93,185,-994,35,2:23:21
418,-174,-64,357,-212,-77,203,-1015,21,2:23:21
420,-177,-58,342,-216,-51,224,-1042,30,2:23:21
423,-192,-52,318,-183,-18,236,-1069,41,2:23:21
406,-181,-30,286,-109,16,223,-1088,84,2:23:21
412,-180,-36,239,-45,42,186,-1090,121,2:23:21
415,-190,-27,179,-3,52,155,-1080,125,2:23:21
415,-190,-27,151,42,60,141,-1062,117,2:23:21
405,-177,-34,137,59,62,141,-1062,117,2:23:21
405,-177,-34,119,70,45,128,-1034,94,2:23:21
429,-178,-40,86,68,19,103,-994,69,2:23:21
430,-189,-43,53,56,-2,91,-953,63,2:23:21
408,-184,-43,53,56,-2,103,-927,57,2:23:21
426,-160,-33,29,45,-17,114,-911,37,2:23:21
426,-160,-33,26,49,-26,113,-903,8,2:23:21
412,-190,-33,44,60,-27,113,-896,-23,2:23:21
420,-183,-48,72,101,-28,119,-892,-49,2:23:21
432,-187,-40,99,133,-17,136,-894,-60,2:23:21
405,-177,-31,108,171,-7,153,-897,-49,2:23:21
402,-177,-28,101,193,4,149,-919,-25,2:23:21
412,-189,-42,91,208,17,122,-949,-5,2:23:21
412,-189,-42,87,227,20,82,-967,11,2:23:21
411,-160,-16,87,228,16,55,-981,31,2:23:21
406,-166,-25,87,200,11,53,-993,44,2:23:21
412,-169,-43,77,150,11,60,-1004,41,2:23:21
411,-160,-34,63,100,20,62,-1014,34,2:23:21
409,-187,-31,51,56,30,62,-1014,34,2:23:21
403,-171,-33,37,32,32,69,-1022,25,2:23:21
403,-171,-33,23,25,34,78,-1036,16,2:23:21
400,-162,-37,23,30,37,85,-1048,15,2:23:21
400,-162,-37,27,16,48,96,-1042,24,2:23:21
405,-168,-46,26,7,60,111,-1032,23,2:23:21
417,-165,-34,26,7,60,123,-1018,11,2:23:21
409,-190,-33,23,11,74,126,-1002,-2,2:23:21
402,-195,-51,24,25,81,125,-989,-14,2:23:21
402,-195,-51,21,39,83,127,-964,-20,2:23:21
387,-180,-25,25,60,74,128,-942,-22,2:23:21
421,-165,-22,31,77,60,130,-936,-24,2:23:21
417,-169,-39,43,104,48,133,-942,-28,2:23:21
411,-178,-33,54,129,39,133,-956,-28,2:23:21
400,-172,-42,71,151,35,132,-961,-33,2:23:21
399,-189,-42,90,155,32,132,-958,-30,2:23:21
399,-189,-42,97,133,34,128,-960,-21,2:23:21
406,-153,-28,98,113,36,122,-961,-17,2:23:21
384,-181,-39,95,98,35,115,-961,-14,2:23:21
384,-181,-39,94,81,32,113,-963,-12,2:23:21
397,-166,-37,85,60,28,115,-968,-11,2:23:21
394,-175,-40,71,49,25,115,-968,-11,2:23:21
399,-169,-28,60,51,25,119,-976,-12,2:23:21
399,-169,-28,56,56,23,121,-983,-11,2:23:21
388,-169,-18,56,42,24,122,-987,-3,2:23:21
388,-177,-30,56,42,24,130,-991,5,2:23:21
397,-184,-30,56,7,28,136,-993,0,2:23:21
402,-171,-52,54,-25,35,134,-997,-8,2:23:21
408,-166,-40,51,-46,39,135,-1003,-8,2:23:21
394,-174,-49,51,-58,38,146,-1005,-13,2:23:21
409,-157,-51,43,-72,34,159,-997,-30,2:23:21
409,-157,-51,33,-75,30,162,-990,-42,2:23:21
402,-175,-34,24,-54,23,161,-988,-46,2:23:21
402,-175,-34,18,-48,19,162,-983,-44,2:23:21
384,-156,-27,11,-39,16,166,-981,-36,2:23:21
403,-165,-31,9,-34,16,174,-983,-31,2:23:21
394,-154,-34,11,-37,18,181,-981,-29,2:23:21
394,-154,-34,14,-48,21,188,-978,-35,2:23:21
391,-172,-27,21,-57,25,187,-974,-45,2:23:21
406,-154,-34,28,-58,26,178,-971,-50,2:23:21
406,-174,-27,28,-56,22,175,-968,-46,2:23:21
394,-156,-25,25,-55,15,175,-968,-46,2:23:21
402,-160,-37,18,-54,11,174,-966,-41,2:23:21
391,-156,-10,14,-44,5,173,-966,-37,2:23:21
402,-154,-28,14,-44,5,175,-968,-41,2:23:21
402,-154,-28,13,-32,3,179,-972,-42,2:23:21
397,-145,-30,11,-28,4,181,-970,-40,2:23:21
397,-145,-30,9,-26,7,178,-971,-40,2:23:21
397,-172,-37,9,-23,9,176,-977,-39,2:23:22
399,-165,-24,7,-19,9,174,-978,-43,2:23:22
411,-165,-45,9,-13,7,166,-975,-46,2:23:22
411,-165,-45,7,-10,2,154,-967,-40,2:23:22
391,-162,-36,3,-14,-3,151,-965,-35,2:23:22
399,-165,-21,0,-16,-9,152,-972,-36,2:23:22
384,-153,-39,-2,-21,-11,158,-978,-37,2:23:22
381,-159,-30,-2,-27,-10,172,-979,-41,2:23:22
418,-175,-51,-1,-28,-4,176,-978,-49,2:23:22
394,-172,-31,0,-18,-2,163,-975,-48,2:23:22
409,-169,-46,0,-7,-4,153,-975,-34,2:23:22
409,-169,-46,-2,-5,-4,153,-980,-22,2:23:22
381,-172,-12,-9,-11,-4,153,-980,-22,2:23:22
381,-172,-12,-12,-21,-3,154,-985,-20,2:23:22
406,-165,-22,-14,-30,-2,157,-988,-22,2:23:22
379,-163,-45,-13,-34,-2,157,-982,-27,2:23:22
414,-168,-37,-13,-34,-2,151,-973,-28,2:23:22
414,-168,-37,-13,-30,-4,146,-971,-26,2:23:22
390,-145,-24,-12,-27,-5,148,-975,-32,2:23:22
391,-153,-30,-12,-25,-6,151,-975,-34,2:23:22
381,-144,-25,-10,-26,-5,157,-968,-31,2:23:22
396,-169,-25,-7,-25,-4,161,-961,-31,2:23:22
400,-165,-46,-8,-29,-4,158,-963,-35,2:23:22
403,-162,-21,-7,-25,-4,155,-972,-36,2:23:22
391,-168,-21,-5,-19,-5,154,-975,-33,2:23:22
391,-168,-21,-4,-21,-7,155,-973,-25,2:23:22
396,-168,-13,-4,-26,-9,152,-971,-25,2:23:22
396,-168,-13,-5,-32,-11,148,-972,-28,2:23:22
390,-160,-45,-6,-28,-13,144,-975,-32,2:23:22
397,-159,-19,-8,-15,-16,144,-979,-35,2:23:22
400,-145,-28,-8,-9,-18,149,-981,-31,2:23:22
396,-163,-34,-11,-14,-18,150,-979,-28,2:23:22
396,-163,-34,-13,-21,-16,150,-979,-28,2:23:22
379,-174,0,-12,-18,-15,148,-974,-29,2:23:22
379,-174,0,-13,-21,-15,145,-975,-32,2:23:22
405,-175,-34,-14,-23,-16,142,-979,-34,2:23:22
397,-171,-43,-16,-23,-16,143,-977,-37,2:23:22
414,-163,-40,-16,-23,-16,140,-975,-37,2:23:22
414,-163,-40,-16,-19,-17,144,-968,-32,2:23:22
399,-163,-28,-17,-18,-17,148,-966,-31,2:23:22
400,-156,-24,-19,-16,-16,146,-975,-32,2:23:22
396,-174,-36,-22,-17,-14,147,-973,-33,2:23:22
393,-160,-49,-25,-21,-11,147,-969,-35,2:23:22
390,-159,-21,-26,-20,-10,143,-971,-36,2:23:22
394,-177,-55,-24,-14,-9,140,-974,-33,2:23:22
394,-177,-55,-23,-10,-10,143,-972,-31,2:23:22
399,-168,-39,-24,-11,-10,145,-971,-31,2:23:22
400,-163,-9,-25,-13,-9,145,-971,-33,2:23:22
400,-163,-9,-25,-8,-11,145,-971,-35,2:23:22
405,-169,-24,-23,-7,-11,146,-971,-33,2:23:22
411,-171,-25,-21,-4,-14,146,-970,-31,2:23:22
411,-177,-45,-20,0,-14,146,-970,-31,2:23:22
394,-190,-37,-19,4,-15,146,-970,-32,2:23:22
394,-190,-37,-18,5,-14,146,-973,-31,2:23:22
403,-171,-22,-20,3,-14,143,-975,-29,2:23:22
405,-160,-31,-21,4,-14,141,-976,-27,2:23:22
391,-165,-24,-21,4,-14,141,-977,-25,2:23:22
406,-169,-27,-21,6,-14,139,-978,-26,2:23:22
405,-163,-34,-22,4,-15,137,-976,-25,2:23:22
405,-163,-34,-24,8,-16,136,-973,-23,2:23:22
409,-172,-34,-28,11,-19,137,-973,-22,2:23:22
375,-166,-24,-30,14,-20,138,-975,-20,2:23:22
375,-166,-24,-29,14,-20,139,-978,-16,2:23:22
421,-162,-27,-28,12,-18,138,-978,-16,2:23:22
396,-178,-21,-28,11,-18,141,-976,-18,2:23:22
402,-172,-28,-30,12,-18,144,-974,-20,2:23:22
402,-172,-28,-30,16,-17,140,-975,-21,2:23:22
420,-174,-39,-30,22,-17,137,-973,-18,2:23:22
388,-171,-42,-26,33,-18,136,-974,-12,2:23:22
391,-156,-39,-27,27,-15,137,-977,-10,2:23:22
397,-169,-39,-28,23,-14,135,-975,-11,2:23:22
403,-171,-33,-26,22,-13,135,-973,-11,2:23:22
399,-168,-39,-27,25,-14,130,-973,-11,2:23:22
393,-175,-48,-28,28,-16,132,-972,-12,2:23:22
393,-175,-48,-28,28,-16,138,-972,-11,2:23:22
394,-172,-34,-28,26,-16,136,-971,-9,2:23:22
394,-172,-34,-28,26,-16,132,-972,-8,2:23:22
399,-183,-34,-25,25,-18,134,-975,-8,2:23:22
412,-174,-34,-23,25,-18,133,-978,-5,2:23:22
412,-178,-46,-23,28,-18,133,-978,-4,2:23:22
412,-178,-46,-21,25,-18,135,-979,-6,2:23:22
396,-175,-43,-18,25,-16,137,-983,-7,2:23:22
402,-171,-40,-16,36,-17,135,-982,-3,2:23:22
388,-175,-22,-14,30,-16,131,-979,-1,2:23:22
399,-169,-60,-14,27,-16,131,-978,-3,2:23:22
396,-166,-30,-14,28,-16,130,-980,-1,2:23:22
402,-157,-37,-14,29,-17,126,-980,0,2:23:22
402,-157,-37,-15,28,-18,125,-976,0,2:23:22
393,-157,-40,-18,27,-18,127,-973,0,2:23:22
400,-166,-30,-21,21,-14,131,-975,-1,2:23:22
402,-174,-39,-20,21,-13,131,-975,-1,2:23:22
403,-180,-54,-18,17,-11,129,-978,0,2:23:22
408,-162,-42,-21,13,-11,126,-976,0,2:23:22
384,-174,-34,-23,11,-11,126,-975,0,2:23:22
384,-174,-34,-23,11,-11,130,-975,1,2:23:22
384,-174,-34,-21,13,-13,130,-975,1,2:23:22
390,-171,-31,-20,11,-14,129,-978,2,2:23:22
385,-174,-28,-20,10,-13,131,-981,3,2:23:22
400,-172,-37,-22,7,-14,133,-978,1,2:23:22
376,-166,-39,-21,3,-14,133,-974,-1,2:23:22
402,-174,-54,-21,6,-14,132,-975,0,2:23:22
402,-174,-54,-21,8,-14,133,-978,0,2:23:22
387,-169,-51,-20,9,-14,132,-977,3,2:23:22
387,-166,-33,-19,11,-14,128,-976,14,2:23:22
402,-163,-42,-21,6,-14,129,-976,17,2:23:22
391,-169,-52,-23,0,-13,131,-974,15,2:23:22
399,-166,-45,-25,-4,-12,132,-974,16,2:23:23
406,-165,-36,-21,-4,-13,134,-974,14,2:23:23
406,-165,-36,-16,-7,-13,133,-971,15,2:23:23
406,-171,-46,-14,-9,-13,132,-973,17,2:23:23
382,-184,-25,-14,-5,-13,133,-977,15,2:23:23
382,-184,-25,-12,-4,-12,133,-977,15,2:23:23
393,-174,-34,-11,-7,-11,132,-975,18,2:23:23
409,-159,-55,-11,-6,-9,137,-973,16,2:23:23
391,-180,-52,-11,-6,-9,140,-974,13,2:23:23
403,-175,-54,-11,-5,-9,140,-973,10,2:23:23
403,-175,-54,-11,-6,-9,140,-971,6,2:23:23
376,-165,-18,-12,6,-11,138,-970,8,2:23:23
402,-186,-49,-11,10,-11,139,-970,13,2:23:23
412,-174,-55,-11,9,-14,143,-971,21,2:23:23
393,-154,-24,-15,4,-13,144,-971,23,2:23:23
408,-169,-60,-16,0,-12,141,-975,21,2:23:23
408,-169,-60,-16,-2,-12,140,-982,20,2:23:23
376,-168,-43,-14,-1,-11,139,-985,20,2:23:23
378,-159,-28,-13,1,-11,136,-982,19,2:23:23
378,-159,-28,-12,4,-11,132,-980,19,2:23:23
405,-183,-33,-16,4,-11,128,-979,22,2:23:23
391,-148,-46,-18,1,-11,126,-979,25,2:23:23
403,-147,-28,-21,-6,-12,126,-977,25,2:23:23
399,-162,-45,-23,-4,-11,127,-977,23,2:23:23
399,-162,-45,-23,0,-11,125,-975,16,2:23:23
393,-181,-30,-21,7,-12,126,-973,17,2:23:23
397,-156,-54,-20,4,-11,128,-970,21,2:23:23
405,-165,-57,-21,0,-10,133,-970,23,2:23:23
409,-178,-49,-21,0,-10,136,-972,21,2:23:23
432,-171,-58,-21,0,-9,135,-974,16,2:23:23
432,-171,-58,-19,4,-9,133,-974,15,2:23:23
403,-174,-43,-17,3,-9,136,-976,18,2:23:23
394,-174,-42,-15,3,-10,137,-974,21,2:23:23
394,-174,-42,-16,1,-11,134,-971,19,2:23:23
411,-163,-43,-16,-1,-11,130,-973,16,2:23:23
409,-169,-51,-14,0,-12,130,-976,19,2:23:23
391,-180,-37,-12,3,-14,133,-977,23,2:23:23
406,-175,-61,-11,0,-13,134,-975,22,2:23:23
406,-175,-61,-12,-1,-12,134,-973,20,2:23:23
396,-180,-48,-9,-6,-11,131,-973,22,2:23:23
405,-172,-48,-7,0,-12,130,-976,26,2:23:23
411,-181,-51,-4,0,-12,134,-978,28,2:23:23
408,-171,-57,-4,-2,-11,134,-978,28,2:23:23
400,-174,-39,-4,0,-9,135,-978,25,2:23:23
400,-174,-39,-3,7,-10,132,-973,24,2:23:23
387,-174,-43,-2,11,-10,130,-972,26,2:23:23
394,-178,-34,0,14,-10,132,-976,28,2:23:23
394,-178,-34,0,9,-8,133,-979,26,2:23:23
411,-180,-49,0,9,-8,135,-979,24,2:23:23
415,-190,-36,0,11,-8,134,-977,26,2:23:23
397,-151,-45,3,11,-7,132,-978,29,2:23:23
397,-151,-45,2,7,-5,131,-979,29,2:23:23
409,-177,-49,-1,5,-5,128,-977,29,2:23:23
394,-160,-33,-2,2,-3,129,-975,28,2:23:23
394,-172,-42,-9,6,-4,129,-974,23,2:23:23
397,-175,-49,-10,8,-3,128,-974,22,2:23:23
409,-181,-46,-10,11,-2,131,-978,28,2:23:23
406,-157,-54,-10,17,-2,134,-981,31,2:23:23
405,-166,-58,-9,22,0,134,-981,32,2:23:23
405,-166,-58,-5,24,-2,133,-976,28,2:23:23
408,-168,-36,-4,18,-4,134,-973,21,2:23:23
408,-168,-36,-4,21,-8,137,-971,15,2:23:23
403,-178,-36,-2,23,-11,137,-967,12,2:23:23
391,-166,-61,0,24,-12,137,-967,12,2:23:23
403,-198,-60,2,28,-14,137,-967,11,2:23:23
403,-198,-60,4,30,-14,141,-965,9,2:23:23
379,-171,-46,5,33,-13,141,-965,11,2:23:23
399,-171,-45,5,33,-13,137,-968,13,2:23:23
399,-171,-45,7,35,-12,135,-971,17,2:23:23
393,-181,-42,7,34,-9,133,-975,20,2:23:23
393,-150,-36,8,32,-9,128,-977,20,2:23:23
393,-174,-42,9,32,-9,122,-979,23,2:23:23
406,-168,-37,9,30,-11,119,-981,27,2:23:23
406,-168,-37,9,30,-12,119,-981,25,2:23:23
399,-181,-34,9,30,-12,122,-976,24,2:23:23
391,-171,-40,4,26,-12,127,-976,23,2:23:23
396,-168,-48,2,25,-11,130,-977,21,2:23:23
408,-153,-46,2,28,-10,133,-977,23,2:23:23
415,-162,-58,2,29,-9,136,-979,24,2:23:23
391,-180,-40,4,31,-8,135,-977,19,2:23:23
391,-180,-40,7,32,-7,129,-976,19,2:23:23
391,-181,-64,7,39,-9,124,-976,20,2:23:23
397,-168,-61,8,43,-11,123,-977,18,2:23:23
387,-168,-42,8,39,-11,123,-977,18,2:23:23
411,-154,-30,8,34,-10,121,-976,23,2:23:23
402,-184,-45,7,30,-9,120,-974,25,2:23:23
402,-184,-45,7,30,-9,120,-973,23,2:23:23
406,-189,-54,6,27,-11,118,-971,21,2:23:23
409,-166,-42,6,25,-11,118,-973,18,2:23:23
393,-174,-42,6,21,-11,119,-975,15,2:23:23
388,-180,-60,5,23,-10,118,-976,16,2:23:23
408,-190,-48,4,28,-10,114,-978,20,2:23:23
405,-171,-52,3,30,-10,114,-976,24,2:23:23
381,-159,-63,1,25,-11,116,-978,25,2:23:23
381,-159,-63,0,16,-8,117,-981,22,2:23:23
402,-168,-34,0,12,-7,117,-981,22,2:23:23
402,-168,-34,1,11,-7,115,-984,23,2:23:23
414,-162,-69,0,7,-9,116,-983,22,2:23:23
406,-154,-48,0,4,-9,118,-979,20,2:23:23
409,-171,-49,-2,4,-9,119,-978,17,2:23:23
409,-171,-49,-2,7,-11,119,-978,18,2:23:23
400,-180,-70,-2,11,-11,121,-977,19,2:23:23
382,-172,-42,0,0,-11,121,-973,21,2:23:23
376,-162,-58,-2,-3,-10,122,-973,23,2:23:23
402,-181,-58,-2,-10,-8,122,-976,22,2:23:23
379,-186,-64,-2,-10,-8,124,-978,20,2:23:24
379,-186,-64,-2,-13,-8,123,-978,20,2:23:24
382,-166,-39,-1,-9,-10,123,-979,19,2:23:24
406,-153,-52,-3,-11,-11,124,-980,19,2:23:24
400,-177,-43,-2,-13,-11,126,-981,19,2:23:24
400,-177,-43,-5,-10,-12,126,-980,22,2:23:24
414,-178,-60,-5,-10,-11,125,-977,25,2:23:24
381,-175,-49,-7,-11,-11,127,-975,25,2:23:24
381,-175,-49,-6,-11,-9,130,-973,26,2:23:24
402,-163,-36,-6,-14,-9,132,-975,28,2:23:24
390,-178,-49,-3,-13,-9,133,-975,28,2:23:24
382,-181,-48,-2,-18,-9,133,-975,28,2:23:24
397,-163,-52,-2,-13,-9,134,-975,26,2:23:24
390,-174,-51,-2,-9,-10,135,-972,23,2:23:24
405,-172,-52,0,-5,-10,134,-974,22,2:23:24
405,-172,-52,2,0,-11,134,-974,22,2:23:24
390,-171,-57,4,3,-14,131,-977,23,2:23:24
408,-178,-63,2,2,-14,129,-978,27,2:23:24
403,-168,-36,2,-3,-13,130,-975,28,2:23:24
403,-168,-36,0,-5,-13,129,-972,24,2:23:24
390,-169,-40,0,-5,-13,129,-971,25,2:23:24
397,-175,-46,0,-4,-12,130,-974,24,2:23:24
397,-175,-46,0,-2,-13,128,-977,23,2:23:24
405,-183,-37,-1,-4,-11,128,-976,27,2:23:24
390,-177,-51,-2,-8,-11,126,-978,28,2:23:24
391,-169,-57,-2,-11,-11,124,-980,27,2:23:24
387,-174,-39,-3,-8,-11,121,-980,30,2:23:24
399,-189,-49,-2,-4,-11,120,-982,29,2:23:24
409,-184,-42,-2,-5,-11,123,-983,28,2:23:24
409,-184,-42,-2,-11,-10,127,-979,29,2:23:24
388,-180,-48,-3,-14,-11,129,-975,26,2:23:24
396,-177,-64,-4,-14,-10,131,-974,22,2:23:24
394,-174,-46,-3,-7,-11,132,-974,23,2:23:24
390,-166,-61,-3,-7,-10,132,-974,23,2:23:24
406,-177,-57,-4,-9,-9,132,-974,23,2:23:24
403,-180,-43,-5,-4,-11,132,-974,20,2:23:24
403,-180,-43,-4,-2,-11,131,-974,21,2:23:24
417,-183,-57,-4,-1,-12,130,-976,25,2:23:24
393,-187,-49,-4,0,-12,129,-978,28,2:23:24
396,-174,-67,-4,0,-12,128,-980,30,2:23:24
400,-168,-57,-3,-1,-12,128,-980,31,2:23:24
397,-180,-48,-3,-3,-12,127,-977,29,2:23:24
405,-195,-46,-1,-2,-12,125,-975,28,2:23:24
405,-195,-46,-2,-3,-11,124,-976,26,2:23:24
406,-186,-58,-3,-4,-10,126,-976,24,2:23:24
399,-177,-60,-3,-2,-9,125,-977,25,2:23:24
396,-166,-25,0,11,-9,123,-977,26,2:23:24
390,-169,-42,-2,6,-8,125,-974,25,2:23:24
391,-178,-58,-3,3,-5,126,-977,25,2:23:24
402,-184,-61,-4,5,-4,126,-979,28,2:23:24
402,-184,-61,-4,4,-3,127,-979,28,2:23:24
406,-175,-37,-4,7,-4,126,-980,25,2:23:24
381,-175,-67,-5,6,-4,122,-978,22,2:23:24
379,-177,-30,-5,11,-6,118,-978,23,2:23:24
379,-177,-30,-5,9,-7,118,-980,26,2:23:24
411,-174,-37,-2,9,-9,118,-980,26,2:23:24
394,-195,-64,0,5,-11,118,-981,27,2:23:24
394,-195,-64,-2,7,-10,117,-978,28,2:23:24
391,-186,-39,-2,6,-11,117,-974,26,2:23:24
385,-183,-58,-2,6,-11,117,-975,25,2:23:24
388,-177,-40,0,9,-11,119,-974,26,2:23:24
393,-171,-64,2,9,-11,121,-975,25,2:23:24
408,-154,-60,3,9,-12,122,-976,25,2:23:24
378,-180,-42,4,7,-12,121,-973,24,2:23:24
378,-180,-42,5,2,-13,118,-974,22,2:23:24
387,-159,-58,6,3,-13,115,-975,23,2:23:24
405,-174,-46,4,2,-11,116,-972,26,2:23:24
379,-180,-46,3,-2,-10,116,-974,31,2:23:24
379,-180,-46,5,1,-11,117,-979,31,2:23:24
400,-162,-40,5,2,-11,118,-980,29,2:23:24
390,-169,-39,5,2,-10,117,-981,30,2:23:24
390,-169,-39,2,4,-11,117,-979,30,2:23:24
373,-189,-40,0,4,-11,118,-979,27,2:23:24
394,-172,-31,-2,3,-10,120,-982,27,2:23:24
390,-178,-60,-4,-2,-8,119,-983,30,2:23:24
387,-156,-46,-4,-2,-7,119,-983,30,2:23:24
399,-183,-66,-4,-3,-7,119,-978,30,2:23:24
403,-178,-51,-3,-4,-6,121,-977,31,2:23:24
403,-178,-51,-3,-4,-6,120,-980,32,2:23:24
412,-184,-57,-3,-4,-7,122,-979,30,2:23:24
406,-178,-43,-4,-2,-7,122,-978,30,2:23:24
387,-171,-40,-4,-2,-9,120,-980,30,2:23:24
387,-171,-40,-4,-4,-8,117,-979,29,2:23:24
400,-172,-54,-4,-5,-9,113,-978,26,2:23:24
399,-195,-48,-1,-5,-9,115,-979,25,2:23:24
399,-195,-48,0,-6,-8,117,-978,27,2:23:24
406,-178,-45,1,-7,-7,118,-975,29,2:23:24
396,-168,-52,0,-11,-7,120,-972,30,2:23:24
414,-175,-60,4,-4,-8,124,-973,27,2:23:24
385,-183,-49,2,-7,-7,127,-977,24,2:23:24
384,-181,-54,0,-10,-6,128,-978,24,2:23:24
390,-181,-54,0,-9,-4,126,-977,25,2:23:24
390,-181,-54,-1,-7,-7,122,-981,27,2:23:24
391,-189,-43,-2,-4,-8,119,-982,31,2:23:24
421,-165,-63,-2,-4,-9,119,-982,31,2:23:24
393,-175,-60,-4,-16,-10,119,-982,33,2:23:24
400,-181,-49,-4,-16,-11,119,-981,34,2:23:24
391,-160,-60,-4,-13,-11,121,-976,32,2:23:24
388,-166,-58,-4,-13,-11,123,-973,27,2:23:24
388,-166,-58,-4,-8,-11,126,-973,24,2:23:24
405,-178,-42,0,-2,-9,129,-976,27,2:23:24
409,-189,-45,0,1,-7,127,-977,31,2:23:24
388,-175,-60,1,0,-7,128,-977,34,2:23:24
399,-177,-54,0,-2,-6,130,-977,32,2:23:24
388,-174,-60,-2,-2,-7,125,-976,30,2:23:24
394,-169,-57,-3,-5,-6,121,-976,31,2:23:24
394,-169,-57,-2,-5,-7,122,-978,32,2:23:24
393,-184,-39,-2,-4,-7,124,-978,30,2:23:25
396,-187,-45,-1,-3,-8,125,-975,30,2:23:25
382,-181,-30,0,-3,-8,128,-973,29,2:23:25
402,-180,-49,-1,-1,-8,129,-974,27,2:23:25
396,-165,-37,-2,2,-9,128,-975,26,2:23:25
405,-186,-58,-3,2,-9,128,-975,29,2:23:25
405,-186,-58,-5,0,-7,128,-977,30,2:23:25
411,-184,-52,-8,-1,-8,128,-977,30,2:23:25
406,-160,-48,-8,-2,-7,125,-978,31,2:23:25
379,-172,-34,-4,-6,-9,121,-979,34,2:23:25
399,-183,-60,-4,-6,-9,121,-981,34,2:23:25
412,-174,-66,-6,-7,-7,125,-981,30,2:23:25
399,-186,-40,-6,-8,-7,125,-980,29,2:23:25
399,-186,-40,-6,-8,-6,123,-978,33,2:23:25
400,-171,-51,-7,-9,-6,122,-976,36,2:23:25
394,-172,-37,-9,-9,-7,121,-976,39,2:23:25
391,-168,-46,-9,-10,-7,121,-976,38,2:23:25
397,-181,-66,-7,-7,-8,120,-978,36,2:23:25
393,-168,-54,-6,-7,-8,121,-980,35,2:23:25
403,-169,-63,-6,-7,-9,121,-976,36,2:23:25
403,-169,-63,-4,-7,-9,124,-973,38,2:23:25
402,-181,-55,-3,-5,-8,128,-974,36,2:23:25
397,-195,-40,-2,-9,-7,127,-973,35,2:23:25
397,-195,-40,-3,-7,-7,126,-973,37,2:23:25
397,-177,-42,-4,-4,-7,126,-975,36,2:23:25
396,-169,-52,-4,-5,-8,126,-976,32,2:23:25
402,-160,-55,-4,-4,-8,127,-976,32,2:23:25
408,-181,-54,-6,-4,-8,126,-977,32,2:23:25
408,-181,-54,-4,1,-9,123,-978,36,2:23:25
381,-178,-43,-1,1,-9,121,-981,38,2:23:25
397,-165,-51,-1,1,-9,119,-982,39,2:23:25
403,-172,-57,0,0,-9,120,-980,39,2:23:25
397,-169,-55,-3,-4,-9,120,-977,38,2:23:25
397,-189,-64,-4,-6,-10,120,-976,36,2:23:25
397,-189,-64,-4,-9,-10,119,-975,33,2:23:25
406,-181,-54,-6,-10,-9,122,-974,34,2:23:25
388,-180,-52,0,-12,-9,121,-974,31,2:23:25
385,-160,-45,-2,-9,-7,119,-974,34,2:23:25
411,-169,-42,-2,-4,-8,122,-974,36,2:23:25
400,-174,-58,-2,-5,-8,125,-976,38,2:23:25
411,-166,-55,-3,-7,-7,124,-976,39,2:23:25
411,-166,-55,-3,-9,-6,123,-976,38,2:23:25
394,-171,-63,-2,-7,-7,121,-978,33,2:23:25
396,-177,-63,-3,-4,-8,121,-981,32,2:23:25
402,-181,-52,-4,-1,-9,121,-981,32,2:23:25
394,-162,-61,-4,-4,-10,121,-982,37,2:23:25
397,-171,-51,-2,-6,-9,120,-981,38,2:23:25
382,-168,-58,-3,-9,-9,118,-978,36,2:23:25
382,-168,-58,-3,-9,-9,114,-976,35,2:23:25
402,-157,-48,-4,-5,-9,112,-976,34,2:23:25
402,-157,-48,-2,-4,-8,114,-976,35,2:23:25
381,-169,-39,-2,-2,-8,116,-975,37,2:23:25
403,-175,-58,-1,-8,-5,118,-974,37,2:23:25
400,-172,-46,-1,-13,-4,119,-973,36,2:23:25
393,-177,-66,0,-11,-5,119,-974,37,2:23:25
393,-177,-66,0,-8,-6,119,-978,38,2:23:25
385,-169,-52,1,-1,-8,122,-983,39,2:23:25
399,-162,-46,2,-4,-9,126,-982,42,2:23:25
396,-163,-52,1,-5,-8,133,-979,41,2:23:25
382,-178,-40,-2,-4,-8,134,-978,37,2:23:25
405,-175,-49,-2,-2,-7,129,-979,37,2:23:25
405,-175,-60,-2,-1,-7,126,-980,39,2:23:25
405,-175,-60,-4,0,-7,125,-979,37,2:23:25
