magX[mG],magY[mG],magZ[mG],gyroX[mdps],gyroY[mdps],gyroZ[mdps],accX[mg],accY[mg],accZ[mg],hh:mm:ss.ms
612,-193,-403,-10,-36,0,101,-979,9,1:06:55
612,-193,-403,-10,-36,0,101,-979,9,1:06:55
612,-193,-403,-10,-36,0,101,-979,9,1:06:55
612,-193,-403,-10,-36,0,101,-979,9,1:06:55
612,-193,-403,-10,-37,0,101,-979,9,1:06:55
624,-196,-421,-10,-39,1,102,-979,6,1:06:55
613,-159,-427,-9,-38,2,104,-978,1,1:06:56
615,-168,-400,-7,-35,2,109,-977,1,1:06:56
619,-183,-417,-4,-32,0,110,-975,2,1:06:56
607,-183,-408,-5,-28,-2,111,-973,3,1:06:56
607,-183,-408,-7,-25,-4,115,-972,5,1:06:56
607,-162,-424,-8,-25,-3,115,-974,2,1:06:56
606,-178,-421,-6,-23,-4,114,-978,-1,1:06:56
601,-181,-424,-6,-18,-4,115,-981,1,1:06:56
609,-180,-403,-4,-15,-3,113,-983,4,1:06:56
609,-180,-403,-4,-15,-2,113,-983,4,1:06:56
604,-175,-411,-3,-15,-1,110,-984,5,1:06:56
604,-175,-411,-2,-18,0,107,-981,10,1:06:56
592,-168,-391,-2,-24,1,106,-977,10,1:06:56
606,-174,-415,-5,-22,2,108,-974,8,1:06:56
613,-177,-427,-5,-22,2,111,-976,6,1:06:56
610,-171,-411,-5,-21,2,114,-979,3,1:06:56
627,-178,-411,-6,-11,1,116,-979,2,1:06:56
624,-187,-402,-5,-1,0,115,-979,1,1:06:56
624,-187,-402,-4,4,-1,116,-976,3,1:06:56
612,-172,-390,-3,5,-1,112,-977,5,1:06:56
622,-166,-421,-5,4,0,108,-979,7,1:06:56
624,-181,-420,-7,0,0,109,-980,10,1:06:56
606,-187,-421,-6,-5,2,109,-982,12,1:06:56
591,-165,-412,-4,-7,5,107,-982,14,1:06:56
616,-181,-411,-5,-6,6,108,-981,15,1:06:56
616,-181,-411,-4,-10,8,108,-980,11,1:06:56
586,-178,-409,-2,-12,9,107,-979,5,1:06:56
588,-157,-414,-1,-13,9,107,-980,3,1:06:56
601,-171,-417,-2,-12,9,108,-981,1,1:06:56
628,-156,-411,-6,-14,7,108,-981,1,1:06:56
618,-174,-414,-9,-7,4,107,-982,1,1:06:56
597,-172,-406,-10,-4,3,106,-981,4,1:06:56
597,-172,-406,-10,-4,3,108,-978,4,1:06:56
604,-163,-421,-9,-3,1,109,-977,7,1:06:56
609,-172,-429,-9,-3,1,111,-977,8,1:06:56
606,-184,-400,-10,0,0,114,-974,7,1:06:56
601,-175,-411,-10,-2,1,118,-972,6,1:06:56
600,-166,-406,-10,-2,2,119,-973,2,1:06:56
595,-183,-420,-10,0,3,120,-977,6,1:06:56
595,-183,-420,-11,2,4,120,-978,7,1:06:56
607,-177,-423,-10,4,5,119,-978,6,1:06:56
616,-169,-412,-9,4,6,118,-980,10,1:06:56
621,-163,-400,-10,0,6,115,-981,14,1:06:56
606,-172,-397,-12,-4,6,113,-980,16,1:06:56
621,-177,-402,-15,-5,7,114,-980,18,1:06:56
610,-177,-396,-16,-8,7,116,-980,16,1:06:56
610,-177,-396,-15,-11,8,117,-978,14,1:06:56
607,-177,-420,-15,-8,7,118,-980,14,1:06:56
613,-180,-411,-13,-5,7,124,-980,14,1:06:56
609,-181,-406,-11,-4,6,124,-980,14,1:06:56
589,-190,-417,-9,-10,7,129,-979,11,1:06:56
615,-166,-405,-9,-3,6,128,-979,11,1:06:56
615,-166,-405,-9,-3,6,127,-981,11,1:06:56
622,-166,-426,-8,-1,4,128,-980,10,1:06:56
601,-183,-421,-9,0,4,128,-976,14,1:06:56
600,-177,-418,-13,0,2,125,-975,17,1:06:56
613,-180,-414,-16,0,2,121,-976,14,1:06:56
601,-171,-405,-18,2,2,122,-979,16,1:06:56
601,-171,-405,-15,2,0,124,-983,17,1:06:56
600,-174,-403,-14,-1,1,128,-981,17,1:06:56
606,-163,-421,-10,-5,3,134,-980,14,1:06:56
600,-163,-418,-9,-6,6,137,-976,11,1:06:56
604,-168,-411,-7,-3,7,134,-971,14,1:06:56
595,-175,-405,-7,-1,7,134,-971,13,1:06:56
595,-175,-405,-7,0,6,132,-973,11,1:06:56
594,-184,-396,-4,5,4,125,-976,17,1:06:56
612,-168,-433,-2,2,3,124,-979,17,1:06:56
615,-186,-432,-1,1,2,124,-979,17,1:06:56
598,-169,-405,0,-1,2,126,-977,16,1:06:56
619,-169,-415,-1,-2,2,126,-976,14,1:06:56
619,-169,-415,-2,0,2,127,-976,11,1:06:56
610,-169,-415,-2,1,2,127,-977,12,1:06:56
597,-171,-409,-2,1,2,124,-978,15,1:06:56
612,-193,-424,-2,3,2,127,-979,15,1:06:56
618,-166,-414,-4,1,3,126,-980,15,1:06:56
601,-168,-420,-6,0,3,123,-979,15,1:06:56
601,-168,-420,-6,-2,2,123,-980,16,1:06:56
606,-183,-417,-5,-1,2,124,-980,14,1:06:56
615,-168,-424,-4,-2,0,124,-978,13,1:06:56
600,-169,-415,-7,-14,0,120,-975,11,1:06:56
597,-166,-423,-5,-8,-2,120,-974,11,1:06:56
606,-171,-426,-5,-7,-3,122,-974,11,1:06:56
606,-171,-426,-4,-5,-4,124,-974,9,1:06:56
609,-160,-433,-2,-5,-3,126,-977,10,1:06:56
601,-174,-420,-2,-3,-2,128,-977,13,1:06:56
609,-165,-424,-2,-1,-1,130,-979,15,1:06:56
612,-156,-414,-2,0,0,127,-976,11,1:06:56
592,-189,-408,-2,0,0,127,-976,11,1:06:56
621,-189,-423,0,4,2,127,-974,2,1:06:56
621,-189,-423,5,11,4,125,-977,0,1:06:56
606,-180,-405,9,26,0,116,-981,5,1:06:56
604,-175,-423,11,30,-2,109,-985,15,1:06:56
612,-172,-421,11,30,-2,106,-984,24,1:06:56
591,-186,-411,6,22,-3,101,-978,21,1:06:56
609,-181,-426,-1,17,-4,94,-968,17,1:06:56
609,-181,-426,-11,19,-7,92,-959,24,1:06:56
606,-166,-417,-20,17,-7,99,-957,26,1:06:56
621,-178,-432,-28,18,-1,107,-957,26,1:06:56
624,-165,-427,-31,25,4,116,-959,33,1:06:56
609,-169,-418,-30,30,11,128,-961,40,1:06:56
616,-175,-403,-30,20,20,138,-964,44,1:06:56
616,-175,-403,-23,23,25,141,-971,50,1:06:56
603,-160,-412,-18,21,28,142,-973,54,1:06:56
604,-162,-409,-14,17,29,143,-973,52,1:06:56
615,-174,-418,-12,21,29,144,-974,50,1:06:56
610,-157,-423,-6,30,28,146,-974,48,1:06:56
597,-192,-421,0,41,25,143,-974,47,1:06:57
597,-192,-421,7,44,23,143,-974,47,1:06:57
616,-192,-405,11,53,21,139,-971,50,1:06:57
607,-189,-417,11,58,16,132,-970,52,1:06:57
603,-160,-423,9,58,16,123,-974,52,1:06:57
598,-193,-414,9,58,16,116,-977,47,1:06:57
606,-165,-415,9,60,15,112,-976,49,1:06:57
606,-165,-415,11,49,18,108,-975,59,1:06:57
582,-175,-393,15,37,21,106,-974,61,1:06:57
582,-175,-393,16,28,24,108,-978,58,1:06:57
612,-181,-409,18,24,25,104,-981,59,1:06:57
625,-163,-403,20,23,25,104,-977,58,1:06:57
610,-174,-388,21,22,28,110,-974,56,1:06:57
610,-174,-388,21,17,30,113,-972,54,1:06:57
610,-174,-421,24,9,33,113,-971,48,1:06:57
616,-175,-417,30,9,33,115,-970,45,1:06:57
607,-165,-421,32,-2,33,114,-968,44,1:06:57
609,-171,-424,31,-7,33,113,-971,41,1:06:57
603,-190,-429,28,-7,33,115,-973,43,1:06:57
624,-166,-427,29,-3,32,116,-972,47,1:06:57
624,-166,-427,33,-6,32,122,-972,49,1:06:57
592,-174,-418,41,-14,36,122,-972,49,1:06:57
600,-175,-402,43,-14,38,123,-974,49,1:06:57
600,-175,-402,46,-22,39,118,-974,50,1:06:57
603,-169,-397,47,-25,42,117,-972,44,1:06:57
595,-168,-409,47,-25,42,117,-973,43,1:06:57
603,-175,-415,46,-21,43,114,-974,51,1:06:57
603,-175,-415,43,-19,46,113,-970,52,1:06:57
606,-187,-424,42,-25,48,108,-962,48,1:06:57
588,-159,-400,46,-41,49,103,-956,43,1:06:57
603,-187,-396,48,-51,47,105,-955,42,1:06:57
601,-180,-417,49,-56,48,107,-959,48,1:06:57
615,-169,-417,48,-63,50,110,-965,57,1:06:57
606,-198,-411,49,-75,54,113,-966,61,1:06:57
606,-198,-411,52,-93,58,115,-961,57,1:06:57
604,-159,-408,60,-113,63,118,-956,52,1:06:57
592,-183,-393,72,-131,68,118,-957,44,1:06:57
592,-183,-393,76,-140,72,120,-960,31,1:06:57
586,-184,-408,77,-138,74,132,-964,24,1:06:57
606,-168,-402,79,-142,73,132,-964,24,1:06:57
594,-184,-406,81,-156,70,142,-961,20,1:06:57
594,-184,-406,83,-176,67,141,-959,23,1:06:57
600,-178,-426,75,-185,63,142,-963,26,1:06:57
595,-172,-409,64,-199,60,144,-966,27,1:06:57
594,-178,-405,59,-219,63,153,-971,35,1:06:57
594,-192,-420,59,-219,63,178,-978,30,1:06:57
604,-208,-423,54,-242,63,191,-980,23,1:06:57
604,-208,-423,53,-261,64,196,-982,27,1:06:57
591,-186,-412,54,-282,68,207,-988,34,1:06:57
585,-177,-397,48,-292,67,213,-995,43,1:06:57
567,-192,-420,35,-304,63,222,-1008,34,1:06:57
592,-171,-394,27,-296,60,233,-1018,20,1:06:57
585,-180,-399,21,-280,50,241,-1019,23,1:06:57
580,-192,-426,18,-252,39,243,-1009,21,1:06:57
580,-192,-426,12,-232,28,236,-986,17,1:06:57
582,-175,-424,9,-224,20,226,-972,19,1:06:57
588,-183,-424,2,-230,11,217,-973,18,1:06:57
565,-174,-399,-5,-249,11,209,-984,15,1:06:57
565,-174,-399,-7,-259,14,203,-999,7,1:06:57
583,-184,-415,0,-249,19,203,-999,7,1:06:57
573,-160,-403,6,-237,19,201,-1010,-2,1:06:57
573,-160,-403,14,-233,22,200,-1003,-9,1:06:57
558,-169,-415,17,-235,16,198,-991,-8,1:06:57
571,-177,-406,9,-257,18,199,-959,-18,1:06:57
561,-174,-403,9,-257,18,205,-948,-14,1:06:57
565,-175,-399,-5,-278,13,211,-964,1,1:06:57
589,-186,-394,-5,-291,8,212,-960,-1,1:06:57
583,-186,-418,-4,-301,0,223,-958,-8,1:06:57
583,-186,-418,-8,-291,-5,234,-953,-15,1:06:57
591,-192,-423,0,-272,-11,231,-947,-20,1:06:57
588,-195,-403,8,-254,-16,231,-944,-22,1:06:57
549,-180,-394,18,-242,-14,229,-949,-7,1:06:57
549,-180,-394,20,-252,-9,221,-942,5,1:06:57
570,-195,-399,18,-262,-7,214,-937,2,1:06:57
559,-175,-412,16,-246,-18,217,-923,-12,1:06:57
559,-175,-412,18,-253,-12,219,-925,-6,1:06:57
558,-193,-411,18,-262,-10,223,-949,16,1:06:57
543,-189,-409,-3,-257,-22,234,-959,14,1:06:57
576,-199,-423,6,-247,-9,237,-940,10,1:06:57
555,-177,-423,7,-252,-2,237,-940,10,1:06:57
573,-193,-408,10,-255,-2,238,-941,-4,1:06:57
573,-193,-408,15,-250,-3,237,-956,-3,1:06:57
553,-168,-405,21,-242,-9,228,-967,12,1:06:57
552,-178,-420,21,-242,-9,222,-957,19,1:06:57
550,-201,-402,30,-231,-20,219,-948,17,1:06:57
550,-201,-402,34,-217,-32,218,-948,37,1:06:57
552,-195,-405,32,-211,-44,223,-948,58,1:06:57
556,-174,-424,35,-214,-51,236,-950,50,1:06:57
556,-174,-424,45,-221,-55,246,-942,27,1:06:57
547,-189,-402,48,-219,-58,249,-932,15,1:06:57
559,-186,-424,55,-219,-61,252,-937,13,1:06:57
553,-199,-418,68,-223,-62,249,-948,9,1:06:57
559,-208,-414,72,-212,-63,241,-958,11,1:06:57
568,-189,-414,69,-202,-63,231,-961,18,1:06:57
538,-204,-427,72,-193,-67,225,-964,27,1:06:57
538,-204,-427,75,-201,-72,222,-965,40,1:06:57
549,-190,-408,76,-214,-74,218,-957,42,1:06:57
553,-165,-412,81,-242,-80,208,-943,35,1:06:57
537,-189,-391,87,-259,-90,199,-932,24,1:06:57
547,-166,-409,85,-259,-102,199,-932,24,1:06:57
546,-199,-418,86,-260,-113,205,-930,7,1:06:57
564,-180,-397,95,-244,-126,212,-928,-3,1:06:57
564,-180,-397,95,-244,-126,212,-932,0,1:06:57
565,-198,-421,102,-226,-136,218,-945,18,1:06:57
543,-198,-409,105,-219,-144,218,-955,40,1:06:57
558,-192,-402,107,-228,-149,212,-959,49,1:06:57
531,-189,-408,109,-241,-152,210,-951,45,1:06:58
564,-189,-394,109,-254,-156,207,-937,45,1:06:58
555,-199,-394,105,-271,-164,211,-932,44,1:06:58
555,-199,-394,104,-279,-167,221,-921,35,1:06:58
556,-196,-406,109,-282,-170,230,-915,37,1:06:58
556,-193,-406,113,-275,-177,239,-921,45,1:06:58
547,-198,-399,113,-266,-184,246,-923,52,1:06:58
546,-201,-405,117,-254,-196,252,-924,60,1:06:58
540,-195,-417,114,-241,-214,255,-928,67,1:06:58
540,-195,-417,106,-228,-232,257,-939,66,1:06:58
538,-192,-411,95,-212,-247,258,-950,71,1:06:58
547,-195,-418,81,-184,-266,259,-968,81,1:06:58
556,-207,-402,56,-172,-267,259,-968,81,1:06:58
564,-202,-405,23,-165,-256,270,-990,58,1:06:58
549,-196,-408,-9,-145,-230,277,-1021,13,1:06:58
547,-207,-406,-52,-130,-187,286,-1070,3,1:06:58
547,-207,-406,-52,-130,-187,305,-1108,7,1:06:58
555,-199,-405,-100,-107,-144,315,-1145,-29,1:06:58
562,-190,-415,-156,-40,-104,315,-1198,-64,1:06:58
562,-211,-420,-223,35,-69,298,-1229,-56,1:06:58
538,-193,-403,-305,92,-27,262,-1242,-31,1:06:58
550,-199,-414,-391,128,16,196,-1251,-5,1:06:58
556,-192,-417,-497,161,74,106,-1247,20,1:06:58
556,-192,-417,-606,203,123,29,-1220,29,1:06:58
559,-189,-414,-707,266,157,-19,-1165,48,1:06:58
556,-183,-426,-793,333,156,-53,-1079,80,1:06:58
562,-199,-441,-913,317,158,-28,-1013,57,1:06:58
546,-184,-439,-989,336,133,18,-1039,77,1:06:58
546,-184,-445,-1110,291,160,48,-1059,93,1:06:58
549,-184,-453,-1157,241,172,82,-1026,40,1:06:58
549,-184,-453,-1136,181,178,108,-1023,30,1:06:58
546,-168,-454,-1129,107,206,119,-1099,92,1:06:58
561,-171,-468,-1204,4,243,119,-1099,92,1:06:58
534,-153,-486,-1190,-109,254,78,-1132,112,1:06:58
528,-154,-481,-1131,-214,248,46,-1083,56,1:06:58
537,-148,-490,-1074,-219,296,66,-1092,48,1:06:58
550,-145,-486,-1074,-219,296,72,-1110,36,1:06:58
550,-145,-486,-1053,-134,320,75,-1114,7,1:06:58
562,-133,-489,-1046,5,341,118,-1096,-5,1:06:58
552,-138,-508,-996,154,368,141,-1025,-20,1:06:58
520,-127,-513,-896,247,381,119,-941,5,1:06:58
531,-123,-495,-867,350,357,156,-935,55,1:06:58
549,-111,-513,-849,451,399,220,-1007,84,1:06:58
549,-111,-513,-851,555,410,207,-1056,142,1:06:58
541,-114,-532,-857,574,381,162,-1052,197,1:06:58
543,-109,-522,-823,604,351,159,-1012,208,1:06:58
529,-105,-529,-754,644,340,141,-971,223,1:06:58
529,-102,-532,-662,657,352,148,-956,231,1:06:58
543,-91,-559,-606,648,364,149,-966,242,1:06:58
543,-91,-559,-600,616,326,66,-947,267,1:06:58
546,-91,-528,-574,602,289,64,-916,229,1:06:58
559,-97,-538,-524,689,305,46,-912,206,1:06:58
562,-84,-547,-499,733,283,46,-912,206,1:06:58
562,-78,-537,-461,802,268,36,-887,177,1:06:58
570,-82,-549,-422,878,237,25,-844,167,1:06:58
571,-73,-546,-408,955,207,-5,-821,213,1:06:58
571,-73,-546,-408,955,207,14,-816,225,1:06:58
559,-51,-552,-377,958,175,22,-814,239,1:06:58
573,-69,-541,-341,909,147,39,-811,269,1:06:58
573,-76,-564,-295,786,123,36,-802,309,1:06:58
579,-85,-549,-224,646,118,36,-788,344,1:06:58
582,-78,-564,-155,485,87,47,-789,361,1:06:58
582,-78,-564,-81,372,92,56,-785,357,1:06:58
570,-82,-550,-14,322,106,55,-758,350,1:06:58
568,-81,-567,50,352,139,107,-751,319,1:06:58
603,-85,-531,107,324,117,110,-731,315,1:06:58
612,-73,-555,155,311,95,53,-693,337,1:06:58
594,-81,-571,193,305,75,55,-682,343,1:06:58
594,-81,-571,228,298,53,62,-673,346,1:06:58
574,-87,-543,273,308,34,33,-663,379,1:06:58
574,-87,-543,331,243,7,36,-659,380,1:06:58
601,-84,-555,386,176,-10,36,-659,380,1:06:58
603,-97,-535,441,110,-18,72,-665,364,1:06:58
594,-88,-562,508,61,-23,79,-678,393,1:06:58
594,-88,-562,569,-15,-28,69,-697,437,1:06:58
612,-96,-534,569,-15,-28,79,-719,470,1:06:58
567,-81,-532,606,-51,-31,116,-746,479,1:06:58
567,-81,-532,612,-58,-25,138,-781,499,1:06:58
580,-102,-541,597,-32,-16,138,-810,531,1:06:58
601,-102,-522,573,-48,9,150,-821,528,1:06:58
592,-94,-523,546,-68,38,186,-852,499,1:06:58
592,-94,-523,527,-74,58,199,-888,480,1:06:58
606,-90,-540,499,-56,72,211,-912,471,1:06:58
606,-90,-540,457,-3,81,233,-951,481,1:06:58
586,-105,-519,415,70,86,232,-988,514,1:06:58
598,-132,-507,367,71,106,236,-1007,515,1:06:58
592,-132,-516,316,116,115,244,-1013,503,1:06:58
597,-129,-532,307,114,140,253,-1002,500,1:06:58
597,-129,-532,340,149,161,245,-975,505,1:06:58
609,-117,-519,375,170,182,233,-938,547,1:06:58
603,-139,-504,364,206,192,217,-896,601,1:06:58
603,-139,-504,329,183,189,217,-896,601,1:06:58
585,-132,-523,301,121,168,196,-837,644,1:06:58
582,-132,-523,273,70,120,144,-832,576,1:06:58
594,-148,-514,248,-21,71,66,-927,426,1:06:58
594,-148,-514,248,-21,71,12,-1080,266,1:06:58
597,-150,-514,239,-111,16,-54,-1245,137,1:06:58
573,-115,-489,298,-237,-11,-96,-1392,52,1:06:58
594,-124,-498,321,-249,-42,-77,-1510,76,1:06:58
595,-126,-505,208,-107,-61,5,-1521,240,1:06:58
580,-121,-505,25,54,-72,88,-1385,415,1:06:58
579,-142,-534,-135,56,-58,116,-1130,497,1:06:58
579,-142,-534,-200,-153,-48,87,-854,417,1:06:58
604,-124,-511,-130,-480,-51,29,-631,206,1:06:58
580,-126,-502,10,-704,-85,-14,-498,-3,1:06:58
580,-126,-502,111,-660,-147,-22,-480,-124,1:06:58
571,-136,-517,144,-424,-208,34,-584,-140,1:06:59
583,-118,-504,148,-171,-235,170,-782,-89,1:06:59
574,-139,-517,175,-37,-198,328,-952,-36,1:06:59
574,-139,-517,222,-21,-116,427,-1037,-5,1:06:59
582,-136,-504,282,-39,-36,435,-1072,-8,1:06:59
562,-136,-531,346,-141,40,435,-1072,-8,1:06:59
574,-117,-523,385,-196,76,365,-1065,-22,1:06:59
576,-135,-504,412,-170,99,272,-1049,-16,1:06:59
574,-135,-522,412,-170,99,194,-1021,-1,1:06:59
574,-135,-522,411,-105,107,153,-999,37,1:06:59
580,-130,-510,392,-41,114,163,-983,62,1:06:59
576,-141,-496,376,11,112,168,-969,104,1:06:59
559,-159,-513,335,-14,112,148,-966,179,1:06:59
559,-159,-513,321,-65,102,113,-953,206,1:06:59
555,-172,-508,290,-125,81,70,-946,207,1:06:59
570,-157,-502,264,-203,51,65,-925,171,1:06:59
570,-157,-502,238,-226,24,96,-939,121,1:06:59
570,-153,-492,172,-231,-34,131,-1004,76,1:06:59
567,-139,-489,179,-259,21,182,-1012,28,1:06:59
561,-165,-499,224,-277,58,228,-998,-3,1:06:59
568,-169,-504,231,-259,47,264,-976,-39,1:06:59
553,-183,-486,304,-262,98,269,-929,-54,1:06:59
553,-183,-486,341,-257,114,241,-902,-36,1:06:59
547,-160,-498,351,-245,100,234,-868,-15,1:06:59
555,-168,-511,354,-235,78,234,-853,0,1:06:59
556,-160,-492,352,-221,56,230,-853,0,1:06:59
556,-156,-478,351,-188,25,219,-857,5,1:06:59
561,-195,-478,364,-143,3,212,-869,5,1:06:59
561,-166,-484,364,-143,3,200,-881,-2,1:06:59
561,-166,-484,382,-98,-17,188,-890,-4,1:06:59
553,-171,-487,386,-70,-39,189,-902,-6,1:06:59
550,-183,-484,379,-65,-56,190,-931,0,1:06:59
534,-172,-472,368,-44,-64,212,-949,4,1:06:59
555,-177,-480,368,-25,-69,227,-947,-4,1:06:59
561,-192,-459,364,-25,-73,208,-952,-7,1:06:59
547,-180,-490,349,0,-75,205,-957,4,1:06:59
547,-180,-490,335,30,-79,212,-957,21,1:06:59
558,-184,-463,328,39,-80,210,-961,34,1:06:59
562,-190,-475,319,35,-77,210,-965,47,1:06:59
558,-192,-465,301,29,-81,206,-969,56,1:06:59
538,-189,-438,288,21,-84,213,-975,58,1:06:59
556,-186,-472,275,9,-89,221,-972,58,1:06:59
546,-192,-480,260,1,-95,213,-959,57,1:06:59
546,-192,-480,237,3,-103,217,-949,53,1:06:59
544,-205,-465,213,10,-116,217,-949,53,1:06:59
561,-195,-454,210,21,-118,233,-945,44,1:06:59
564,-198,-459,207,29,-126,238,-946,42,1:06:59
540,-195,-441,198,30,-135,230,-947,52,1:06:59
540,-195,-441,200,14,-128,234,-943,51,1:06:59
555,-196,-469,200,14,-128,244,-951,51,1:06:59
555,-196,-469,200,-14,-123,244,-957,55,1:06:59
558,-181,-456,191,-46,-129,251,-941,30,1:06:59
573,-199,-436,212,-67,-126,249,-940,10,1:06:59
555,-214,-463,204,-73,-153,238,-940,4,1:06:59
561,-177,-444,212,-84,-169,222,-944,2,1:06:59
556,-204,-450,221,-75,-179,207,-957,-3,1:06:59
559,-204,-447,222,-60,-198,207,-956,-13,1:06:59
559,-204,-447,229,-54,-206,196,-963,-2,1:06:59
573,-196,-442,224,-52,-208,186,-967,11,1:06:59
550,-192,-448,229,-68,-198,184,-979,19,1:06:59
559,-205,-457,221,-86,-184,171,-995,34,1:06:59
549,-204,-424,206,-99,-176,165,-993,39,1:06:59
556,-190,-441,195,-109,-163,182,-993,36,1:06:59
568,-204,-447,179,-104,-155,213,-986,32,1:06:59
568,-204,-447,168,-84,-151,213,-986,32,1:06:59
568,-190,-451,166,-58,-149,243,-968,22,1:06:59
559,-217,-444,171,-35,-150,267,-955,19,1:06:59
561,-193,-436,180,-10,-156,291,-945,26,1:06:59
574,-214,-430,186,9,-161,308,-941,43,1:06:59
558,-181,-429,186,9,-161,324,-945,64,1:06:59
582,-208,-445,173,11,-162,336,-955,75,1:06:59
582,-208,-445,162,10,-162,349,-975,74,1:06:59
595,-207,-438,137,13,-172,370,-1016,61,1:06:59
555,-214,-430,88,9,-188,390,-1078,22,1:06:59
570,-196,-445,48,23,-185,391,-1135,-35,1:06:59
565,-220,-423,35,76,-163,376,-1179,-51,1:06:59
567,-219,-438,12,121,-130,353,-1197,-10,1:06:59
574,-216,-430,-39,140,-99,300,-1175,25,1:06:59
574,-216,-430,-114,156,-79,243,-1163,40,1:06:59
570,-213,-414,-193,176,-67,202,-1173,63,1:06:59
579,-192,-447,-291,206,-63,174,-1176,81,1:06:59
564,-195,-433,-415,256,-59,175,-1177,72,1:06:59
597,-202,-441,-545,307,-42,175,-1165,38,1:06:59
579,-201,-429,-659,375,-11,192,-1165,38,1:06:59
582,-193,-447,-753,442,17,179,-1119,-2,1:06:59
582,-193,-447,-812,520,25,139,-1053,-18,1:06:59
592,-213,-453,-909,620,12,89,-987,-12,1:06:59
592,-198,-459,-961,670,4,57,-938,-4,1:06:59
573,-171,-471,-961,670,4,71,-902,14,1:06:59
579,-195,-459,-1006,657,7,83,-871,24,1:06:59
604,-186,-477,-1103,660,6,62,-914,46,1:06:59
591,-177,-487,-1169,686,34,64,-912,39,1:06:59
591,-177,-487,-1107,652,64,60,-911,56,1:06:59
618,-184,-498,-1216,618,67,30,-1029,125,1:06:59
597,-162,-504,-1239,569,103,32,-1025,116,1:06:59
598,-160,-486,-1199,490,148,58,-1014,105,1:06:59
592,-156,-492,-1158,401,217,62,-1063,109,1:06:59
592,-156,-492,-1085,299,249,15,-1040,99,1:06:59
616,-141,-508,-1021,234,249,3,-1060,84,1:06:59
616,-141,-508,-979,282,249,42,-1080,44,1:06:59
606,-144,-520,-914,365,227,86,-1057,31,1:06:59
618,-124,-520,-847,427,219,161,-1057,75,1:06:59
604,-121,-514,-804,475,248,233,-1061,113,1:06:59
613,-121,-537,-640,455,383,269,-1044,132,1:06:59
607,-120,-562,-575,450,438,270,-1006,158,1:06:59
607,-120,-562,-518,513,478,229,-967,194,1:06:59
600,-105,-541,-456,575,494,181,-940,223,1:07:00
604,-117,-556,-456,575,494,133,-924,244,1:07:00
622,-118,-550,-380,629,501,100,-921,257,1:07:00
621,-120,-549,-317,655,489,86,-931,254,1:07:00
630,-102,-541,-283,701,487,82,-949,241,1:07:00
630,-102,-541,-257,744,508,86,-955,219,1:07:00
622,-106,-546,-243,781,493,97,-970,212,1:07:00
613,-106,-538,-236,837,508,96,-962,224,1:07:00
628,-106,-531,-211,868,511,90,-926,237,1:07:00
633,-106,-544,-175,891,504,95,-907,261,1:07:00
627,-103,-532,-141,875,479,81,-872,278,1:07:00
627,-103,-532,-125,889,446,64,-826,290,1:07:00
616,-90,-532,-114,828,386,69,-784,286,1:07:00
634,-102,-544,-116,821,312,58,-772,284,1:07:00
649,-87,-541,-127,835,303,106,-791,291,1:07:00
642,-108,-537,-120,829,259,140,-789,290,1:07:00
652,-99,-534,-93,823,252,140,-789,290,1:07:00
652,-99,-534,-51,819,323,120,-784,314,1:07:00
633,-97,-537,24,777,270,88,-750,337,1:07:00
651,-99,-537,107,737,236,75,-729,341,1:07:00
672,-111,-525,165,720,240,127,-759,344,1:07:00
655,-114,-505,165,720,240,132,-749,358,1:07:00
666,-111,-520,213,700,228,149,-756,370,1:07:00
666,-111,-520,238,696,226,178,-775,375,1:07:00
681,-124,-519,256,712,227,167,-771,385,1:07:00
651,-117,-502,284,752,226,162,-774,400,1:07:00
667,-96,-507,325,788,231,174,-771,427,1:07:00
672,-129,-504,380,798,242,186,-769,468,1:07:00
690,-118,-501,460,791,263,211,-784,501,1:07:00
679,-115,-508,539,772,287,236,-806,520,1:07:00
679,-115,-508,592,754,310,247,-818,525,1:07:00
702,-118,-502,602,720,325,257,-818,499,1:07:00
681,-124,-472,599,716,328,266,-824,454,1:07:00
681,-124,-472,592,746,321,261,-834,411,1:07:00
685,-133,-493,585,776,307,250,-850,379,1:07:00
694,-141,-474,576,828,286,250,-850,379,1:07:00
684,-148,-463,564,879,265,244,-865,347,1:07:00
684,-148,-463,573,926,246,250,-866,311,1:07:00
696,-151,-478,576,970,223,228,-869,294,1:07:00
685,-142,-456,591,1005,199,190,-856,271,1:07:00
702,-138,-469,591,1005,199,176,-868,268,1:07:00
721,-145,-459,611,1045,181,136,-915,303,1:07:00
702,-165,-445,611,1094,159,83,-932,327,1:07:00
703,-150,-436,591,1123,172,30,-931,340,1:07:00
703,-150,-436,548,1115,189,-12,-930,346,1:07:00
720,-174,-429,496,1069,203,-46,-924,371,1:07:00
715,-163,-436,442,960,213,-83,-917,364,1:07:00
715,-163,-436,379,840,198,-108,-925,291,1:07:00
714,-150,-414,345,702,157,-139,-924,202,1:07:00
727,-189,-426,376,541,113,-153,-934,123,1:07:00
726,-168,-408,429,431,77,-119,-992,81,1:07:00
726,-168,-408,494,397,48,-55,-1055,79,1:07:00
714,-186,-408,578,416,11,2,-1101,88,1:07:00
738,-180,-385,670,471,-36,61,-1137,91,1:07:00
736,-168,-379,711,618,-100,156,-1178,94,1:07:00
739,-184,-378,673,798,-171,260,-1233,118,1:07:00
715,-171,-376,567,958,-193,260,-1233,118,1:07:00
736,-187,-391,441,1098,-149,352,-1287,153,1:07:00
736,-187,-391,323,1224,-52,445,-1302,176,1:07:00
745,-195,-376,227,1299,58,489,-1244,224,1:07:00
750,-192,-343,227,1299,58,458,-1103,286,1:07:00
750,-192,-343,193,1265,147,374,-912,290,1:07:00
744,-178,-343,218,1152,197,288,-750,223,1:07:00
741,-193,-343,256,1078,200,232,-657,112,1:07:00
741,-190,-331,303,1115,180,200,-628,5,1:07:00
741,-190,-331,382,1255,158,169,-638,-58,1:07:00
751,-204,-327,457,1432,116,183,-705,-71,1:07:00
751,-210,-324,522,1611,105,273,-824,-37,1:07:00
748,-186,-309,567,1722,130,351,-935,13,1:07:00
763,-192,-306,568,1782,167,372,-1024,69,1:07:00
763,-180,-267,536,1803,180,364,-1069,95,1:07:00
741,-189,-279,479,1793,213,332,-1073,85,1:07:00
741,-189,-279,410,1800,204,240,-1051,77,1:07:00
750,-183,-262,352,1795,224,207,-1023,53,1:07:00
745,-204,-237,354,1752,212,186,-987,12,1:07:00
748,-201,-240,405,1726,207,186,-987,12,1:07:00
754,-202,-234,471,1742,134,136,-962,-30,1:07:00
757,-195,-237,500,1752,161,164,-959,-71,1:07:00
757,-195,-237,530,1726,134,149,-927,-64,1:07:00
763,-195,-217,547,1695,168,124,-918,-58,1:07:00
742,-171,-204,547,1695,168,214,-957,-85,1:07:00
748,-198,-201,539,1691,213,230,-965,-84,1:07:00
745,-187,-180,557,1610,172,217,-985,-83,1:07:00
753,-202,-172,576,1568,228,240,-1011,-82,1:07:00
735,-183,-174,577,1562,251,182,-1011,-87,1:07:00
735,-183,-174,583,1565,194,167,-1031,-90,1:07:00
739,-214,-157,560,1601,207,199,-1048,-54,1:07:00
727,-195,-148,527,1659,223,201,-1053,-5,1:07:00
717,-205,-127,514,1647,198,203,-1027,6,1:07:00
720,-201,-138,512,1612,189,216,-991,9,1:07:00
714,-184,-123,496,1617,212,216,-970,17,1:07:00
715,-201,-127,465,1569,231,279,-980,12,1:07:00
715,-201,-127,415,1548,205,274,-991,6,1:07:00
717,-186,-114,384,1485,160,199,-998,-26,1:07:00
688,-198,-106,378,1421,168,253,-1007,-84,1:07:00
697,-201,-64,374,1394,184,253,-1007,-84,1:07:00
697,-201,-64,362,1418,178,261,-999,-119,1:07:00
699,-225,-79,357,1424,158,244,-1002,-113,1:07:00
660,-208,-66,359,1430,175,218,-993,-82,1:07:00
660,-208,-66,359,1430,175,187,-971,-59,1:07:00
661,-198,-57,370,1376,176,259,-977,-53,1:07:00
667,-201,-45,366,1321,158,260,-993,-78,1:07:00
651,-204,-54,347,1302,134,206,-999,-112,1:07:00
645,-198,-61,328,1296,105,194,-1004,-113,1:07:00
643,-190,-40,302,1289,77,192,-995,-93,1:07:00
652,-193,-40,262,1270,49,180,-979,-85,1:07:00
652,-193,-40,226,1241,23,162,-971,-102,1:07:00
664,-193,-48,201,1207,2,152,-975,-113,1:07:01
637,-186,-30,179,1181,-19,144,-976,-106,1:07:01
606,-189,-13,132,1076,-49,119,-978,-50,1:07:01
628,-210,-24,116,1014,-58,124,-977,-65,1:07:01
609,-187,-27,105,967,-70,118,-967,-90,1:07:01
609,-187,-27,113,924,-77,122,-965,-118,1:07:01
624,-204,-22,119,895,-79,128,-968,-130,1:07:01
606,-171,-25,117,881,-88,128,-968,-130,1:07:01
582,-190,-13,95,807,-95,124,-997,-60,1:07:01
595,-187,-18,79,746,-91,146,-1019,-29,1:07:01
603,-189,-9,79,746,-91,145,-1011,-29,1:07:01
603,-189,-9,70,700,-86,165,-1005,-40,1:07:01
600,-192,-13,70,676,-86,187,-1004,-45,1:07:01
606,-184,-16,69,646,-82,192,-994,-44,1:07:01
600,-181,0,71,632,-84,170,-974,-46,1:07:01
571,-186,0,75,628,-97,172,-984,-29,1:07:01
571,-186,0,72,599,-105,168,-975,-19,1:07:01
598,-204,-10,70,540,-105,140,-947,-23,1:07:01
603,-187,-3,72,453,-108,133,-954,6,1:07:01
589,-187,6,67,378,-114,114,-971,28,1:07:01
582,-174,-18,51,312,-125,97,-985,38,1:07:01
568,-192,0,30,247,-143,120,-996,54,1:07:01
568,-192,0,5,202,-165,132,-1000,49,1:07:01
583,-195,-15,-17,158,-184,130,-991,31,1:07:01
594,-184,-10,-37,126,-196,153,-987,25,1:07:01
577,-192,-3,-51,99,-199,153,-987,25,1:07:01
576,-180,-15,-52,80,-200,180,-984,14,1:07:01
579,-178,-12,-45,84,-205,197,-969,-5,1:07:01
579,-178,-12,-35,109,-212,205,-959,-18,1:07:01
580,-204,7,-25,156,-217,223,-964,-29,1:07:01
580,-204,7,-25,156,-217,236,-967,-27,1:07:01
582,-184,-12,-16,207,-217,238,-972,-14,1:07:01
586,-178,-1,-5,241,-215,229,-969,-13,1:07:01
574,-177,-18,10,271,-216,220,-956,-20,1:07:01
574,-177,-18,20,294,-214,212,-954,-11,1:07:01
591,-184,4,37,303,-209,192,-960,-11,1:07:01
580,-175,-22,58,319,-214,154,-964,-10,1:07:01
573,-168,4,72,368,-229,139,-976,9,1:07:01
582,-186,3,79,422,-238,156,-991,45,1:07:01
588,-187,13,72,459,-249,176,-987,71,1:07:01
588,-187,13,53,481,-257,174,-963,62,1:07:01
588,-189,-22,30,478,-266,173,-942,30,1:07:01
573,-178,-3,18,507,-280,182,-938,4,1:07:01
573,-168,18,9,541,-284,176,-941,11,1:07:01
574,-172,-6,1,572,-283,166,-951,27,1:07:01
583,-181,0,-15,604,-284,166,-951,27,1:07:01
586,-202,-1,-36,601,-276,157,-959,48,1:07:01
586,-202,-1,-60,581,-269,150,-954,69,1:07:01
568,-184,-10,-88,592,-270,152,-947,71,1:07:01
574,-181,1,-133,612,-255,153,-930,59,1:07:01
564,-175,13,-133,612,-255,169,-929,56,1:07:01
574,-183,-3,-177,639,-240,194,-946,66,1:07:01
582,-175,12,-220,688,-232,208,-935,61,1:07:01
562,-159,-9,-252,740,-214,215,-928,55,1:07:01
562,-159,-9,-276,802,-200,212,-936,56,1:07:01
558,-172,-9,-306,871,-184,199,-940,46,1:07:01
562,-201,-9,-347,935,-164,169,-941,52,1:07:01
561,-187,6,-406,989,-133,140,-957,68,1:07:01
571,-183,-6,-469,1033,-88,103,-980,76,1:07:01
537,-184,-1,-516,1066,-42,51,-997,101,1:07:01
547,-204,-18,-557,1092,7,11,-1022,119,1:07:01
547,-204,-18,-606,1097,59,-4,-1037,109,1:07:01
544,-198,-27,-644,1083,112,-12,-1049,110,1:07:01
544,-192,-13,-683,1049,163,-31,-1067,119,1:07:01
538,-204,-45,-721,960,219,-31,-1067,119,1:07:01
516,-186,-15,-760,868,258,-54,-1067,114,1:07:01
528,-202,-24,-783,800,308,-56,-1083,114,1:07:01
496,-210,-48,-780,693,355,-62,-1093,133,1:07:01
496,-210,-48,-780,693,355,-74,-1106,158,1:07:01
511,-207,-36,-785,613,411,-78,-1141,160,1:07:01
501,-216,-64,-782,610,438,-76,-1235,208,1:07:01
493,-210,-72,-800,546,534,-7,-1300,181,1:07:01
507,-234,-81,-791,613,595,43,-1270,78,1:07:01
493,-223,-96,-791,707,627,49,-1235,84,1:07:01
469,-223,-81,-800,737,665,97,-1221,147,1:07:01
469,-223,-81,-807,785,774,196,-1231,146,1:07:01
484,-232,-85,-729,857,936,266,-1217,112,1:07:01
463,-222,-82,-604,932,1111,234,-1143,139,1:07:01
435,-220,-99,-490,923,1183,119,-1068,155,1:07:01
435,-220,-99,-416,989,1178,17,-1043,127,1:07:01
415,-225,-108,-389,1117,1139,-22,-1034,137,1:07:01
406,-217,-126,-404,1211,1049,-75,-1017,169,1:07:01
406,-217,-126,-452,1270,934,-89,-999,165,1:07:01
421,-229,-106,-517,1318,806,-77,-958,185,1:07:01
399,-211,-123,-509,1342,711,-27,-930,256,1:07:01
387,-225,-121,-462,1389,677,-27,-930,256,1:07:01
369,-216,-148,-424,1284,580,22,-920,324,1:07:01
379,-223,-133,-397,1147,539,-4,-891,336,1:07:01
379,-223,-133,-397,1147,539,-18,-888,351,1:07:01
382,-208,-148,-382,1034,485,-15,-881,353,1:07:01
366,-210,-175,-349,906,441,-42,-851,322,1:07:01
370,-217,-159,-348,812,298,-108,-798,320,1:07:01
354,-201,-169,-323,742,189,-103,-798,335,1:07:01
373,-213,-178,-283,678,99,-104,-751,306,1:07:01
358,-207,-187,-220,615,25,-140,-669,264,1:07:01
358,-207,-187,-149,564,-29,-139,-653,270,1:07:01
373,-210,-189,-70,502,-77,-122,-648,284,1:07:01
366,-208,-193,1,449,-63,-108,-615,276,1:07:01
345,-214,-187,92,409,-114,-80,-611,297,1:07:01
354,-237,-177,210,392,-146,-30,-647,336,1:07:01
351,-213,-178,346,352,-127,-4,-617,344,1:07:01
379,-231,-177,489,306,-136,40,-617,366,1:07:01
379,-231,-177,600,263,-122,99,-663,401,1:07:01
369,-234,-195,676,232,-81,140,-696,427,1:07:01
366,-225,-175,715,184,-18,140,-696,427,1:07:02
354,-214,-186,716,130,53,168,-725,464,1:07:02
357,-195,-156,675,-39,193,184,-781,541,1:07:02
343,-220,-153,675,-39,193,169,-785,575,1:07:02
343,-220,-153,664,-116,228,144,-792,619,1:07:02
354,-216,-156,594,-187,255,139,-829,658,1:07:02
358,-205,-145,490,-212,250,132,-869,673,1:07:02
358,-198,-148,364,-196,233,122,-915,654,1:07:02
348,-184,-145,287,-141,197,136,-973,596,1:07:02
334,-217,-139,206,27,152,178,-1028,396,1:07:02
334,-217,-139,189,168,145,142,-981,377,1:07:02
343,-198,-136,179,254,149,101,-873,429,1:07:02
352,-193,-118,152,290,143,55,-744,519,1:07:02
327,-201,-171,139,318,119,13,-616,529,1:07:02
340,-190,-154,183,308,95,-24,-553,475,1:07:02
340,-190,-154,238,154,114,-65,-610,404,1:07:02
346,-204,-142,282,-130,163,-62,-815,328,1:07:02
346,-204,-142,281,-389,178,-24,-1182,259,1:07:02
351,-183,-138,240,-547,141,-24,-1182,259,1:07:02
339,-193,-135,67,-462,111,63,-1687,192,1:07:02
348,-169,-132,-140,-229,135,268,-1981,159,1:07:02
348,-169,-132,-140,-229,135,465,-1998,191,1:07:02
343,-183,-124,-55,-309,287,478,-1694,251,1:07:02
357,-192,-139,-55,-309,287,266,-1071,184,1:07:02
334,-171,-132,198,-698,262,-21,-592,0,1:07:02
342,-178,-135,338,-885,141,-160,-414,-81,1:07:02
333,-183,-123,270,-732,2,-126,-425,-1,1:07:02
334,-196,-121,125,-492,-102,0,-495,89,1:07:02
334,-196,-121,86,-436,-162,176,-606,58,1:07:02
346,-198,-126,201,-508,-167,362,-782,-73,1:07:02
325,-171,-109,336,-562,-138,476,-968,-183,1:07:02
325,-171,-109,434,-500,-108,480,-1085,-212,1:07:02
357,-177,-102,452,-344,-81,449,-1116,-164,1:07:02
349,-171,-93,448,-187,-42,402,-1055,-96,1:07:02
358,-168,-112,420,-73,-7,361,-1010,-30,1:07:02
358,-168,-112,401,-53,46,321,-993,40,1:07:02
342,-189,-93,424,-93,100,228,-929,91,1:07:02
360,-159,-108,421,-138,119,228,-929,91,1:07:02
342,-181,-93,416,-278,144,146,-887,167,1:07:02
342,-178,-87,379,-457,130,49,-882,247,1:07:02
351,-174,-93,340,-643,77,-49,-875,271,1:07:02
355,-181,-97,340,-643,77,-48,-879,233,1:07:02
355,-181,-97,336,-780,51,44,-918,165,1:07:02
331,-187,-90,322,-842,27,164,-938,74,1:07:02
354,-162,-60,302,-795,-7,265,-941,-13,1:07:02
373,-166,-60,284,-679,-8,329,-942,-57,1:07:02
357,-175,-64,261,-505,-33,371,-930,-69,1:07:02
372,-166,-72,304,-410,16,384,-912,-80,1:07:02
378,-171,-63,331,-337,52,376,-891,-53,1:07:02
378,-171,-63,325,-239,42,362,-889,-22,1:07:02
343,-174,-64,279,-104,-23,314,-883,-30,1:07:02
351,-159,-43,330,-85,16,280,-885,-34,1:07:02
351,-159,-43,333,-63,29,270,-897,3,1:07:02
366,-168,-67,303,-61,11,257,-903,53,1:07:02
375,-166,-58,243,2,-79,266,-943,74,1:07:02
358,-168,-30,240,-60,-67,238,-928,87,1:07:02
358,-168,-30,255,-130,-44,215,-911,55,1:07:02
352,-133,-51,247,-119,-50,215,-946,21,1:07:02
352,-160,-43,240,-93,-63,241,-942,13,1:07:02
369,-171,-37,185,-27,-131,241,-942,13,1:07:02
345,-159,-67,214,-42,-91,271,-961,3,1:07:02
354,-142,-58,218,-51,-74,254,-957,16,1:07:02
382,-148,-49,218,-51,-74,235,-938,25,1:07:02
382,-148,-49,210,-52,-80,240,-950,17,1:07:02
378,-144,-45,171,-36,-116,234,-948,3,1:07:02
342,-145,-36,164,-51,-112,223,-945,15,1:07:02
342,-145,-36,163,-72,-111,202,-959,56,1:07:02
372,-156,-39,170,-84,-113,209,-945,48,1:07:02
388,-156,-39,196,-104,-106,217,-912,24,1:07:02
352,-159,-31,231,-116,-101,208,-905,12,1:07:02
352,-159,-31,268,-116,-102,199,-883,1,1:07:02
369,-160,-28,298,-130,-109,203,-873,10,1:07:02
378,-159,-40,318,-156,-117,214,-894,17,1:07:02
358,-162,-33,331,-200,-128,230,-922,19,1:07:02
367,-162,-28,341,-233,-129,219,-935,22,1:07:02
369,-153,-37,328,-252,-147,203,-931,25,1:07:02
369,-153,-37,329,-267,-150,231,-943,32,1:07:02
388,-163,-36,262,-233,-196,231,-943,32,1:07:02
391,-151,-39,274,-277,-191,248,-958,22,1:07:02
372,-139,-15,252,-271,-193,242,-966,2,1:07:02
388,-157,-9,236,-259,-211,248,-973,4,1:07:02
390,-153,-9,230,-282,-212,265,-981,21,1:07:02
384,-148,-21,230,-282,-212,277,-978,31,1:07:02
384,-148,-21,249,-336,-179,272,-967,26,1:07:02
400,-159,-7,226,-314,-183,285,-978,6,1:07:02
384,-147,-6,219,-268,-169,314,-987,-9,1:07:02
394,-150,12,209,-186,-165,352,-977,-19,1:07:02
394,-133,-6,207,-125,-149,396,-963,-37,1:07:02
393,-150,-7,207,-66,-136,416,-946,-55,1:07:02
403,-144,-9,211,-35,-117,408,-938,-45,1:07:02
403,-144,-9,220,-29,-95,364,-951,-8,1:07:02
411,-139,3,221,-31,-88,318,-976,31,1:07:02
408,-153,-7,198,-55,-95,294,-1005,66,1:07:02
402,-129,13,167,-91,-111,276,-1023,90,1:07:02
405,-150,-4,123,-119,-139,259,-1030,94,1:07:02
417,-148,-1,81,-158,-162,242,-1017,82,1:07:02
405,-132,-4,58,-184,-195,247,-1002,51,1:07:02
405,-132,-4,34,-198,-217,247,-1002,51,1:07:02
403,-139,6,-6,-186,-226,274,-1015,12,1:07:02
403,-135,0,-42,-170,-208,302,-1048,-10,1:07:02
396,-135,0,-42,-170,-208,331,-1090,-18,1:07:02
396,-135,0,-88,-133,-176,372,-1138,-22,1:07:02
418,-160,-7,-138,-72,-126,411,-1173,-25,1:07:02
396,-145,-12,-213,25,-80,426,-1190,-37,1:07:02
396,-145,-12,-296,144,-49,425,-1218,-46,1:07:02
396,-136,-7,-381,252,-18,400,-1252,-52,1:07:03
417,-147,16,-466,333,16,346,-1274,-63,1:07:03
388,-169,-18,-545,398,63,262,-1267,-56,1:07:03
403,-151,-24,-623,440,105,145,-1243,-19,1:07:03
412,-130,-27,-726,500,116,44,-1221,9,1:07:03
393,-156,-40,-837,548,105,-5,-1157,-8,1:07:03
393,-156,-40,-902,583,81,-21,-1045,-14,1:07:03
406,-162,-45,-1012,567,66,-11,-990,36,1:07:03
393,-169,-52,-1106,562,68,-2,-935,22,1:07:03
378,-175,-51,-1131,559,82,-5,-896,0,1:07:03
378,-175,-51,-1171,503,107,-4,-942,64,1:07:03
376,-172,-73,-1206,368,137,-4,-942,64,1:07:03
378,-174,-75,-1211,222,163,-2,-983,98,1:07:03
378,-174,-75,-1208,90,176,-7,-1025,91,1:07:03
375,-177,-90,-1205,-6,203,-4,-1081,73,1:07:03
366,-186,-87,-1166,-95,228,11,-1127,43,1:07:03
366,-205,-97,-1166,-95,228,18,-1139,-5,1:07:03
372,-174,-96,-1064,-177,242,29,-1124,-39,1:07:03
393,-186,-118,-1088,-58,221,19,-1090,-57,1:07:03
375,-189,-120,-1045,107,171,43,-1045,-93,1:07:03
375,-189,-120,-983,283,133,67,-973,-75,1:07:03
382,-186,-133,-907,428,88,86,-957,6,1:07:03
370,-189,-138,-886,532,84,154,-1013,79,1:07:03
345,-198,-139,-885,676,98,202,-1015,166,1:07:03
357,-205,-154,-833,665,133,208,-986,197,1:07:03
366,-192,-172,-777,616,182,165,-947,226,1:07:03
366,-192,-172,-730,529,219,102,-910,249,1:07:03
361,-187,-168,-663,450,240,35,-888,244,1:07:03
363,-216,-184,-569,382,251,-12,-886,230,1:07:03
340,-199,-184,-409,436,275,-37,-885,196,1:07:03
357,-187,-198,-374,534,281,-32,-888,171,1:07:03
351,-199,-192,-342,642,280,-13,-896,177,1:07:03
351,-199,-192,-317,672,249,-28,-892,197,1:07:03
345,-187,-199,-291,658,221,-35,-880,228,1:07:03
342,-190,-202,-291,658,221,-26,-863,252,1:07:03
343,-198,-193,-246,604,195,-33,-834,266,1:07:03
331,-184,-193,-204,525,166,-43,-799,273,1:07:03
330,-178,-208,-174,403,111,-48,-762,275,1:07:03
330,-178,-208,-102,315,59,-31,-741,263,1:07:03
342,-166,-241,-43,250,46,37,-770,259,1:07:03
340,-172,-235,-11,207,62,22,-773,300,1:07:03
349,-193,-222,42,181,36,-2,-750,322,1:07:03
324,-195,-225,100,163,23,66,-771,327,1:07:03
339,-186,-237,144,172,16,95,-777,350,1:07:03
339,-186,-237,200,191,2,100,-742,358,1:07:03
325,-190,-217,283,191,-18,95,-704,363,1:07:03
345,-195,-228,392,184,-39,86,-683,359,1:07:03
352,-189,-225,502,180,-60,89,-696,356,1:07:03
342,-184,-225,592,182,-63,103,-737,363,1:07:03
340,-193,-231,648,179,-49,103,-737,363,1:07:03
340,-193,-231,676,169,-15,120,-796,394,1:07:03
324,-199,-201,689,144,34,135,-853,445,1:07:03
340,-175,-208,688,100,86,156,-889,490,1:07:03
340,-178,-223,671,42,127,163,-915,529,1:07:03
348,-174,-223,671,42,127,147,-933,549,1:07:03
336,-184,-180,637,-41,150,146,-940,525,1:07:03
336,-184,-180,572,-103,161,165,-943,490,1:07:03
337,-189,-190,476,-114,165,185,-941,466,1:07:03
319,-169,-204,366,-130,161,189,-919,450,1:07:03
334,-166,-186,294,-141,139,166,-887,427,1:07:03
340,-174,-190,264,-126,95,126,-873,394,1:07:03
312,-171,-189,241,-86,44,98,-881,365,1:07:03
312,-171,-189,223,-8,-2,94,-897,337,1:07:03
337,-186,-181,197,90,-29,114,-914,316,1:07:03
327,-187,-160,174,204,-30,133,-923,313,1:07:03
327,-187,-160,170,300,-11,129,-910,322,1:07:03
306,-178,-186,198,342,21,128,-881,328,1:07:03
336,-190,-187,257,294,67,113,-854,329,1:07:03
322,-177,-198,329,145,124,113,-858,329,1:07:03
322,-177,-198,385,-48,175,86,-858,311,1:07:03
327,-180,-190,399,-191,198,74,-911,288,1:07:03
322,-169,-181,425,-268,193,75,-999,251,1:07:03
322,-169,-181,454,-344,166,90,-1097,177,1:07:03
315,-150,-175,454,-344,166,115,-1201,101,1:07:03
316,-156,-162,415,-387,122,121,-1298,78,1:07:03
325,-178,-157,314,-326,77,119,-1336,115,1:07:03
325,-178,-157,212,-221,45,130,-1288,158,1:07:03
318,-154,-159,164,-187,32,120,-1160,144,1:07:03
319,-168,-151,179,-219,11,70,-1004,83,1:07:03
324,-160,-151,186,-223,-35,-2,-893,54,1:07:03
328,-163,-160,132,-149,-106,-51,-838,93,1:07:03
328,-162,-147,59,-69,-163,-25,-825,137,1:07:03
328,-157,-162,40,-65,-165,61,-837,132,1:07:03
328,-157,-162,79,-130,-118,137,-865,101,1:07:03
337,-171,-160,156,-217,-53,181,-887,68,1:07:03
333,-169,-141,230,-274,7,222,-912,45,1:07:03
333,-169,-141,280,-310,70,260,-958,31,1:07:03
343,-166,-148,289,-310,118,277,-1006,30,1:07:03
330,-175,-150,256,-291,142,277,-1006,30,1:07:03
322,-145,-145,224,-242,144,260,-1021,52,1:07:03
322,-145,-145,214,-114,123,230,-1020,85,1:07:03
330,-154,-118,201,-150,113,227,-1012,91,1:07:03
321,-160,-126,201,-150,113,202,-992,135,1:07:03
333,-150,-144,203,-174,109,161,-973,163,1:07:03
328,-169,-156,189,-172,93,162,-957,135,1:07:03
337,-168,-141,164,-185,79,174,-935,134,1:07:03
318,-145,-135,172,-179,68,194,-920,107,1:07:03
318,-145,-135,182,-147,64,227,-930,62,1:07:03
319,-150,-141,192,-112,66,249,-952,51,1:07:03
331,-157,-133,191,-98,76,252,-969,73,1:07:03
331,-157,-133,196,-100,83,250,-978,93,1:07:03
328,-160,-142,208,-107,87,242,-985,101,1:07:03
337,-150,-133,215,-130,94,219,-980,113,1:07:03
339,-160,-126,214,-175,89,208,-964,129,1:07:03
339,-160,-126,203,-221,73,207,-946,123,1:07:03
331,-129,-129,191,-256,56,202,-935,101,1:07:04
336,-141,-112,180,-261,35,207,-938,77,1:07:04
315,-138,-121,175,-245,20,215,-941,59,1:07:04
328,-145,-114,165,-213,2,215,-941,59,1:07:04
300,-142,-127,156,-184,-6,227,-951,52,1:07:04
300,-142,-127,154,-158,-11,239,-953,44,1:07:04
345,-145,-118,161,-137,-11,246,-946,38,1:07:04
333,-147,-129,166,-112,-11,242,-946,35,1:07:04
318,-153,-91,166,-112,-11,240,-946,29,1:07:04
342,-148,-103,170,-81,-13,244,-943,33,1:07:04
343,-153,-108,171,-60,-15,249,-939,42,1:07:04
334,-145,-108,170,-49,-14,251,-937,49,1:07:04
334,-145,-108,169,-37,-17,248,-943,58,1:07:04
328,-135,-102,157,-30,-21,251,-954,64,1:07:04
339,-156,-108,140,-27,-24,251,-963,63,1:07:04
331,-130,-99,125,-31,-27,250,-970,61,1:07:04
331,-148,-91,118,-39,-19,247,-971,55,1:07:04
315,-150,-114,112,-49,-21,234,-975,58,1:07:04
328,-147,-112,112,-69,-18,227,-977,62,1:07:04
328,-147,-112,112,-88,-10,220,-964,64,1:07:04
324,-145,-114,95,-109,-9,219,-959,68,1:07:04
325,-139,-88,77,-125,-25,232,-963,60,1:07:04
340,-132,-90,74,-154,-10,234,-959,44,1:07:04
330,-139,-93,70,-155,-5,234,-959,44,1:07:04
349,-154,-97,65,-139,-14,229,-955,29,1:07:04
327,-132,-94,77,-124,-16,191,-972,52,1:07:04
327,-132,-94,77,-124,-16,195,-969,50,1:07:04
339,-157,-100,77,-110,-21,235,-953,20,1:07:04
313,-148,-88,77,-90,-21,235,-961,21,1:07:04
331,-156,-84,80,-71,-28,226,-964,23,1:07:04
340,-150,-88,84,-57,-35,216,-963,30,1:07:04
342,-154,-99,79,-49,-45,216,-960,37,1:07:04
330,-133,-105,77,-45,-53,216,-956,40,1:07:04
330,-133,-105,71,-33,-62,216,-953,39,1:07:04
337,-133,-81,65,-21,-67,227,-955,42,1:07:04
330,-151,-81,61,-17,-68,239,-956,44,1:07:04
339,-141,-108,59,-26,-63,218,-988,56,1:07:04
334,-133,-105,58,-36,-48,252,-979,30,1:07:04
345,-124,-93,56,-48,-37,249,-980,35,1:07:04
345,-124,-93,60,-67,-25,253,-977,41,1:07:04
343,-139,-91,71,-88,-17,250,-970,42,1:07:04
331,-141,-93,75,-97,-14,243,-964,39,1:07:04
333,-144,-82,66,-91,-21,190,-977,67,1:07:04
333,-144,-82,70,-92,-23,190,-977,67,1:07:04
345,-135,-96,73,-81,-25,188,-973,60,1:07:04
339,-145,-96,71,-70,-35,234,-950,20,1:07:04
339,-145,-96,71,-70,-35,233,-947,23,1:07:04
339,-136,-93,65,-68,-44,235,-947,27,1:07:04
336,-138,-108,60,-65,-52,230,-950,29,1:07:04
342,-132,-85,55,-55,-60,226,-953,36,1:07:04
324,-141,-94,50,-42,-66,228,-957,45,1:07:04
348,-147,-90,42,-41,-67,232,-959,50,1:07:04
339,-141,-96,40,-48,-68,236,-955,43,1:07:04
339,-141,-96,37,-53,-67,236,-951,33,1:07:04
340,-136,-90,27,-51,-72,233,-934,20,1:07:04
340,-142,-91,36,-52,-67,239,-943,8,1:07:04
340,-133,-78,42,-37,-65,244,-969,2,1:07:04
340,-133,-78,38,-13,-68,251,-973,-7,1:07:04
342,-138,-94,42,16,-65,253,-981,-8,1:07:04
358,-150,-94,46,48,-64,241,-987,-3,1:07:04
358,-150,-94,19,87,-79,238,-972,-13,1:07:04
331,-132,-81,38,89,-67,238,-972,-13,1:07:04
357,-141,-75,46,91,-62,218,-975,-7,1:07:04
348,-133,-78,42,100,-71,167,-991,15,1:07:04
331,-147,-84,23,109,-84,155,-981,26,1:07:04
334,-136,-88,23,109,-84,153,-956,22,1:07:04
334,-136,-88,35,99,-79,155,-949,12,1:07:04
352,-144,-81,41,94,-76,160,-958,12,1:07:04
352,-129,-84,44,86,-72,162,-958,16,1:07:04
349,-144,-81,49,78,-69,161,-956,14,1:07:04
336,-124,-76,53,61,-65,157,-955,15,1:07:04
357,-139,-81,51,40,-63,153,-955,15,1:07:04
357,-139,-81,50,15,-58,149,-957,9,1:07:04
352,-127,-105,42,2,-58,151,-967,7,1:07:04
364,-138,-90,36,-9,-56,156,-978,12,1:07:04
348,-150,-91,36,-16,-53,153,-984,19,1:07:04
339,-151,-75,36,-27,-49,151,-985,20,1:07:04
354,-132,-93,32,-40,-44,149,-983,13,1:07:04
354,-132,-93,19,-37,-43,139,-960,0,1:07:04
352,-142,-94,27,-54,-39,136,-956,-6,1:07:04
336,-141,-79,26,-55,-39,136,-956,-6,1:07:04
355,-132,-72,16,-44,-45,142,-972,-3,1:07:04
342,-141,-79,7,-32,-49,147,-972,-1,1:07:04
336,-144,-106,1,-23,-51,158,-975,1,1:07:04
336,-144,-106,1,-23,-51,166,-974,0,1:07:04
358,-132,-76,-2,-18,-50,174,-975,-6,1:07:04
343,-141,-90,2,-8,-49,176,-976,-5,1:07:04
351,-139,-94,4,-2,-48,172,-972,0,1:07:04
348,-145,-67,7,-2,-46,170,-972,2,1:07:04
349,-136,-70,6,-7,-44,168,-973,1,1:07:04
349,-136,-70,9,-6,-42,163,-973,2,1:07:04
355,-145,-84,14,2,-41,156,-971,8,1:07:04
355,-138,-87,17,0,-37,152,-972,10,1:07:04
348,-136,-96,21,-1,-37,149,-970,9,1:07:04
340,-133,-70,26,-2,-35,144,-967,7,1:07:04
339,-135,-97,29,-3,-34,140,-969,4,1:07:04
339,-135,-97,33,-9,-32,143,-969,6,1:07:04
348,-141,-82,36,-18,-30,145,-968,3,1:07:04
349,-148,-64,37,-30,-26,143,-968,-4,1:07:04
349,-148,-64,34,-23,-26,138,-969,-2,1:07:04
354,-132,-79,34,-17,-28,138,-969,-2,1:07:04
345,-136,-90,31,-23,-29,134,-968,8,1:07:04
360,-141,-85,23,-28,-30,137,-965,15,1:07:04
360,-141,-85,23,-28,-30,140,-967,12,1:07:04
367,-145,-100,16,-30,-31,143,-969,5,1:07:05
349,-130,-93,12,-29,-30,146,-972,5,1:07:05
349,-130,-93,11,-30,-30,147,-977,8,1:07:05
352,-147,-94,9,-27,-30,148,-976,11,1:07:05
382,-151,-93,5,-30,-29,148,-977,15,1:07:05
370,-136,-100,4,-35,-26,149,-977,15,1:07:05
370,-136,-100,4,-39,-24,152,-976,15,1:07:05
355,-142,-90,2,-39,-22,151,-979,15,1:07:05
349,-142,-90,1,-35,-21,150,-978,19,1:07:05
349,-120,-91,2,-28,-21,152,-974,26,1:07:05
366,-147,-88,2,-28,-21,155,-968,26,1:07:05
376,-145,-78,0,-31,-19,159,-966,23,1:07:05
346,-141,-96,-1,-37,-17,162,-966,20,1:07:05
346,-141,-96,1,-42,-16,159,-965,19,1:07:05
354,-142,-75,4,-42,-15,156,-968,22,1:07:05
360,-141,-69,9,-42,-15,157,-971,18,1:07:05
360,-141,-69,9,-46,-14,157,-971,18,1:07:05
346,-142,-75,9,-44,-14,158,-973,18,1:07:05
366,-127,-79,9,-42,-16,158,-975,20,1:07:05
349,-154,-91,9,-42,-16,156,-977,18,1:07:05
349,-154,-91,5,-39,-16,154,-979,21,1:07:05
336,-148,-82,2,-41,-16,156,-980,17,1:07:05
349,-163,-57,-2,-39,-18,159,-979,11,1:07:05
334,-151,-73,-3,-32,-18,159,-980,14,1:07:05
360,-147,-78,-4,-29,-17,159,-981,21,1:07:05
363,-138,-90,-4,-31,-17,159,-978,25,1:07:05
355,-127,-103,-7,-35,-16,156,-978,27,1:07:05
355,-127,-103,-11,-37,-18,157,-979,26,1:07:05
360,-141,-91,-14,-36,-18,162,-978,22,1:07:05
357,-142,-58,-15,-32,-19,161,-975,19,1:07:05
357,-142,-58,-10,-30,-18,159,-971,16,1:07:05
366,-127,-75,-8,-26,-18,159,-968,15,1:07:05
385,-150,-73,-5,-25,-16,159,-967,13,1:07:05
354,-135,-85,-1,-23,-15,157,-967,16,1:07:05
354,-135,-85,0,-25,-15,157,-967,16,1:07:05
361,-151,-79,1,-30,-16,154,-966,24,1:07:05
367,-138,-82,1,-25,-17,154,-971,21,1:07:05
370,-138,-87,0,-23,-16,155,-971,12,1:07:05
360,-160,-75,1,-20,-16,157,-970,10,1:07:05
358,-156,-84,1,-20,-16,160,-971,14,1:07:05
358,-156,-84,2,-18,-15,164,-974,15,1:07:05
358,-127,-64,2,-21,-13,166,-974,14,1:07:05
361,-147,-81,2,-23,-12,162,-977,12,1:07:05
358,-153,-76,4,-24,-13,158,-977,13,1:07:05
360,-150,-85,4,-23,-13,155,-973,16,1:07:05
348,-151,-69,2,-25,-14,157,-973,17,1:07:05
361,-141,-81,0,-23,-14,157,-977,15,1:07:05
361,-141,-81,1,-20,-14,157,-978,13,1:07:05
375,-145,-70,1,-17,-14,158,-976,10,1:07:05
373,-139,-82,3,-14,-14,159,-976,7,1:07:05
373,-139,-82,2,-9,-13,159,-976,7,1:07:05
337,-141,-72,2,-16,-12,155,-976,7,1:07:05
372,-132,-99,0,-18,-12,149,-976,13,1:07:05
351,-148,-66,-2,-21,-14,146,-973,20,1:07:05
351,-148,-66,-7,-23,-14,146,-975,19,1:07:05
345,-159,-94,-9,-24,-14,146,-975,19,1:07:05
366,-136,-97,-9,-22,-16,144,-975,14,1:07:05
352,-130,-90,-8,-21,-11,155,-971,12,1:07:05
367,-141,-87,-6,-24,-9,158,-972,12,1:07:05
367,-124,-91,-6,-24,-9,159,-968,12,1:07:05
367,-124,-91,-7,-21,-5,159,-964,10,1:07:05
358,-135,-81,-4,-18,-4,160,-967,10,1:07:05
352,-130,-73,-2,-20,-4,159,-970,12,1:07:05
358,-142,-69,-4,-20,-4,155,-971,11,1:07:05
358,-160,-55,-7,-33,-3,154,-974,10,1:07:05
342,-142,-91,-5,-23,-7,153,-975,11,1:07:05
342,-142,-91,-4,-13,-9,153,-973,13,1:07:05
370,-145,-67,-1,-8,-11,153,-970,15,1:07:05
366,-144,-81,-1,-6,-14,155,-969,10,1:07:05
358,-135,-79,-1,-4,-14,158,-969,6,1:07:05
333,-144,-91,0,-3,-13,159,-968,10,1:07:05
346,-136,-75,1,-4,-11,158,-969,14,1:07:05
346,-136,-75,2,-5,-11,157,-970,12,1:07:05
351,-153,-76,0,-2,-9,155,-970,9,1:07:05
369,-141,-87,0,0,-8,155,-970,9,1:07:05
372,-132,-82,2,2,-8,155,-973,11,1:07:05
375,-126,-76,2,4,-7,155,-972,13,1:07:05
370,-142,-66,2,4,-7,153,-971,14,1:07:05
370,-142,-66,1,5,-7,154,-970,17,1:07:05
342,-145,-90,0,1,-7,154,-969,14,1:07:05
349,-151,-72,-2,1,-5,155,-971,11,1:07:05
349,-148,-87,0,2,-4,153,-972,6,1:07:05
367,-136,-78,2,4,-5,151,-971,5,1:07:05
355,-151,-66,2,6,-5,150,-973,11,1:07:05
355,-151,-66,2,7,-6,148,-975,14,1:07:05
348,-135,-76,-3,0,-4,148,-976,14,1:07:05
364,-150,-81,-6,0,-6,146,-977,12,1:07:05
349,-135,-70,-7,0,-7,147,-976,10,1:07:05
328,-130,-94,-7,0,-6,147,-976,8,1:07:05
370,-139,-79,-5,0,-5,147,-976,7,1:07:05
370,-139,-79,-4,0,-3,146,-974,11,1:07:05
367,-156,-73,-4,-2,-2,143,-973,16,1:07:05
342,-129,-67,-7,-7,-1,143,-974,21,1:07:05
342,-129,-67,-8,-9,-2,142,-974,21,1:07:05
360,-147,-78,-9,-9,-4,142,-974,23,1:07:05
355,-153,-55,-9,-8,-6,147,-971,22,1:07:05
367,-151,-88,-9,-5,-7,153,-969,21,1:07:05
367,-151,-88,-9,-5,-7,158,-967,19,1:07:05
367,-145,-73,-7,-2,-5,163,-968,18,1:07:05
369,-135,-64,-4,0,-4,164,-971,19,1:07:05
367,-154,-88,-2,7,-4,163,-973,22,1:07:05
361,-145,-85,0,7,-3,163,-975,28,1:07:05
355,-136,-93,-1,9,-4,159,-976,29,1:07:05
361,-163,-81,-2,8,-6,157,-977,31,1:07:05
361,-163,-81,-2,10,-7,155,-979,32,1:07:05
363,-144,-79,-1,13,-7,155,-979,29,1:07:05
352,-126,-67,0,24,-9,153,-975,27,1:07:06
352,-126,-67,0,21,-9,153,-972,26,1:07:06
363,-156,-61,0,14,-8,155,-973,24,1:07:06
345,-126,-75,0,9,-7,154,-972,24,1:07:06
345,-126,-75,2,8,-6,152,-969,25,1:07:06
348,-147,-76,4,11,-7,151,-970,22,1:07:06
357,-157,-81,7,13,-7,151,-971,20,1:07:06
361,-147,-67,5,20,-9,151,-971,20,1:07:06
363,-139,-72,4,9,-7,151,-971,23,1:07:06
337,-139,-87,1,0,-4,153,-971,28,1:07:06
363,-159,-79,1,-4,-2,158,-974,28,1:07:06
363,-159,-79,1,-4,-2,157,-977,24,1:07:06
348,-150,-82,2,-7,-2,154,-977,15,1:07:06
357,-138,-70,3,0,-3,156,-977,14,1:07:06
343,-144,-63,2,9,-4,157,-974,22,1:07:06
343,-144,-63,3,11,-7,159,-971,27,1:07:06
361,-147,-75,0,11,-7,159,-973,25,1:07:06
357,-156,-87,-1,7,-7,158,-975,22,1:07:06
357,-156,-87,-1,1,-7,157,-976,20,1:07:06
376,-150,-79,0,-2,-6,153,-976,18,1:07:06
357,-154,-78,2,-4,-4,153,-973,17,1:07:06
349,-147,-82,2,-1,-6,152,-970,17,1:07:06
351,-133,-91,0,0,-7,152,-972,17,1:07:06
363,-151,-69,0,2,-7,153,-973,18,1:07:06
351,-147,-79,-2,2,-7,153,-974,16,1:07:06
351,-147,-79,-2,3,-7,151,-976,14,1:07:06
363,-141,-88,-2,2,-7,151,-972,17,1:07:06
361,-160,-78,-3,0,-7,151,-972,17,1:07:06
352,-153,-85,-4,-2,-5,151,-970,18,1:07:06
367,-142,-70,-3,-6,-4,151,-973,19,1:07:06
367,-144,-84,-3,-7,-3,152,-976,19,1:07:06
373,-145,-88,-3,-7,-3,152,-977,18,1:07:06
373,-145,-88,-2,-4,-4,151,-974,19,1:07:06
376,-145,-84,-2,-7,-4,151,-975,18,1:07:06
385,-148,-87,-5,0,-7,152,-976,17,1:07:06
364,-153,-78,-5,3,-8,151,-974,17,1:07:06
352,-145,-64,-7,4,-7,151,-973,19,1:07:06
352,-145,-88,-7,2,-7,152,-972,19,1:07:06
354,-147,-90,-8,0,-6,150,-972,19,1:07:06
354,-147,-90,-7,-2,-4,147,-973,23,1:07:06
358,-142,-79,-8,-4,-3,147,-974,26,1:07:06
357,-153,-72,-7,-4,-3,148,-976,25,1:07:06
352,-145,-85,-4,-2,-2,148,-976,23,1:07:06
357,-159,-79,-5,-4,-2,151,-973,25,1:07:06
357,-145,-75,-6,-2,-3,155,-974,25,1:07:06
367,-138,-79,-4,-4,-4,155,-974,23,1:07:06
367,-138,-79,-6,-2,-4,153,-972,20,1:07:06
364,-156,-87,-4,-1,-4,153,-972,20,1:07:06
372,-154,-81,-2,0,-4,152,-971,20,1:07:06
357,-130,-76,0,3,-5,152,-972,21,1:07:06
357,-130,-76,0,0,-4,153,-975,20,1:07:06
342,-154,-84,0,0,-4,155,-975,22,1:07:06
348,-138,-88,-1,-2,-3,155,-973,26,1:07:06
348,-138,-88,-1,-4,-4,154,-972,26,1:07:06
367,-141,-79,-1,-2,-4,153,-971,23,1:07:06
360,-150,-85,-3,-2,-4,152,-972,24,1:07:06
346,-132,-79,0,2,-5,154,-973,24,1:07:06
357,-141,-76,-2,0,-4,154,-972,23,1:07:06
366,-144,-85,-2,-2,-4,155,-970,26,1:07:06
363,-144,-87,-2,0,-4,154,-971,28,1:07:06
363,-144,-87,-1,0,-4,157,-973,28,1:07:06
369,-147,-81,-1,-4,-4,159,-973,27,1:07:06
367,-151,-90,-1,-2,-4,156,-973,23,1:07:06
351,-142,-88,0,-3,-4,155,-974,22,1:07:06
351,-142,-88,-1,-3,-4,155,-973,23,1:07:06
351,-141,-85,0,-4,-4,155,-973,23,1:07:06
360,-148,-90,0,-5,-3,156,-970,24,1:07:06
360,-148,-90,0,-2,-3,157,-970,23,1:07:06
345,-138,-85,0,0,-3,156,-971,24,1:07:06
366,-145,-93,0,2,-3,155,-971,24,1:07:06
343,-135,-75,2,1,-2,155,-971,27,1:07:06
361,-150,-84,2,4,-2,159,-971,25,1:07:06
367,-144,-91,0,7,-2,158,-971,26,1:07:06
367,-144,-91,0,8,-2,158,-971,28,1:07:06
364,-147,-69,0,9,-2,160,-970,27,1:07:06
346,-153,-81,0,7,-2,158,-971,23,1:07:06
361,-138,-90,-2,9,-2,154,-976,26,1:07:06
360,-136,-97,2,11,-3,153,-978,24,1:07:06
363,-157,-84,0,10,-2,152,-976,25,1:07:06
363,-157,-84,-2,9,-3,153,-974,25,1:07:06
351,-147,-97,-4,9,-4,154,-975,24,1:07:06
376,-151,-73,-3,7,-4,153,-976,23,1:07:06
352,-145,-61,-3,8,-4,151,-975,26,1:07:06
355,-147,-79,-2,7,-4,150,-975,29,1:07:06
366,-147,-78,-3,2,-4,150,-975,29,1:07:06
366,-147,-78,-5,1,-4,151,-975,28,1:07:06
354,-148,-78,-4,-2,-6,153,-974,27,1:07:06
363,-153,-67,-2,1,-6,153,-972,24,1:07:06
355,-127,-94,-2,2,-7,152,-972,24,1:07:06
372,-157,-78,-2,2,-7,153,-973,27,1:07:06
355,-160,-81,-1,0,-7,155,-971,26,1:07:06
355,-160,-81,0,1,-6,154,-971,27,1:07:06
346,-141,-69,2,2,-6,155,-973,28,1:07:06
352,-151,-78,4,-1,-7,155,-973,30,1:07:06
388,-141,-96,2,-4,-7,154,-974,28,1:07:06
369,-136,-90,2,-4,-6,155,-971,25,1:07:06
361,-139,-81,3,-3,-6,158,-972,25,1:07:06
361,-139,-81,4,-2,-5,159,-974,26,1:07:06
346,-133,-82,3,11,-7,157,-970,26,1:07:06
367,-156,-70,0,4,-7,157,-971,27,1:07:06
361,-141,-81,0,2,-8,159,-973,29,1:07:06
352,-142,-88,0,1,-6,158,-972,30,1:07:06
360,-142,-84,0,1,-6,156,-973,26,1:07:06
360,-142,-84,0,2,-6,157,-974,26,1:07:06
357,-151,-94,1,2,-6,157,-974,26,1:07:06
355,-142,-75,3,3,-5,155,-970,29,1:07:07
355,-142,-75,2,3,-6,154,-969,29,1:07:07
360,-150,-78,2,3,-6,154,-973,29,1:07:07
361,-136,-79,-1,0,-7,154,-973,27,1:07:07
361,-136,-79,-2,-3,-7,155,-970,25,1:07:07
370,-148,-81,0,-1,-7,156,-969,28,1:07:07
366,-156,-91,2,0,-9,156,-971,31,1:07:07
367,-133,-78,1,0,-9,158,-973,30,1:07:07
348,-142,-78,2,0,-8,160,-969,27,1:07:07
363,-160,-105,4,0,-6,160,-969,28,1:07:07
349,-147,-78,6,0,-6,158,-971,30,1:07:07
349,-147,-78,7,-2,-5,155,-972,32,1:07:07
355,-162,-97,4,-2,-5,156,-974,32,1:07:07
351,-151,-79,3,0,-5,157,-975,30,1:07:07
357,-141,-67,2,1,-5,158,-975,31,1:07:07
373,-136,-94,2,1,-4,156,-974,32,1:07:07
351,-138,-91,2,2,-4,155,-972,34,1:07:07
372,-144,-79,2,4,-5,155,-971,34,1:07:07
372,-144,-79,2,2,-4,155,-971,30,1:07:07
352,-132,-106,0,0,-4,155,-971,30,1:07:07
366,-172,-88,0,0,-4,154,-971,28,1:07:07
336,-145,-69,2,0,-4,155,-972,29,1:07:07
336,-145,-69,2,2,-4,156,-973,28,1:07:07
352,-154,-91,2,2,-4,155,-970,27,1:07:07
354,-148,-93,2,2,-4,154,-970,27,1:07:07
354,-148,-93,3,1,-2,151,-973,29,1:07:07
352,-144,-84,4,0,-3,150,-975,30,1:07:07
354,-157,-90,4,0,-2,152,-974,31,1:07:07
339,-144,-60,1,-7,-2,152,-972,31,1:07:07
358,-157,-93,2,-5,-3,155,-971,30,1:07:07
352,-151,-90,2,-7,-3,158,-971,31,1:07:07
355,-151,-73,2,-7,-2,155,-972,31,1:07:07
355,-151,-73,1,-6,-2,154,-972,31,1:07:07
360,-159,-85,0,-4,-3,155,-973,30,1:07:07
