magX[mG],magY[mG],magZ[mG],gyroX[mdps],gyroY[mdps],gyroZ[mdps],accX[mg],accY[mg],accZ[mg],hh:mm:ss.ms
312,123,-700,-26,25,-29,154,57,1006,0:03:20
312,123,-700,-26,25,-29,154,57,1006,0:03:20
312,123,-700,-26,25,-29,154,57,1006,0:03:20
324,151,-684,-34,39,-29,154,57,1006,0:03:20
288,127,-690,-23,58,-37,151,62,996,0:03:20
288,127,-690,-1,58,-50,146,61,990,0:03:20
297,133,-694,0,38,-48,120,45,983,0:03:20
306,142,-684,-21,23,-31,115,43,980,0:03:20
316,147,-702,-21,2,-21,115,43,980,0:03:20
306,141,-672,-32,-2,-18,119,48,984,0:03:20
318,139,-675,-32,-8,-20,129,42,992,0:03:20
319,135,-693,-26,15,-32,133,45,993,0:03:20
316,126,-688,-12,21,-45,135,59,987,0:03:20
303,135,-675,-27,10,-38,133,59,987,0:03:20
324,133,-685,-29,7,-40,127,55,982,0:03:20
313,138,-687,-22,-11,-29,123,66,971,0:03:20
301,126,-673,-31,-20,0,126,72,975,0:03:20
304,133,-688,18,14,-53,122,76,975,0:03:20
304,133,-688,28,33,-79,121,73,988,0:03:20
295,126,-681,-5,2,-42,128,58,1017,0:03:20
315,133,-697,-38,-23,6,127,46,1023,0:03:20
301,118,-696,-21,-3,-7,122,48,1007,0:03:20
294,153,-682,-2,4,-17,113,69,983,0:03:20
310,130,-691,-16,-23,8,106,73,977,0:03:20
298,133,-690,-21,-18,13,97,72,972,0:03:21
309,150,-702,6,27,-37,99,74,979,0:03:21
304,130,-688,6,23,-35,99,74,979,0:03:21
300,133,-700,-4,1,-13,103,64,995,0:03:21
309,139,-700,-10,-11,-4,97,64,987,0:03:21
298,133,-681,-5,-25,9,98,63,988,0:03:21
310,142,-702,-27,-34,39,106,61,1000,0:03:21
328,147,-699,-28,-15,28,114,57,1011,0:03:21
328,147,-699,-4,9,11,117,61,1014,0:03:21
309,151,-697,-1,19,0,125,67,1019,0:03:21
291,123,-705,-16,11,11,129,60,1021,0:03:21
288,147,-673,-26,10,18,123,50,1011,0:03:21
288,147,-673,-25,6,8,121,56,993,0:03:21
307,138,-708,-25,-11,19,125,69,976,0:03:21
322,135,-700,-23,-32,59,122,75,961,0:03:21
310,147,-684,-3,-21,37,117,85,951,0:03:21
324,132,-694,0,-22,32,122,83,961,0:03:21
321,135,-702,-26,-37,76,130,72,975,0:03:21
300,151,-675,9,-2,35,138,79,984,0:03:21
292,148,-688,62,37,-14,138,79,984,0:03:21
318,139,-702,44,25,13,142,88,987,0:03:21
309,133,-687,7,0,65,143,75,1001,0:03:21
298,145,-702,30,-5,76,139,66,997,0:03:21
298,145,-702,37,0,77,134,79,990,0:03:21
309,159,-693,30,14,74,134,72,998,0:03:21
322,136,-700,32,56,34,129,62,993,0:03:21
291,142,-690,13,58,35,122,58,987,0:03:21
301,145,-685,-3,37,51,121,40,999,0:03:21
327,159,-711,1,28,32,116,40,996,0:03:21
306,142,-696,-5,2,51,113,52,980,0:03:21
280,156,-694,-7,-13,95,117,58,975,0:03:21
298,162,-675,28,15,54,123,75,980,0:03:21
307,138,-706,42,30,38,135,83,990,0:03:21
312,154,-690,8,14,86,137,70,997,0:03:21
321,145,-672,60,42,49,130,62,1000,0:03:21
321,145,-672,88,89,-9,134,70,999,0:03:21
322,166,-685,42,64,14,110,44,1005,0:03:21
319,142,-693,-1,34,40,110,44,1005,0:03:21
298,156,-676,8,40,28,98,49,990,0:03:21
307,148,-696,-2,49,35,108,67,981,0:03:21
315,150,-696,8,103,-14,120,69,991,0:03:21
313,163,-706,2,154,-49,106,75,979,0:03:21
325,157,-712,-21,123,-28,102,73,984,0:03:21
315,157,-697,-37,79,9,109,64,1009,0:03:21
337,156,-714,-37,53,28,108,68,1009,0:03:21
315,160,-712,-32,27,42,109,71,1009,0:03:21
316,153,-708,-23,19,48,113,74,1011,0:03:21
327,159,-699,-6,25,33,111,79,999,0:03:21
313,162,-705,4,43,18,103,80,977,0:03:21
336,151,-714,-8,30,30,98,77,964,0:03:21
324,160,-711,-9,13,39,98,69,971,0:03:21
331,159,-696,4,6,43,92,71,969,0:03:22
330,160,-712,4,-17,58,89,75,969,0:03:22
324,135,-717,16,-21,46,85,71,980,0:03:22
321,156,-705,35,5,7,85,71,980,0:03:22
321,156,-705,23,-6,4,81,68,982,0:03:22
315,172,-714,-4,-25,16,89,58,1009,0:03:22
328,147,-705,-14,-32,16,96,58,1024,0:03:22
319,156,-715,-11,-22,4,94,74,1011,0:03:22
330,144,-718,-7,-26,4,95,87,1003,0:03:22
327,172,-717,-26,-35,38,101,96,1001,0:03:22
319,144,-709,-21,-8,32,102,104,998,0:03:22
331,175,-717,25,14,-7,100,111,1000,0:03:22
321,172,-690,32,25,-11,102,118,1003,0:03:22
331,160,-715,0,6,16,103,98,1020,0:03:22
295,181,-708,-25,-1,40,99,74,1027,0:03:22
319,171,-706,-17,13,17,96,76,1017,0:03:22
300,163,-712,-33,6,37,94,83,1005,0:03:22
316,160,-703,-62,-3,63,94,75,1002,0:03:22
321,162,-700,-48,14,39,91,73,998,0:03:22
319,177,-706,-41,11,32,91,79,985,0:03:22
328,159,-705,-58,-16,45,93,68,979,0:03:22
325,154,-708,-22,-26,41,93,68,979,0:03:22
325,154,-708,39,2,2,97,85,962,0:03:22
325,153,-697,44,-2,7,99,95,958,0:03:22
322,162,-714,11,-18,38,92,71,971,0:03:22
325,184,-703,19,-12,7,80,65,981,0:03:22
334,171,-700,15,-7,8,87,76,983,0:03:22
319,180,-703,-18,-26,30,99,77,993,0:03:22
321,172,-706,15,-31,16,89,81,987,0:03:22
310,175,-706,23,-22,23,83,93,972,0:03:22
342,157,-702,-2,-28,41,94,89,992,0:03:22
313,157,-694,28,-2,7,89,82,999,0:03:22
345,171,-714,4,20,-46,81,97,1008,0:03:24
345,171,-714,4,20,-46,81,97,1008,0:03:24
345,171,-714,4,20,-46,81,97,1008,0:03:24
322,169,-715,-3,12,-33,81,97,1008,0:03:24
322,169,-715,-8,12,-23,82,104,999,0:03:24
328,186,-715,1,14,-24,79,112,987,0:03:24
336,168,-706,0,7,-18,63,99,984,0:03:24
325,169,-703,-7,0,-15,60,94,987,0:03:24
321,166,-711,0,-3,-16,60,94,987,0:03:24
312,174,-706,5,-4,-23,60,93,993,0:03:24
325,168,-708,6,-6,-29,59,90,998,0:03:24
342,171,-684,7,-9,-35,56,87,997,0:03:24
322,171,-708,0,-9,-34,56,86,996,0:03:24
322,177,-687,-5,-9,-32,59,87,999,0:03:24
312,162,-712,-11,-6,-30,62,91,1000,0:03:24
322,160,-721,-14,-4,-28,67,95,1003,0:03:24
315,174,-688,-14,0,-30,70,97,1000,0:03:24
331,180,-711,-9,2,-29,71,101,1000,0:03:24
331,180,-711,-4,0,-24,68,106,994,0:03:24
315,180,-708,-3,-4,-18,65,107,986,0:03:24
315,180,-708,-4,-4,-25,66,102,987,0:03:24
325,180,-688,-16,-8,-12,66,98,993,0:03:24
358,165,-732,-8,2,-21,69,100,996,0:03:24
309,172,-703,-7,15,-32,71,104,992,0:03:24
337,175,-714,-11,2,-23,72,101,994,0:03:24
328,180,-703,-27,-16,9,70,99,991,0:03:24
318,186,-708,-23,-6,-7,70,99,991,0:03:25
343,204,-706,-22,6,-23,70,97,994,0:03:25
321,175,-706,-37,-10,-4,70,100,993,0:03:25
310,187,-706,-30,-11,-2,69,100,988,0:03:25
328,193,-717,-2,5,-22,70,103,982,0:03:25
346,171,-715,16,16,-36,82,113,987,0:03:25
327,156,-685,14,4,-23,82,116,984,0:03:25
327,156,-685,-9,-20,-1,66,110,975,0:03:25
331,174,-709,-20,-35,8,62,102,978,0:03:25
339,166,-697,-11,-31,2,69,108,985,0:03:25
319,195,-703,4,-19,2,75,117,990,0:03:25
312,171,-714,4,-9,0,72,116,991,0:03:25
321,180,-706,-3,4,-11,71,109,1000,0:03:25
312,180,-699,0,37,-37,69,108,994,0:03:25
334,181,-717,-13,58,-47,61,114,988,0:03:25
325,183,-729,-18,46,-38,55,106,1000,0:03:25
322,195,-709,-28,44,-29,47,101,997,0:03:25
334,159,-711,-35,23,-23,47,101,997,0:03:25
336,168,-690,-37,28,-28,50,97,1005,0:03:25
333,190,-723,-28,41,-41,51,106,1002,0:03:25
316,166,-729,-36,47,-38,52,109,996,0:03:25
316,166,-729,-35,43,-42,52,104,997,0:03:25
333,172,-709,-28,28,-41,49,106,993,0:03:25
343,174,-721,-25,13,-33,50,111,985,0:03:25
336,187,-696,-23,-4,-21,55,112,983,0:03:25
333,186,-694,-13,-21,-11,58,119,980,0:03:25
325,183,-703,-8,-26,-2,61,126,977,0:03:25
337,178,-726,4,-17,-1,68,132,983,0:03:25
337,174,-709,19,2,-8,78,141,989,0:03:25
330,204,-690,24,15,8,88,143,999,0:03:25
352,172,-702,12,23,20,94,139,1007,0:03:25
349,190,-688,4,10,37,92,137,1008,0:03:25
334,184,-726,-11,0,56,90,140,1005,0:03:25
325,183,-720,-13,-17,56,91,161,1003,0:03:25
325,183,-720,-17,-27,66,96,172,996,0:03:25
331,174,-699,9,-21,56,96,172,996,0:03:25
340,183,-717,17,-16,58,98,180,982,0:03:25
337,193,-705,13,-16,58,94,183,977,0:03:25
345,187,-709,8,-14,54,90,181,977,0:03:25
346,183,-700,9,-12,50,88,179,976,0:03:25
333,189,-708,20,-9,46,89,186,968,0:03:25
346,187,-729,16,-19,56,89,193,958,0:03:25
333,187,-717,28,-19,61,89,199,952,0:03:25
327,199,-705,35,-21,74,86,207,947,0:03:25
330,190,-703,30,-27,88,83,199,958,0:03:25
328,198,-723,24,-29,102,83,187,971,0:03:25
312,183,-697,33,-18,101,87,183,975,0:03:25
298,183,-724,51,-4,98,91,186,976,0:03:25
325,180,-714,53,-11,112,87,190,972,0:03:25
327,178,-727,63,-7,113,81,184,970,0:03:25
331,186,-718,66,4,101,76,180,968,0:03:26
327,186,-723,70,2,94,62,182,965,0:03:26
360,196,-715,72,-10,103,62,182,965,0:03:26
333,187,-717,74,-11,102,62,191,960,0:03:26
339,186,-714,82,-21,102,63,197,964,0:03:26
339,186,-714,74,-29,104,61,203,965,0:03:26
331,204,-700,57,-31,104,62,197,972,0:03:26
324,195,-727,59,-17,81,68,193,980,0:03:26
342,186,-723,63,-16,65,71,199,978,0:03:26
339,178,-705,51,-35,70,64,200,965,0:03:26
334,180,-706,44,-60,46,58,195,954,0:03:26
322,181,-709,12,-114,46,47,196,944,0:03:26
328,184,-736,-24,-180,62,30,180,948,0:03:26
315,180,-721,-17,-226,56,30,166,975,0:03:26
327,190,-688,12,-237,44,42,175,998,0:03:26
325,189,-703,39,-263,71,64,178,1028,0:03:26
319,192,-700,30,-263,93,95,165,1091,0:03:26
334,195,-706,1,-207,74,137,127,1184,0:03:26
316,192,-700,-46,-105,25,178,87,1255,0:03:26
328,193,-675,-65,-9,-35,170,79,1185,0:03:26
292,186,-702,-65,91,-108,170,79,1185,0:03:26
334,198,-700,-107,99,-138,124,79,1075,0:03:26
334,198,-700,-177,44,-126,69,61,971,0:03:26
315,190,-688,-205,-6,-113,35,66,888,0:03:26
306,199,-715,-182,-30,-120,35,101,843,0:03:26
322,201,-696,-169,-51,-111,50,118,853,0:03:26
327,193,-691,-155,-81,-79,64,111,897,0:03:26
301,192,-685,-130,-94,-36,82,107,952,0:03:26
300,181,-673,-80,-79,-5,105,105,1016,0:03:26
312,187,-678,-29,-16,17,127,96,1078,0:03:26
304,214,-697,34,74,23,140,82,1115,0:03:26
318,205,-705,58,196,-32,136,51,1129,0:03:26
306,207,-694,84,312,-154,106,5,1103,0:03:26
316,210,-678,43,273,-138,75,-12,1033,0:03:26
316,210,-678,18,200,-114,42,11,935,0:03:26
315,193,-681,45,163,-143,-2,62,817,0:03:26
315,193,-681,68,48,-88,27,134,773,0:03:26
312,181,-705,102,-21,-91,41,160,787,0:03:26
310,184,-687,136,-36,-124,41,160,787,0:03:26
313,187,-688,129,-87,-93,54,174,805,0:03:26
328,177,-703,126,-109,-77,81,171,860,0:03:26
319,165,-696,163,-80,-84,89,185,879,0:03:26
333,195,-699,228,-45,-102,87,197,885,0:03:26
322,180,-700,263,-35,-85,88,186,927,0:03:26
327,172,-691,296,-7,-95,83,167,955,0:03:26
327,172,-691,298,-17,-68,72,146,958,0:03:26
331,159,-705,268,-31,-44,63,117,977,0:03:26
327,166,-700,245,-24,-44,51,107,972,0:03:26
303,162,-705,231,-15,-48,37,121,947,0:03:26
319,145,-696,254,12,-78,23,132,925,0:03:26
315,166,-697,303,7,-66,1,138,900,0:03:26
316,163,-693,313,-66,-3,11,128,925,0:03:27
316,132,-691,303,-119,23,35,106,988,0:03:27
310,133,-696,321,-65,2,43,83,1033,0:03:27
313,139,-691,399,-16,-10,40,74,1036,0:03:27
312,144,-712,493,-28,35,40,74,1036,0:03:27
319,120,-694,460,-239,263,88,23,1144,0:03:27
312,127,-699,440,-413,443,166,-67,1286,0:03:27
292,112,-676,344,-450,497,254,-145,1387,0:03:27
292,112,-676,226,-290,335,315,-206,1435,0:03:27
279,111,-687,106,-95,132,326,-217,1398,0:03:27
292,133,-676,-70,-28,27,324,-191,1316,0:03:27
285,133,-663,-262,-44,15,323,-163,1209,0:03:27
310,103,-667,-421,-89,98,333,-115,1045,0:03:27
298,135,-670,-467,-141,237,370,-34,892,0:03:27
289,142,-684,-329,-135,396,424,57,779,0:03:27
309,133,-654,-44,-3,527,455,121,697,0:03:27
298,153,-687,238,176,586,462,103,694,0:03:27
304,159,-687,396,353,554,439,-2,775,0:03:27
303,160,-687,372,387,521,376,-135,871,0:03:27
294,145,-685,231,245,506,289,-246,965,0:03:27
294,145,-685,121,64,478,199,-214,958,0:03:27
306,154,-684,53,-9,485,223,-120,891,0:03:27
307,159,-693,56,0,508,223,-120,891,0:03:27
318,166,-687,112,2,534,239,-23,841,0:03:27
316,166,-679,138,23,574,239,36,817,0:03:27
319,160,-682,166,28,600,233,43,834,0:03:27
307,175,-682,204,51,590,214,31,870,0:03:27
303,186,-682,222,72,567,195,10,902,0:03:27
316,186,-682,196,73,559,173,-8,923,0:03:27
309,186,-681,172,29,518,145,-26,945,0:03:27
321,192,-682,105,18,483,128,-38,960,0:03:27
313,183,-678,55,25,429,126,-29,965,0:03:27
324,193,-676,49,57,385,129,-1,947,0:03:27
316,186,-688,100,86,320,125,39,915,0:03:27
327,217,-681,102,109,270,118,62,912,0:03:27
345,214,-673,56,123,245,111,63,921,0:03:27
327,190,-658,34,154,205,95,74,919,0:03:27
342,213,-676,30,186,166,81,92,941,0:03:27
346,220,-697,41,211,120,59,90,1034,0:03:27
342,208,-682,30,247,60,59,90,1034,0:03:27
342,208,-682,15,329,-25,41,56,1077,0:03:27
345,205,-685,32,356,-118,15,13,1112,0:03:27
355,208,-697,163,383,-213,-17,-14,1148,0:03:27
354,198,-691,268,402,-191,-41,5,1170,0:03:27
376,192,-696,175,320,-99,-46,0,1277,0:03:27
366,202,-708,-154,178,-121,-59,-126,1495,0:03:27
372,199,-712,-473,150,-308,-74,-299,1684,0:03:27
376,193,-709,-543,247,-583,-53,-347,1658,0:03:27
360,204,-706,-438,180,-698,-29,-238,1393,0:03:27
372,211,-688,-431,84,-644,-40,-117,1067,0:03:27
354,204,-703,-544,-54,-415,-57,-57,843,0:03:27
370,222,-712,-632,-179,-184,-50,-40,795,0:03:28
378,210,-706,-554,-130,-132,0,-76,892,0:03:28
357,232,-693,-452,-11,-150,57,-128,1013,0:03:28
372,217,-697,-427,74,-190,77,-190,1084,0:03:28
358,238,-696,-422,114,-248,62,-246,1070,0:03:28
373,237,-691,-385,138,-283,37,-236,937,0:03:28
373,237,-691,-308,137,-286,27,-174,775,0:03:28
360,240,-706,-202,100,-263,26,-101,641,0:03:28
376,258,-697,-72,42,-236,26,-48,545,0:03:28
376,258,-697,41,12,-203,31,-7,496,0:03:28
352,246,-682,127,-10,-179,39,13,502,0:03:28
384,228,-706,189,-44,-147,49,18,541,0:03:28
355,223,-679,245,-99,-111,67,33,596,0:03:28
363,223,-697,336,-149,-58,91,69,662,0:03:28
370,231,-687,429,-175,5,110,115,707,0:03:28
355,199,-696,489,-194,77,118,141,751,0:03:28
355,216,-688,469,-223,161,124,143,822,0:03:28
343,202,-696,389,-263,282,139,130,919,0:03:28
342,208,-691,313,-240,336,162,113,1034,0:03:28
354,199,-684,273,-213,324,189,118,1165,0:03:28
345,183,-681,257,-145,308,203,128,1249,0:03:28
322,205,-681,307,-80,282,200,141,1245,0:03:28
351,201,-679,318,-101,300,128,167,1122,0:03:28
322,205,-676,311,-135,382,115,141,1128,0:03:28
327,192,-700,430,-190,402,115,141,1128,0:03:28
351,214,-702,459,-266,512,147,93,1215,0:03:28
339,199,-670,262,-286,617,182,-54,1362,0:03:28
339,199,-670,16,-230,546,182,-248,1577,0:03:28
345,201,-693,-208,-80,294,175,-357,1714,0:03:28
337,211,-694,-429,-11,67,166,-354,1680,0:03:28
319,202,-676,-521,37,-72,178,-293,1434,0:03:28
325,223,-672,-486,49,-102,233,-184,1063,0:03:28
333,225,-670,-226,23,-83,298,-64,765,0:03:28
336,229,-681,89,4,15,367,55,596,0:03:28
328,234,-670,135,57,199,389,45,531,0:03:28
334,253,-660,156,133,311,352,-68,563,0:03:28
357,225,-687,194,186,330,274,-158,647,0:03:28
336,231,-685,163,235,349,163,-240,725,0:03:28
339,220,-681,174,207,321,73,-266,819,0:03:28
354,241,-696,237,119,300,24,-223,869,0:03:28
343,235,-675,314,76,210,64,-84,828,0:03:28
364,229,-669,422,-36,-28,64,-84,828,0:03:28
364,225,-700,432,-86,-226,89,-57,828,0:03:28
349,210,-684,252,39,-109,112,-26,866,0:03:28
349,210,-684,77,154,34,124,0,922,0:03:28
333,216,-687,6,314,32,122,-3,950,0:03:28
351,216,-712,-3,468,69,121,-3,956,0:03:28
361,225,-697,2,433,123,111,11,954,0:03:28
346,196,-687,-51,392,123,74,17,963,0:03:28
361,214,-687,-135,413,77,42,19,958,0:03:28
364,208,-691,-125,431,32,22,29,923,0:03:28
378,217,-714,-64,424,43,-9,52,895,0:03:29
396,223,-724,-13,352,-12,-40,74,897,0:03:29
396,213,-721,-52,364,-175,-47,89,931,0:03:29
399,232,-714,-202,370,-300,-44,91,968,0:03:29
409,222,-729,-334,203,-555,-73,73,1018,0:03:29
409,228,-729,-533,152,-821,-102,79,1112,0:03:29
396,237,-721,-679,284,-905,-92,94,1193,0:03:29
394,241,-727,-608,441,-898,-134,211,1309,0:03:29
400,223,-718,-44,276,-548,-134,211,1309,0:03:29
414,210,-739,370,-4,-284,-234,229,1353,0:03:29
414,210,-739,170,-291,-314,-303,117,1441,0:03:29
408,225,-721,-155,-263,-415,-352,-7,1541,0:03:29
385,216,-735,-472,-84,-602,-388,-14,1493,0:03:29
405,222,-720,-683,177,-825,-374,-27,1284,0:03:29
373,231,-723,-630,380,-999,-345,-60,1003,0:03:29
390,246,-742,-389,319,-1049,-321,-65,766,0:03:29
396,231,-720,-168,-25,-966,-305,-59,667,0:03:29
378,235,-729,-21,-378,-827,-291,-53,716,0:03:29
384,217,-714,86,-583,-756,-282,-85,823,0:03:29
366,217,-712,102,-635,-772,-297,-143,923,0:03:29
345,201,-721,134,-340,-943,-326,-160,993,0:03:29
345,201,-721,51,56,-1089,-322,-163,1003,0:03:29
351,193,-708,-13,383,-1193,-299,-158,952,0:03:29
349,184,-717,-52,762,-1267,-290,-143,856,0:03:29
351,187,-738,84,737,-1206,-250,-106,679,0:03:29
367,175,-715,217,757,-1257,-264,-113,675,0:03:29
372,151,-739,431,1176,-1394,-264,-113,675,0:03:29
402,145,-739,681,1204,-1835,-273,-118,673,0:03:29
414,138,-756,1083,1052,-1925,-411,-80,676,0:03:29
433,109,-748,1626,1267,-1244,-256,-74,649,0:03:29
444,84,-775,2102,1458,-537,55,-148,572,0:03:29
465,33,-751,1806,1105,-378,-15,-157,702,0:03:29
507,12,-742,1057,298,-713,-258,-136,1060,0:03:29
492,-6,-742,709,-30,-880,-380,-163,1165,0:03:29
499,-13,-741,557,-201,-807,-324,-140,1022,0:03:29
508,-40,-730,392,-378,-767,-285,-102,982,0:03:29
537,-37,-745,387,-567,-897,-328,-102,977,0:03:29
513,-72,-706,513,-737,-860,-340,-110,894,0:03:29
513,-61,-708,561,-794,-695,-283,-86,868,0:03:29
492,-82,-727,492,-860,-802,-300,-89,914,0:03:29
492,-82,-727,650,-1015,-1028,-399,-184,958,0:03:29
496,-97,-700,921,-899,-1427,-517,-354,912,0:03:29
486,-108,-685,814,-683,-1788,-455,-539,1135,0:03:29
504,-130,-673,606,-908,-2140,-455,-539,1135,0:03:29
505,-145,-681,285,-879,-2422,-536,-531,1282,0:03:29
528,-144,-669,123,-648,-2475,-480,-493,1314,0:03:29
522,-153,-669,196,-459,-2314,-350,-461,1156,0:03:29
558,-159,-658,420,-742,-2070,-211,-432,934,0:03:29
577,-169,-658,722,-765,-1798,-148,-439,820,0:03:29
598,-163,-667,709,-645,-1589,-70,-398,888,0:03:29
595,-168,-651,611,-819,-1516,-108,-403,1024,0:03:30
606,-184,-648,445,-805,-1393,-154,-460,1107,0:03:30
607,-172,-636,411,-206,-1284,-131,-451,1111,0:03:30
625,-192,-643,462,52,-1164,-188,-475,1097,0:03:30
648,-189,-639,540,159,-1059,-120,-527,1032,0:03:30
654,-184,-625,597,156,-974,-69,-616,921,0:03:30
654,-184,-625,576,463,-898,-103,-666,856,0:03:30
691,-172,-603,534,1091,-786,-93,-618,803,0:03:30
705,-180,-598,564,1316,-704,-60,-579,726,0:03:30
723,-199,-580,527,1327,-631,-199,-504,584,0:03:30
735,-210,-558,459,1095,-602,-262,-455,558,0:03:30
750,-207,-541,448,980,-595,-262,-455,558,0:03:30
784,-198,-537,414,900,-584,-388,-462,542,0:03:30
795,-187,-505,319,617,-560,-439,-471,613,0:03:30
805,-201,-516,105,919,-326,-307,-459,705,0:03:30
822,-195,-511,37,737,72,-68,-462,933,0:03:30
813,-207,-475,0,368,45,-96,-546,984,0:03:30
807,-213,-502,-14,441,-24,-329,-603,780,0:03:30
831,-190,-489,86,973,223,-359,-590,627,0:03:30
831,-190,-489,60,1607,545,-282,-598,492,0:03:30
807,-201,-454,-206,1556,573,-395,-603,598,0:03:30
843,-216,-477,-372,1144,512,-593,-599,798,0:03:30
832,-216,-439,-489,546,537,-686,-609,933,0:03:30
825,-228,-448,-397,399,842,-605,-677,857,0:03:30
829,-228,-454,-711,40,893,-541,-622,679,0:03:30
774,-238,-463,-890,194,1087,-625,-452,742,0:03:30
781,-243,-471,-1180,646,1123,-681,-371,818,0:03:30
780,-241,-481,-1598,-353,653,-634,-316,576,0:03:30
748,-240,-490,-1603,-1140,307,-634,-316,576,0:03:30
739,-217,-523,-1261,-1051,441,-584,-251,518,0:03:30
736,-238,-564,-646,-317,827,-619,-108,625,0:03:30
727,-214,-579,148,674,946,-775,-163,678,0:03:30
736,-231,-571,662,1149,733,-1017,-319,649,0:03:30
697,-253,-541,716,516,189,-1071,-418,668,0:03:30
697,-253,-541,495,-142,-233,-1043,-459,830,0:03:30
729,-271,-531,325,-419,-361,-1055,-453,975,0:03:30
729,-252,-541,219,-621,-459,-1012,-447,993,0:03:30
724,-246,-522,14,-542,-410,-815,-412,890,0:03:30
739,-249,-550,89,-320,-308,-589,-340,759,0:03:30
730,-256,-532,32,32,-375,-443,-292,625,0:03:30
720,-235,-531,19,642,-263,-411,-252,492,0:03:30
744,-255,-528,164,722,-557,-566,-199,490,0:03:30
756,-259,-522,891,975,-735,-724,-192,577,0:03:30
772,-255,-501,679,1798,-630,-802,-267,653,0:03:30
807,-253,-475,213,1438,-226,-474,-345,654,0:03:30
802,-253,-489,460,304,86,-240,-277,704,0:03:30
792,-259,-462,346,90,373,-240,-277,704,0:03:30
796,-279,-457,245,269,333,-412,-386,547,0:03:30
781,-274,-441,359,410,207,-638,-440,483,0:03:30
781,-274,-441,404,416,158,-674,-491,599,0:03:30
784,-280,-450,378,554,194,-610,-537,672,0:03:30
781,-300,-459,203,838,120,-599,-636,653,0:03:31
787,-279,-429,-161,707,126,-571,-627,621,0:03:31
792,-286,-424,-228,152,294,-544,-616,618,0:03:31
789,-304,-424,-141,-65,607,-474,-533,690,0:03:31
783,-304,-430,156,-644,565,-459,-531,613,0:03:31
774,-297,-444,318,-406,475,-514,-617,634,0:03:31
742,-295,-429,491,300,142,-717,-680,737,0:03:31
738,-307,-418,527,663,-280,-1204,-713,630,0:03:31
748,-298,-405,463,413,-329,-1406,-652,474,0:03:31
748,-298,-405,209,2,-215,-1212,-515,364,0:03:31
765,-328,-412,245,-166,-63,-946,-150,272,0:03:31
771,-310,-396,683,-590,-183,-723,-266,11,0:03:31
777,-321,-397,840,-760,-338,-650,-251,256,0:03:31
778,-316,-381,723,-677,-361,-650,-251,256,0:03:31
766,-324,-375,618,-411,-404,-493,-330,502,0:03:31
756,-325,-376,644,-181,-690,-551,-393,525,0:03:31
775,-315,-355,653,82,-887,-730,-433,406,0:03:31
802,-321,-349,693,256,-860,-875,-489,314,0:03:31
798,-307,-328,790,287,-641,-913,-511,223,0:03:31
811,-309,-315,958,264,-483,-820,-486,126,0:03:31
831,-301,-295,1200,35,-321,-692,-440,63,0:03:31
850,-288,-288,1307,65,-226,-592,-426,94,0:03:31
846,-288,-240,1288,354,-168,-633,-465,235,0:03:31
846,-288,-240,947,2281,-8,-712,-484,230,0:03:31
834,-282,-234,777,2355,-59,-688,-443,-339,0:03:31
829,-285,-187,219,2093,704,-918,-553,66,0:03:31
801,-289,-147,435,799,633,-1007,-816,670,0:03:31
784,-300,-132,630,50,436,-960,-913,306,0:03:31
790,-291,-118,485,-182,239,-1000,-788,129,0:03:31
793,-295,-106,243,-363,198,-687,-759,35,0:03:31
789,-304,-124,275,-427,177,-687,-799,115,0:03:31
766,-304,-115,334,-329,166,-693,-799,115,0:03:31
777,-292,-106,299,-219,214,-664,-767,80,0:03:31
766,-304,-109,324,-380,159,-619,-766,93,0:03:31
751,-294,-130,443,-714,104,-709,-736,92,0:03:31
753,-292,-108,511,-1226,23,-800,-718,178,0:03:31
775,-289,-114,486,-1340,0,-800,-682,302,0:03:31
783,-286,-114,535,-1423,10,-807,-668,280,0:03:31
783,-286,-114,653,-1189,-71,-712,-804,120,0:03:31
805,-277,-121,718,-1045,-224,-707,-850,-52,0:03:31
817,-294,-112,686,-875,-431,-812,-724,-73,0:03:31
822,-270,-103,464,-473,-462,-832,-598,-79,0:03:31
831,-255,-99,142,-173,-358,-949,-552,-76,0:03:31
835,-288,-96,6,-90,-329,-1128,-539,102,0:03:31
847,-264,-120,125,-23,-266,-1173,-556,293,0:03:31
846,-270,-111,340,-82,-129,-1096,-637,319,0:03:31
856,-255,-114,389,74,162,-991,-724,226,0:03:31
847,-261,-97,415,170,332,-924,-707,210,0:03:31
855,-252,-85,-140,607,270,-924,-707,210,0:03:31
825,-256,-85,-645,1824,-67,-989,-458,506,0:03:31
802,-265,-94,-536,1486,-116,-873,-680,613,0:03:31
801,-264,-75,-205,1058,-66,-593,-963,32,0:03:32
801,-264,-75,51,658,71,-483,-595,-178,0:03:32
795,-283,-87,170,142,152,-347,-435,-67,0:03:32
766,-289,-67,170,-119,341,-437,-410,-142,0:03:32
798,-277,-70,72,-546,671,-524,-431,-272,0:03:32
798,-264,-64,-293,-793,800,-495,-502,-52,0:03:32
762,-297,-66,-438,-1115,777,-632,-473,150,0:03:32
756,-280,-105,-493,-1085,719,-724,-488,154,0:03:32
753,-289,-115,-515,-1066,714,-706,-545,187,0:03:32
756,-292,-114,-457,-807,695,-532,-554,185,0:03:32
747,-309,-141,-373,-365,592,-377,-535,251,0:03:32
729,-307,-166,-349,-14,605,-307,-556,371,0:03:32
727,-328,-160,-350,65,538,-303,-655,507,0:03:32
732,-346,-160,-274,137,555,-500,-1081,514,0:03:32
717,-330,-174,-510,288,728,-500,-1081,514,0:03:32
693,-331,-171,-731,348,947,-833,-957,354,0:03:32
667,-333,-207,-782,361,1026,-1082,-676,363,0:03:32
657,-345,-207,-1049,1157,-2,-1192,-623,410,0:03:32
657,-345,-207,-1118,1323,-198,-1266,-701,377,0:03:32
649,-340,-228,-457,14,-410,-678,-941,65,0:03:32
634,-348,-241,191,-1394,-464,-327,-1215,-308,0:03:32
634,-348,-241,514,-1905,-719,-669,-1162,-303,0:03:32
664,-339,-258,686,-1402,-675,-675,-961,103,0:03:32
688,-336,-247,840,-593,-436,-448,-953,123,0:03:32
696,-346,-237,819,-559,-119,-469,-950,40,0:03:32
693,-315,-208,696,-1134,110,-514,-916,187,0:03:32
711,-327,-217,683,-1584,305,-562,-776,293,0:03:32
702,-330,-183,758,-1442,427,-764,-579,315,0:03:32
693,-325,-195,931,-899,228,-718,-500,274,0:03:32
723,-315,-186,873,-149,18,-371,-435,136,0:03:32
714,-318,-177,968,332,-73,-212,-473,17,0:03:32
708,-319,-144,992,621,-170,-186,-605,163,0:03:32
703,-301,-117,790,385,-261,-186,-605,163,0:03:32
705,-310,-114,803,88,-172,-256,-637,190,0:03:32
705,-291,-108,1040,171,-214,-512,-775,33,0:03:32
729,-286,-90,1081,627,-221,-563,-880,37,0:03:32
729,-286,-90,1118,1108,-345,-481,-833,90,0:03:32
727,-282,-66,882,1552,-373,-438,-901,-75,0:03:32
694,-258,-57,664,1878,-130,-411,-1035,-85,0:03:32
691,-270,-22,546,1577,-193,-494,-836,125,0:03:32
678,-237,-33,473,1012,-422,-568,-688,202,0:03:32
639,-246,-1,318,463,-422,-507,-849,70,0:03:32
648,-237,12,83,-57,-352,-524,-866,-30,0:03:32
652,-229,15,-79,-541,-163,-537,-852,-4,0:03:32
678,-229,-3,-162,-680,69,-430,-880,-24,0:03:32
673,-210,-6,-305,-972,329,-253,-891,29,0:03:32
660,-240,-4,-421,-1330,525,-330,-915,121,0:03:32
667,-226,-22,-345,-1228,607,-492,-1035,-56,0:03:32
667,-226,-22,-444,-764,637,-683,-1133,-291,0:03:32
663,-247,-36,-680,-93,525,-826,-1069,-91,0:03:32
675,-238,-37,-850,263,317,-826,-1069,-91,0:03:33
648,-255,-54,-761,137,50,-1094,-939,165,0:03:33
664,-276,-67,-476,55,-29,-1083,-892,188,0:03:33
655,-265,-81,-275,-251,65,-776,-987,40,0:03:33
654,-264,-78,-467,-737,170,-544,-1097,70,0:03:33
657,-271,-73,-758,-1167,273,-499,-1062,127,0:03:33
661,-262,-100,-1052,-1214,385,-573,-1033,90,0:03:33
660,-295,-114,-1293,-690,397,-534,-943,77,0:03:33
670,-309,-124,-1402,-72,-39,-423,-758,18,0:03:33
651,-309,-156,-1227,429,-575,-439,-700,-24,0:03:33
655,-319,-202,-1076,479,-920,-505,-728,142,0:03:33
700,-297,-204,-903,219,-1079,-559,-830,252,0:03:33
702,-301,-228,-695,110,-1072,-581,-619,237,0:03:33
705,-309,-249,-471,181,-1034,-514,-454,191,0:03:33
705,-309,-249,-269,205,-998,-417,-480,196,0:03:33
733,-309,-247,-96,280,-614,-404,-599,244,0:03:33
742,-271,-243,91,233,-249,-420,-712,378,0:03:33
753,-280,-250,282,117,-81,-377,-680,463,0:03:33
750,-279,-235,449,35,9,-377,-680,463,0:03:33
732,-283,-225,474,275,131,-361,-683,512,0:03:33
724,-270,-214,438,532,296,-387,-698,489,0:03:33
726,-286,-205,453,281,489,-502,-754,442,0:03:33
717,-276,-204,436,106,803,-671,-873,444,0:03:33
715,-285,-192,369,58,1025,-721,-1004,694,0:03:33
681,-273,-178,171,-49,1010,-443,-1068,953,0:03:33
679,-294,-202,95,386,632,-457,-1005,588,0:03:33
678,-297,-187,-52,903,435,-769,-877,-105,0:03:33
667,-298,-160,-209,1042,674,-861,-955,-213,0:03:33
651,-292,-186,-539,1273,643,-747,-1016,58,0:03:33
610,-295,-192,-683,1266,434,-658,-789,232,0:03:33
610,-292,-183,-515,1267,478,-626,-706,146,0:03:33
606,-319,-196,-268,1531,344,-694,-712,-50,0:03:33
576,-307,-187,-80,1308,109,-808,-666,-133,0:03:33
576,-307,-187,81,754,-52,-723,-593,-80,0:03:33
571,-294,-196,193,504,-82,-488,-525,-12,0:03:33
586,-288,-204,309,297,-191,-510,-517,-12,0:03:33
571,-274,-187,359,142,-145,-510,-517,-12,0:03:33
601,-286,-193,455,-23,26,-527,-662,-15,0:03:33
565,-307,-172,470,-285,210,-574,-751,-35,0:03:33
583,-303,-178,485,-676,310,-481,-763,73,0:03:33
573,-280,-160,534,-672,-120,-591,-745,38,0:03:33
577,-283,-147,732,-423,-448,-675,-725,-40,0:03:33
568,-271,-133,769,-325,-466,-493,-821,-5,0:03:33
580,-270,-114,801,-210,-320,-446,-908,-44,0:03:33
586,-279,-102,828,-137,-156,-317,-826,-52,0:03:33
594,-253,-102,840,-217,-275,-294,-758,-24,0:03:33
612,-238,-75,867,-283,-422,-416,-823,57,0:03:33
616,-238,-81,807,-410,-598,-453,-887,94,0:03:33
607,-234,-55,576,-327,-584,-316,-1014,-85,0:03:33
621,-211,-46,394,-361,-406,-369,-1153,-137,0:03:33
621,-211,-46,321,-455,-121,-483,-1147,15,0:03:33
634,-219,-24,217,-463,151,-365,-1050,-108,0:03:34
634,-219,-24,165,-275,221,-558,-1051,-177,0:03:34
642,-229,-42,-73,-193,140,-558,-1051,-177,0:03:34
637,-211,-21,-457,-268,119,-807,-1040,28,0:03:34
637,-211,-21,-654,-298,86,-889,-1037,113,0:03:34
625,-223,-27,-615,-175,90,-881,-981,49,0:03:34
640,-223,-39,-410,96,184,-824,-920,20,0:03:34
628,-226,-63,-14,392,256,-736,-893,-9,0:03:34
615,-228,-42,82,435,235,-659,-843,-20,0:03:34
625,-232,-45,51,364,248,-669,-867,-56,0:03:34
631,-214,-52,28,198,298,-783,-941,-113,0:03:34
604,-219,-48,-63,-150,317,-838,-945,-76,0:03:34
607,-231,-43,-152,-308,308,-792,-902,-38,0:03:34
607,-231,-43,-138,-317,416,-692,-841,-51,0:03:34
612,-223,-58,-236,-227,301,-592,-825,-30,0:03:34
586,-217,-57,-277,45,144,-453,-785,-10,0:03:34
604,-240,-40,-277,187,75,-342,-734,27,0:03:34
594,-241,-43,-289,270,20,-307,-669,71,0:03:34
595,-241,-64,-289,352,-14,-243,-435,42,0:03:34
601,-241,-43,-219,480,-128,-244,-392,40,0:03:34
594,-238,-55,-187,609,-108,-244,-392,40,0:03:34
597,-210,-55,-128,560,-135,-336,-387,128,0:03:34
600,-241,-66,-76,466,-73,-350,-455,181,0:03:34
589,-238,-55,-21,424,29,-312,-628,208,0:03:34
570,-247,-52,-57,384,107,-327,-731,271,0:03:34
585,-229,-40,-170,71,194,-336,-822,339,0:03:34
588,-240,-64,-88,-321,298,-340,-887,289,0:03:34
559,-253,-46,-182,26,80,-507,-947,140,0:03:34
583,-250,-34,-352,17,135,-757,-980,251,0:03:34
576,-277,-46,-16,-172,111,-823,-1050,418,0:03:34
573,-249,-55,9,-16,-111,-915,-979,9,0:03:34
580,-253,-54,-474,-556,25,-948,-921,-341,0:03:34
595,-256,-61,-629,-755,11,-777,-961,-276,0:03:34
595,-256,-61,-421,-408,-148,-629,-814,-176,0:03:34
603,-258,-64,-14,-120,-259,-519,-711,-114,0:03:34
609,-265,-58,294,-115,-309,-669,-894,-194,0:03:34
616,-261,-60,485,-343,-81,-856,-1010,-296,0:03:34
628,-273,-60,653,-340,15,-856,-1010,-296,0:03:34
627,-255,-42,725,-407,55,-837,-928,-266,0:03:34
633,-249,-42,786,-463,66,-650,-802,-167,0:03:34
645,-234,-22,863,-408,27,-561,-796,-114,0:03:34
652,-226,-3,858,-402,-93,-511,-838,-71,0:03:34
655,-223,6,900,-360,-245,-465,-756,-91,0:03:34
666,-211,7,1001,-298,-432,-451,-653,-123,0:03:34
661,-180,15,967,-229,-389,-430,-690,-124,0:03:34
688,-184,49,1031,-147,-375,-462,-739,-175,0:03:34
705,-175,40,977,-177,-298,-475,-729,-127,0:03:34
708,-148,63,804,-144,-188,-508,-735,-37,0:03:34
688,-147,60,624,-245,-154,-510,-778,-59,0:03:34
688,-147,60,500,-327,-149,-435,-777,-75,0:03:34
693,-138,64,452,-380,-111,-432,-816,-50,0:03:34
732,-129,78,448,-461,0,-448,-884,-26,0:03:35
738,-120,75,463,-464,109,-442,-927,-19,0:03:35
736,-132,66,483,-329,102,-351,-928,-46,0:03:35
729,-108,75,427,-112,121,-378,-935,-57,0:03:35
735,-105,88,340,-19,152,-378,-935,-57,0:03:35
727,-99,99,229,-16,170,-393,-972,-14,0:03:35
745,-81,114,153,36,282,-370,-1085,1,0:03:35
753,-94,88,119,39,305,-402,-1140,-71,0:03:35
745,-105,100,522,679,655,-314,-1139,-280,0:03:35
723,-88,94,-44,381,399,-327,-1149,-282,0:03:35
706,-112,115,-685,-48,315,-576,-1001,-186,0:03:35
706,-112,115,-1221,-326,303,-791,-941,-281,0:03:35
709,-115,94,-1549,144,163,-864,-1061,-268,0:03:35
730,-154,58,-1442,374,88,-804,-1065,-199,0:03:35
717,-177,60,-1132,428,-16,-684,-1025,-149,0:03:35
715,-178,40,-1053,385,-154,-563,-924,-95,0:03:35
717,-192,46,-1098,480,-257,-614,-793,-90,0:03:35
712,-189,37,-1066,612,-179,-661,-836,-143,0:03:35
705,-216,-10,-821,660,61,-582,-918,-142,0:03:35
708,-216,-6,-558,533,394,-520,-909,-39,0:03:35
700,-232,-4,-412,505,429,-573,-658,-16,0:03:35
688,-253,-19,-321,622,338,-573,-658,-16,0:03:35
658,-265,-3,-147,676,308,-454,-584,-42,0:03:35
651,-271,-16,-130,418,140,-339,-575,-24,0:03:35
669,-270,-13,296,610,361,-331,-481,38,0:03:35
643,-246,-10,559,657,443,-384,-539,92,0:03:35
643,-246,-10,798,965,330,-312,-669,51,0:03:35
631,-247,4,523,728,349,-190,-645,25,0:03:35
597,-228,25,-150,102,453,-328,-576,91,0:03:35
601,-243,19,-564,-280,627,-452,-550,103,0:03:35
579,-255,19,-890,-380,707,-386,-666,141,0:03:35
576,-264,-6,-891,-229,875,-330,-870,248,0:03:35
583,-265,-10,-880,-219,1045,-266,-1021,327,0:03:35
552,-280,-22,-899,-270,1003,-171,-1066,278,0:03:35
543,-282,-45,-779,142,796,-280,-1193,219,0:03:35
537,-303,-22,-404,203,520,-462,-1365,322,0:03:35
523,-307,-82,-235,-51,153,-464,-1447,136,0:03:35
516,-310,-76,31,-51,75,-408,-1315,-40,0:03:35
507,-307,-57,-396,-205,88,-252,-975,-14,0:03:35
519,-298,-85,-499,-231,93,-252,-975,-14,0:03:35
519,-298,-85,-96,-198,100,-326,-964,-89,0:03:35
505,-319,-75,310,-170,63,-292,-872,-112,0:03:35
505,-319,-75,519,-140,148,-290,-884,-123,0:03:35
504,-346,-73,456,-229,290,-280,-914,-66,0:03:35
522,-313,-46,366,-357,378,-260,-935,-9,0:03:35
507,-313,-52,389,-385,319,-249,-962,-22,0:03:35
486,-309,-43,449,-435,195,-181,-961,-73,0:03:35
514,-297,-42,459,-531,33,-107,-916,-71,0:03:35
501,-328,-33,454,-490,-56,-118,-929,-55,0:03:35
498,-301,-19,478,-429,-74,-136,-962,-74,0:03:35
519,-283,-39,551,-302,-49,-114,-937,-57,0:03:36
523,-295,-21,585,-318,-132,-170,-873,-13,0:03:36
516,-292,1,550,-303,-214,-179,-806,21,0:03:36
541,-289,-3,518,-373,-269,-209,-811,6,0:03:36
541,-289,-3,443,-397,-220,-165,-861,-7,0:03:36
553,-279,40,347,-314,-189,-42,-906,16,0:03:36
553,-279,40,286,-202,-224,-57,-918,43,0:03:36
540,-271,13,357,-95,-230,-57,-918,43,0:03:36
562,-267,30,284,-68,-129,13,-923,92,0:03:36
556,-265,21,258,-93,-28,1,-980,73,0:03:36
568,-249,37,185,-96,-15,-61,-1052,40,0:03:36
562,-250,19,61,-60,-29,-22,-1096,119,0:03:36
567,-246,40,-61,15,9,43,-1127,103,0:03:36
568,-261,43,-145,109,46,76,-1103,35,0:03:36
577,-264,40,-309,290,23,46,-1099,-68,0:03:36
549,-244,28,-352,459,-1,16,-1102,-114,0:03:36
561,-258,-3,-236,393,-166,-71,-1058,-155,0:03:36
556,-244,18,-174,540,-436,-292,-1135,-138,0:03:36
555,-256,3,-492,568,-466,-195,-981,207,0:03:36
546,-270,4,-521,499,-36,-345,-1351,19,0:03:36
559,-283,-15,-741,165,357,-434,-1479,-249,0:03:36
546,-285,-18,-847,133,540,-183,-871,-97,0:03:36
538,-277,-34,-812,209,419,-360,-976,-165,0:03:36
525,-291,-63,-779,129,320,-418,-1149,-142,0:03:36
525,-291,-63,-765,51,263,-289,-1072,-49,0:03:36
495,-303,-60,-744,72,155,-289,-1072,-49,0:03:36
525,-310,-66,-673,151,93,-253,-1006,8,0:03:36
502,-292,-91,-580,284,50,-197,-925,40,0:03:36
495,-292,-109,-354,413,85,-102,-872,-57,0:03:36
511,-321,-124,-122,504,65,-48,-813,-45,0:03:36
486,-327,-130,-1,531,-70,-66,-752,95,0:03:36
495,-297,-136,107,499,-287,-65,-729,122,0:03:36
493,-322,-142,219,470,-525,-85,-703,118,0:03:36
495,-300,-132,-17,399,-744,-127,-637,174,0:03:36
513,-304,-147,-156,329,-106,-155,-527,288,0:03:36
507,-304,-139,-121,408,15,34,-394,310,0:03:36
514,-298,-147,-195,511,-29,83,-558,396,0:03:36
514,-298,-147,-475,492,32,-75,-828,511,0:03:36
504,-301,-144,-736,206,81,-89,-896,380,0:03:36
508,-298,-142,-401,589,-69,-243,-1029,217,0:03:36
496,-310,-175,-199,639,100,-315,-1108,763,0:03:36
507,-306,-183,-728,88,226,-282,-1021,410,0:03:36
495,-318,-171,-602,-38,196,-282,-1021,410,0:03:36
486,-286,-193,-249,93,196,-365,-1046,-195,0:03:36
502,-294,-216,-337,18,273,-375,-1165,-104,0:03:36
490,-276,-216,-371,-16,38,-270,-1235,79,0:03:36
471,-319,-228,99,-22,-131,-191,-1175,27,0:03:36
492,-292,-211,595,-168,-234,-122,-1040,37,0:03:36
480,-318,-207,816,-259,-256,-80,-905,-16,0:03:36
477,-289,-186,863,-143,-281,-93,-1002,-118,0:03:36
507,-279,-186,842,-105,-205,-182,-1070,-120,0:03:36
507,-279,-186,781,-118,-178,-222,-1008,-69,0:03:37
492,-283,-163,756,-249,-226,-206,-972,-13,0:03:37
510,-285,-147,660,-326,-249,-249,-867,32,0:03:37
496,-273,-133,644,-266,-262,-238,-893,6,0:03:37
504,-258,-139,668,-273,-224,-197,-950,24,0:03:37
492,-255,-106,638,-277,-166,-182,-914,65,0:03:37
507,-250,-90,536,-259,-123,-159,-869,37,0:03:37
528,-250,-82,519,-211,-167,-151,-814,3,0:03:37
525,-244,-85,515,-176,-235,-151,-815,15,0:03:37
529,-237,-76,504,-119,-281,-148,-815,15,0:03:37
553,-232,-79,479,-70,-303,-158,-830,71,0:03:37
496,-232,-67,445,-72,-304,-142,-855,98,0:03:37
552,-217,-69,413,-11,-243,-101,-911,118,0:03:37
541,-210,-51,380,27,-175,-70,-993,130,0:03:37
553,-219,-57,348,49,-106,-113,-1027,95,0:03:37
558,-225,-54,249,-49,-18,-152,-1012,118,0:03:37
561,-207,-52,247,-149,155,-98,-1034,142,0:03:37
568,-205,-87,196,-254,381,-64,-1103,46,0:03:37
568,-205,-87,-319,77,434,-111,-1302,-116,0:03:37
553,-205,-57,-725,206,413,-179,-1386,-127,0:03:37
555,-196,-70,-949,121,301,-282,-1228,-78,0:03:37
528,-220,-76,-933,159,124,-424,-1106,-98,0:03:37
537,-237,-105,-894,406,-53,-541,-1061,-50,0:03:37
555,-220,-85,-830,369,-120,-522,-1056,-81,0:03:37
546,-228,-106,-911,87,-85,-436,-1037,70,0:03:37
565,-231,-114,-963,-2,-34,-413,-1018,84,0:03:37
537,-229,-126,-885,-33,-2,-413,-1018,84,0:03:37
535,-253,-150,-808,-51,46,-368,-966,60,0:03:37
538,-255,-136,-701,46,149,-272,-909,59,0:03:37
547,-262,-178,-662,98,166,-210,-851,82,0:03:37
543,-259,-187,-654,185,118,-151,-746,188,0:03:37
540,-261,-178,-639,116,248,-134,-846,129,0:03:37
550,-262,-196,-368,161,457,-31,-904,79,0:03:37
546,-255,-201,-103,321,403,-16,-720,235,0:03:37
499,-240,-192,-25,392,265,-170,-813,226,0:03:37
499,-240,-192,204,324,273,-189,-840,203,0:03:37
538,-240,-201,930,-70,329,-208,-657,260,0:03:37
505,-250,-180,428,43,416,-73,-667,396,0:03:37
505,-250,-180,29,224,329,-8,-738,466,0:03:37
510,-250,-174,-32,326,207,-58,-780,407,0:03:37
493,-240,-175,35,198,280,-9,-813,460,0:03:37
487,-253,-183,-78,4,418,18,-889,535,0:03:37
498,-246,-190,-372,297,464,-169,-1310,472,0:03:37
456,-244,-187,-567,515,395,-219,-1327,671,0:03:37
484,-261,-208,-693,251,317,-219,-1327,671,0:03:37
465,-258,-220,-259,-155,145,-268,-1307,548,0:03:37
462,-268,-210,198,-348,-156,-344,-1113,42,0:03:37
486,-250,-222,179,-403,-280,-345,-854,-21,0:03:37
474,-253,-207,249,-458,-191,-230,-894,137,0:03:37
474,-253,-207,361,-351,-114,-112,-977,20,0:03:37
489,-258,-207,557,-361,-46,-93,-1031,-29,0:03:38
477,-261,-156,828,-616,-67,-145,-985,32,0:03:38
477,-261,-156,911,-762,-174,-205,-646,78,0:03:38
496,-240,-162,960,-732,-284,-149,-572,-48,0:03:38
501,-249,-138,1157,-749,-406,-32,-894,-182,0:03:38
505,-261,-129,992,-578,-216,15,-1007,-155,0:03:38
513,-243,-96,832,-658,-483,-60,-952,-125,0:03:38
522,-217,-66,749,-863,-1237,-44,-1035,-76,0:03:38
556,-211,-69,676,-452,-1184,12,-1212,-40,0:03:38
577,-205,-69,736,-176,-774,-146,-961,-309,0:03:38
589,-201,-42,928,247,-287,-398,-1594,-76,0:03:38
574,-183,-28,798,-84,99,-398,-1594,-76,0:03:38
580,-166,-15,635,-310,72,-393,-1436,-3,0:03:38
550,-172,-13,599,-359,8,-165,-1193,-171,0:03:38
567,-151,0,526,-374,-29,-107,-1260,-71,0:03:38
567,-151,0,477,-415,-138,-101,-1154,-38,0:03:38
583,-148,3,459,-434,-262,-114,-1055,-55,0:03:38
585,-159,13,486,-446,-315,-62,-1063,9,0:03:38
571,-145,9,464,-406,-295,34,-959,33,0:03:38
595,-132,27,417,-353,-169,102,-960,-38,0:03:38
597,-118,42,274,-305,47,141,-933,88,0:03:38
604,-130,40,66,-269,191,149,-978,100,0:03:38
585,-111,19,-204,-74,305,159,-1173,-138,0:03:38
601,-115,37,-413,102,289,34,-1323,-262,0:03:38
592,-127,9,-567,-113,193,-314,-1374,-99,0:03:38
585,-133,4,-565,-226,88,-479,-1285,7,0:03:38
585,-133,4,-585,-284,-68,-401,-1158,-59,0:03:38
589,-126,6,-356,-212,-158,-320,-1061,-125,0:03:38
580,-135,12,-286,-387,-104,-175,-1226,-279,0:03:38
595,-135,-10,-548,-296,-130,-175,-1226,-279,0:03:38
586,-135,-24,-648,-13,90,-349,-1187,-94,0:03:38
576,-171,-10,-542,-38,364,-507,-1178,-40,0:03:38
594,-162,-43,-580,-32,558,-403,-1266,-194,0:03:38
577,-169,-42,-664,79,550,-365,-1125,-102,0:03:38
574,-169,-52,-616,100,294,-391,-939,-9,0:03:38
573,-175,-45,-585,85,231,-259,-866,-2,0:03:38
556,-177,-45,-654,125,319,-165,-769,28,0:03:38
561,-193,-52,-647,233,364,-178,-744,-1,0:03:38
555,-183,-72,-461,473,291,-190,-843,-43,0:03:38
537,-211,-85,-358,524,299,-107,-765,-16,0:03:38
522,-219,-99,-487,567,415,-77,-653,89,0:03:38
514,-208,-112,-646,555,561,-82,-696,118,0:03:38
514,-208,-112,-886,693,470,-16,-814,89,0:03:38
490,-205,-126,-865,882,158,45,-933,190,0:03:38
493,-216,-127,-395,657,78,117,-888,335,0:03:38
484,-214,-139,-14,315,197,226,-779,604,0:03:38
480,-208,-151,228,-87,292,67,-872,393,0:03:38
486,-219,-139,-336,525,538,67,-872,393,0:03:38
478,-225,-147,-782,362,572,-124,-1116,519,0:03:38
454,-213,-147,-513,-165,375,-277,-1101,716,0:03:38
435,-235,-154,-141,-85,36,-444,-1282,155,0:03:38
444,-240,-147,41,-411,-162,-431,-1314,-47,0:03:39
442,-231,-144,415,-576,-326,-245,-1067,-7,0:03:39
432,-240,-154,543,-230,-402,-137,-1034,-149,0:03:39
453,-228,-151,497,43,-347,-119,-1106,-115,0:03:39
451,-261,-141,539,213,-142,-150,-1111,-110,0:03:39
454,-226,-132,994,26,106,-198,-1020,-92,0:03:39
442,-240,-138,1267,-405,455,-191,-935,-31,0:03:39
442,-226,-90,1367,-955,809,76,-976,-21,0:03:39
441,-208,-78,1372,-1309,594,164,-1116,-186,0:03:39
430,-204,-63,1253,-1236,193,-109,-1274,-315,0:03:39
427,-183,-39,638,-1101,-448,-380,-1329,-226,0:03:39
427,-183,-39,714,-658,-947,-340,-236,-75,0:03:39
451,-171,-16,881,282,-1348,156,-921,-59,0:03:39
492,-180,-12,130,135,-1179,-449,694,-76,0:03:39
490,-162,4,466,-431,-1420,-449,694,-76,0:03:39
514,-171,22,606,-381,-1296,-674,1140,-456,0:03:39
532,-154,12,119,-308,-725,-469,-120,-490,0:03:39
544,-148,25,70,-329,-528,-427,-952,-165,0:03:39
553,-163,25,77,-287,-490,-302,-1108,-59,0:03:39
568,-168,1,73,-140,-397,-210,-693,-4,0:03:39
576,-151,33,585,-234,-397,-111,-744,15,0:03:39
564,-144,36,327,-315,-310,-13,-990,156,0:03:39
591,-151,10,184,-332,-88,50,-1069,169,0:03:39
589,-142,19,56,-111,192,119,-1120,-7,0:03:39
586,-150,51,-242,205,254,242,-1062,79,0:03:39
586,-148,21,-455,121,254,166,-1076,250,0:03:39
604,-138,12,-611,-122,56,-67,-1200,141,0:03:39
577,-153,21,-772,-94,51,-51,-1284,-151,0:03:39
577,-153,21,-966,-18,508,74,-1341,-132,0:03:39
583,-162,16,-1082,-400,647,-500,-1160,123,0:03:39
562,-199,-19,-994,-600,595,-543,-1317,-106,0:03:39
562,-199,-19,-430,-1648,1652,-543,-1317,-106,0:03:39
582,-213,-46,-641,-1544,2057,-459,-1308,-177,0:03:39
567,-214,-69,-921,-1433,1612,-130,-1171,-101,0:03:39
556,-210,-76,-921,-1058,815,60,-1208,93,0:03:39
529,-228,-72,-912,-336,790,49,-1017,209,0:03:39
535,-237,-90,-969,70,1262,24,-957,-22,0:03:39
502,-246,-99,-656,460,1675,-187,-1023,-124,0:03:39
483,-235,-108,-270,728,1918,-204,-994,157,0:03:39
450,-219,-138,151,889,2360,-24,-1135,213,0:03:39
390,-225,-120,400,1180,2458,12,-1163,-19,0:03:39
369,-201,-118,295,1148,2411,124,-966,-127,0:03:39
327,-190,-142,324,913,1990,134,-816,33,0:03:39
327,-190,-142,366,877,1423,-5,-752,-91,0:03:39
304,-177,-136,427,844,742,97,-827,-162,0:03:39
282,-126,-121,390,643,103,94,-867,55,0:03:39
283,-135,-160,481,276,-135,103,-785,179,0:03:39
262,-148,-147,504,201,-257,333,-644,206,0:03:39
252,-136,-133,527,520,-525,322,-654,205,0:03:39
250,-124,-150,561,868,-733,322,-654,205,0:03:39
258,-121,-132,681,1015,-391,400,-733,299,0:03:39
264,-153,-142,403,1024,40,608,-765,470,0:03:40
258,-124,-153,81,833,415,1013,-861,638,0:03:40
243,-135,-144,-165,877,517,1277,-1166,730,0:03:40
216,-109,-172,-35,653,225,869,-945,821,0:03:40
223,-109,-186,341,494,-107,237,-434,766,0:03:40
220,-105,-168,294,412,-392,-109,-627,355,0:03:40
216,-96,-196,-212,165,-336,-131,-1450,-20,0:03:40
214,-100,-184,-193,-674,-469,157,-1824,251,0:03:40
241,-111,-180,142,-472,-858,59,-1050,94,0:03:40
237,-121,-180,559,-1150,-1167,-321,-429,-286,0:03:40
253,-132,-156,585,-1500,-1146,7,-592,-202,0:03:40
253,-132,-156,632,-774,-771,467,-885,-401,0:03:40
289,-165,-138,504,-334,-525,637,-1327,-414,0:03:40
294,-132,-130,445,-142,-326,323,-917,-70,0:03:40
301,-157,-136,588,-98,-187,37,-811,11,0:03:40
288,-148,-120,561,-497,-325,37,-811,11,0:03:40
312,-138,-115,548,-570,-352,-181,-796,61,0:03:40
322,-150,-91,723,-778,-369,-137,-861,-126,0:03:40
345,-132,-69,686,-833,-331,222,-899,-191,0:03:40
352,-118,-70,521,-686,-274,361,-890,-96,0:03:40
364,-123,-36,326,-620,-123,270,-925,-65,0:03:40
334,-136,-39,193,-660,-4,198,-976,-52,0:03:40
354,-126,-42,135,-788,35,175,-947,-78,0:03:40
382,-121,-48,140,-718,-23,255,-884,-61,0:03:40
378,-127,-12,294,-575,-65,408,-835,-19,0:03:40
385,-106,-16,415,-619,-242,428,-851,14,0:03:40
402,-123,-3,487,-681,-273,308,-934,41,0:03:40
402,-123,-3,442,-620,-302,279,-1034,39,0:03:40
411,-100,10,295,-588,-270,314,-991,37,0:03:40
405,-108,9,197,-472,-284,408,-875,32,0:03:40
429,-96,7,145,-403,-238,536,-869,10,0:03:40
447,-85,24,1,-282,-126,509,-971,25,0:03:40
439,-106,39,-124,-25,-21,480,-1041,7,0:03:40
448,-70,21,-318,262,205,480,-1041,7,0:03:40
444,-94,18,-529,469,412,541,-1153,-59,0:03:40
436,-94,27,-847,620,617,558,-1254,13,0:03:40
426,-96,16,-1403,526,700,366,-1290,217,0:03:40
406,-111,9,-1794,245,645,190,-1292,246,0:03:40
412,-121,-33,-1912,166,697,119,-1171,135,0:03:40
387,-153,-76,-1719,507,695,207,-1225,60,0:03:40
387,-153,-76,-1539,595,685,314,-1361,-38,0:03:40
378,-151,-94,-1380,29,817,102,-1185,3,0:03:40
372,-154,-100,-1231,-745,1162,-144,-1023,268,0:03:40
355,-168,-115,-1147,-1183,1983,57,-1103,301,0:03:40
346,-151,-127,-1039,-909,2074,458,-1144,98,0:03:40
339,-139,-114,-872,-783,1696,535,-1021,83,0:03:40
318,-133,-133,-627,-485,1124,384,-936,60,0:03:40
336,-138,-144,-389,-127,924,284,-801,-41,0:03:40
319,-129,-115,-199,374,865,477,-744,-50,0:03:40
292,-118,-136,22,499,675,546,-547,143,0:03:40
286,-115,-144,254,215,706,546,-547,143,0:03:40
280,-118,-142,408,273,614,389,-508,165,0:03:41
264,-94,-145,429,372,236,267,-461,133,0:03:41
268,-93,-130,597,497,-220,202,-268,68,0:03:41
276,-91,-144,808,371,-445,142,-157,63,0:03:41
277,-97,-150,901,365,-460,391,-243,195,0:03:41
274,-78,-129,849,427,-367,635,-299,374,0:03:41
283,-81,-138,631,346,-182,676,-337,562,0:03:41
283,-81,-138,288,576,226,894,-410,733,0:03:41
267,-81,-132,252,1007,794,1336,-799,739,0:03:41
262,-87,-145,121,388,686,1428,-1128,800,0:03:41
261,-61,-133,198,-410,292,643,-730,984,0:03:41
258,-76,-145,-245,160,-121,81,-705,415,0:03:41
253,-96,-145,-646,-394,-191,478,-1364,-127,0:03:41
261,-78,-138,-541,-602,-301,813,-1311,-223,0:03:41
271,-106,-148,-286,-794,-441,395,-956,-229,0:03:41
255,-111,-118,17,-1228,-667,408,-845,-284,0:03:41
295,-100,-135,380,-1197,-723,661,-912,-285,0:03:41
304,-99,-112,676,-784,-659,661,-912,-285,0:03:41
306,-97,-91,907,-431,-656,732,-851,-154,0:03:41
321,-105,-96,975,-22,-671,639,-815,-113,0:03:41
340,-99,-94,1000,149,-667,608,-936,-109,0:03:41
333,-100,-78,812,-35,-721,573,-946,-41,0:03:41
360,-117,-72,680,-463,-652,298,-853,108,0:03:41
364,-109,-67,632,-459,-616,287,-757,93,0:03:41
364,-109,-67,613,-389,-591,497,-715,-67,0:03:41
364,-102,-48,550,-578,-485,434,-676,-78,0:03:41
381,-94,-61,380,-728,-370,454,-690,-15,0:03:41
376,-102,-37,407,-539,-318,453,-748,0,0:03:41
393,-103,-19,440,-415,-456,374,-774,-80,0:03:41
402,-85,-15,405,-639,-942,249,-765,-105,0:03:41
429,-96,19,359,-481,-1400,114,-745,-35,0:03:41
442,-82,10,355,-95,-1444,309,-858,-11,0:03:41
450,-90,15,343,-369,-1093,622,-992,227,0:03:41
478,-111,12,298,-581,-688,757,-968,-15,0:03:41
496,-91,4,177,-588,-480,757,-968,-15,0:03:41
510,-97,6,70,-547,-423,742,-930,-26,0:03:41
507,-85,39,2,-406,-241,678,-860,-19,0:03:41
508,-100,19,-85,-436,-54,627,-829,15,0:03:41
508,-100,19,-247,-348,23,513,-850,119,0:03:41
525,-100,24,-440,-17,214,570,-986,113,0:03:41
519,-93,16,-588,362,438,715,-1085,-50,0:03:41
546,-93,-3,-777,786,572,726,-1101,-75,0:03:41
510,-105,-4,-1068,809,736,661,-1091,-21,0:03:41
517,-123,-28,-1106,788,778,498,-1097,75,0:03:41
481,-115,-27,-1061,528,443,252,-1213,99,0:03:41
469,-159,-52,-1070,65,211,-65,-1296,15,0:03:41
477,-178,-75,-1290,-436,6,-143,-1195,-280,0:03:41
471,-169,-85,-1207,-399,16,72,-1057,-313,0:03:41
478,-189,-85,-1005,-823,228,360,-1297,122,0:03:41
468,-201,-102,-531,-1041,417,663,-1520,227,0:03:41
492,-187,-102,-368,-452,523,448,-1250,180,0:03:42
477,-187,-114,-307,-136,642,482,-1252,280,0:03:42
465,-187,-111,-209,-125,616,482,-1252,280,0:03:42
468,-198,-102,-138,336,608,403,-1102,95,0:03:42
450,-201,-120,-81,609,435,344,-995,-54,0:03:42
450,-201,-120,-106,872,352,341,-815,0,0:03:42
438,-199,-124,-48,904,253,278,-680,-62,0:03:42
447,-163,-129,40,937,166,89,-558,-135,0:03:42
436,-183,-132,132,1168,40,71,-524,-140,0:03:42
411,-172,-124,199,1042,7,-171,-395,-235,0:03:42
399,-192,-138,223,1220,-93,-115,-326,-75,0:03:42
411,-180,-144,285,954,-347,401,-554,296,0:03:42
390,-184,-147,248,820,-323,645,-636,505,0:03:42
369,-178,-150,18,870,36,795,-621,624,0:03:42
373,-180,-145,155,873,562,996,-915,696,0:03:42
381,-168,-151,334,543,679,933,-1218,621,0:03:42
357,-193,-147,311,-209,486,585,-1006,616,0:03:42
361,-169,-151,207,453,142,256,-777,682,0:03:42
361,-169,-151,-102,249,16,16,-1140,188,0:03:42
354,-177,-160,-163,-283,-243,165,-1477,54,0:03:42
352,-160,-157,-5,-149,-618,179,-1143,8,0:03:42
351,-172,-160,158,-119,-911,-81,-702,-283,0:03:42
358,-156,-147,434,-280,-859,80,-828,-250,0:03:42
378,-174,-157,620,-74,-717,415,-1080,-253,0:03:42
364,-175,-150,637,121,-727,533,-1124,-146,0:03:42
387,-153,-135,676,207,-812,403,-1000,-86,0:03:42
406,-174,-114,754,221,-799,325,-939,-92,0:03:42
427,-163,-109,672,264,-595,262,-976,-95,0:03:42
430,-193,-129,602,177,-521,105,-948,-54,0:03:42
424,-175,-120,539,114,-520,68,-932,-21,0:03:42
433,-174,-100,552,16,-527,178,-960,-13,0:03:42
438,-154,-106,572,-65,-533,245,-929,12,0:03:42
439,-157,-102,546,-116,-445,255,-876,-17,0:03:42
459,-166,-75,483,-91,-431,254,-823,-29,0:03:42
463,-151,-73,436,-10,-417,202,-816,7,0:03:42
463,-151,-73,420,42,-368,153,-856,14,0:03:42
471,-166,-85,381,-32,-336,175,-923,40,0:03:42
463,-135,-69,352,-200,-367,144,-894,33,0:03:42
490,-160,-73,317,-303,-385,144,-894,33,0:03:42
499,-138,-61,267,-397,-367,179,-941,40,0:03:42
504,-150,-64,220,-452,-374,265,-1011,28,0:03:42
516,-150,-57,143,-343,-333,350,-1014,18,0:03:42
526,-147,-60,65,-200,-252,431,-962,35,0:03:42
522,-154,-63,-58,90,-191,457,-976,91,0:03:42
517,-154,-49,-224,382,-87,531,-957,104,0:03:42
523,-145,-57,-498,562,36,597,-899,70,0:03:42
510,-148,-61,-758,627,222,591,-971,37,0:03:42
510,-153,-72,-873,742,430,552,-1199,42,0:03:42
489,-180,-69,-1185,627,639,529,-1278,117,0:03:42
478,-169,-78,-1225,436,805,450,-1243,143,0:03:42
475,-193,-105,-1122,453,923,318,-1298,80,0:03:42
475,-193,-105,-844,640,919,221,-1276,3,0:03:43
447,-189,-129,-520,901,797,168,-1252,-136,0:03:43
421,-186,-142,-362,842,847,323,-947,8,0:03:43
396,-189,-160,-273,422,961,371,-1093,129,0:03:43
391,-181,-166,-277,-74,1060,371,-1093,129,0:03:43
367,-186,-156,-221,-400,1024,329,-1209,-2,0:03:43
361,-166,-169,132,-317,868,247,-1162,-84,0:03:43
351,-163,-175,389,51,921,156,-1030,-57,0:03:43
333,-157,-153,443,550,1009,160,-986,4,0:03:43
337,-151,-175,386,939,1010,236,-986,14,0:03:43
315,-151,-180,368,1145,905,288,-925,-13,0:03:43
297,-118,-169,428,1323,753,219,-795,0,0:03:43
283,-114,-187,452,1192,600,89,-693,39,0:03:43
288,-115,-207,521,1010,412,8,-649,88,0:03:43
252,-108,-174,577,812,219,-28,-644,141,0:03:43
283,-103,-217,594,714,4,18,-604,180,0:03:43
283,-103,-217,563,742,-196,106,-538,226,0:03:43
270,-90,-202,498,877,-368,190,-580,279,0:03:43
270,-90,-202,416,1086,-486,360,-652,343,0:03:43
268,-103,-201,392,1199,-420,591,-739,400,0:03:43
244,-108,-232,317,1124,-134,901,-973,449,0:03:43
255,-106,-243,320,817,316,931,-1064,358,0:03:43
262,-99,-252,380,557,555,931,-1064,358,0:03:43
256,-108,-249,292,406,397,792,-949,463,0:03:43
240,-97,-267,267,475,56,444,-787,583,0:03:43
255,-103,-267,93,662,-95,221,-1092,263,0:03:43
234,-84,-247,-163,-130,-83,101,-1489,73,0:03:43
246,-96,-258,-137,-574,-384,104,-1201,103,0:03:43
250,-106,-261,52,-443,-639,50,-659,-135,0:03:43
262,-124,-255,378,-463,-678,-106,-520,-231,0:03:43
262,-124,-255,489,-263,-632,246,-812,-198,0:03:43
271,-112,-246,377,443,-583,686,-1123,-223,0:03:43
274,-111,-244,378,807,-491,726,-1158,-156,0:03:43
252,-120,-237,443,865,-405,514,-1037,-136,0:03:43
250,-135,-222,515,754,-380,314,-950,-121,0:03:43
280,-138,-249,576,592,-392,151,-942,-73,0:03:43
267,-127,-238,616,457,-413,44,-927,-25,0:03:43
267,-153,-250,640,416,-434,80,-937,18,0:03:43
276,-138,-243,655,348,-436,212,-935,37,0:03:43
307,-153,-241,665,318,-497,212,-935,37,0:03:43
277,-145,-237,666,277,-576,143,-876,10,0:03:43
288,-135,-232,655,182,-630,91,-850,-15,0:03:43
312,-147,-229,611,135,-663,87,-859,-30,0:03:43
318,-156,-196,580,88,-653,106,-874,-51,0:03:43
316,-172,-211,569,41,-644,104,-864,-60,0:03:43
312,-154,-205,543,-73,-645,109,-874,-53,0:03:43
333,-172,-201,486,-217,-635,138,-915,-24,0:03:43
333,-172,-201,410,-304,-634,168,-956,0,0:03:43
345,-175,-199,331,-341,-626,203,-971,5,0:03:43
346,-169,-193,261,-376,-574,258,-964,-1,0:03:43
345,-175,-198,234,-249,-485,320,-977,2,0:03:43
364,-183,-181,193,32,-371,393,-1024,-5,0:03:44
363,-169,-171,131,158,-327,520,-1024,-22,0:03:44
378,-181,-165,21,304,-240,507,-1000,17,0:03:44
354,-183,-163,-220,322,-46,419,-1112,62,0:03:44
376,-178,-171,-448,347,191,599,-1222,-69,0:03:44
355,-198,-172,-667,491,413,531,-1226,78,0:03:44
358,-184,-175,-845,410,724,531,-1226,78,0:03:44
325,-177,-201,-1029,271,968,314,-1216,185,0:03:44
312,-172,-234,-1124,274,1227,81,-1112,30,0:03:44
310,-175,-232,-1066,422,1411,89,-1122,-62,0:03:44
295,-157,-262,-918,494,1404,186,-1320,-64,0:03:44
259,-139,-271,-767,151,1248,108,-1399,-86,0:03:44
259,-139,-271,-528,-375,1265,-25,-1237,36,0:03:44
240,-132,-289,-362,-516,1340,3,-1086,105,0:03:44
235,-114,-295,-322,-313,1352,215,-1133,39,0:03:44
222,-109,-285,-207,-45,1304,278,-1215,5,0:03:44
207,-78,-276,-123,179,1203,171,-1123,32,0:03:44
205,-72,-280,-68,415,1123,97,-992,75,0:03:44
183,-58,-292,-27,741,1081,178,-947,64,0:03:44
195,-43,-301,0,1005,969,310,-887,46,0:03:44
169,-19,-327,35,1070,798,284,-794,64,0:03:44
165,-24,-342,114,1015,584,164,-694,79,0:03:44
181,0,-351,219,907,344,7,-547,47,0:03:44
175,6,-348,345,802,105,7,-547,47,0:03:44
181,10,-367,495,676,-99,23,-496,79,0:03:44
165,25,-373,639,560,-263,87,-436,146,0:03:44
162,0,-384,756,500,-419,177,-381,245,0:03:44
162,0,-384,750,503,-540,325,-387,378,0:03:44
180,-6,-403,546,420,-520,562,-469,503,0:03:44
171,-31,-406,254,476,-194,885,-632,554,0:03:44
175,-18,-388,236,1077,567,1293,-1039,498,0:03:44
190,-24,-408,128,975,884,1504,-1502,553,0:03:44
196,9,-420,122,146,442,1032,-988,798,0:03:44
186,-1,-420,428,23,-267,124,4,822,0:03:44
189,-1,-415,270,1000,-328,-408,-123,50,0:03:44
195,-7,-430,-320,-558,146,-14,-1277,-113,0:03:44
195,-7,-426,-364,-819,-95,1036,-1776,-195,0:03:44
184,4,-421,-210,-514,-662,413,-1070,-127,0:03:44
186,-13,-418,98,-940,-1042,-694,-407,0,0:03:44
198,10,-412,603,-1017,-1016,-302,-415,-442,0:03:44
207,-24,-396,832,-524,-922,595,-1401,-289,0:03:44
207,-42,-370,673,-134,-721,595,-1401,-289,0:03:44
207,-42,-370,546,-2,-580,768,-1347,-120,0:03:44
214,-31,-361,598,-158,-494,518,-1106,-44,0:03:44
213,-69,-355,587,-420,-589,86,-864,0,0:03:44
204,-69,-342,551,-542,-707,-163,-779,-31,0:03:44
225,-63,-331,577,-548,-738,-21,-841,-119,0:03:44
237,-94,-315,576,-496,-723,250,-919,-114,0:03:44
217,-90,-318,626,-435,-695,327,-911,-99,0:03:44
240,-97,-295,639,-420,-701,249,-860,-68,0:03:44
249,-105,-300,572,-368,-674,172,-884,-50,0:03:45
256,-132,-294,439,-410,-586,164,-937,-45,0:03:45
253,-117,-255,342,-493,-530,219,-925,-28,0:03:45
273,-99,-264,277,-530,-543,271,-879,-31,0:03:45
273,-99,-264,238,-479,-606,271,-844,-54,0:03:45
271,-138,-232,112,-448,-765,261,-854,-76,0:03:45
271,-138,-232,187,-355,-810,288,-863,-118,0:03:45
306,-139,-246,180,-238,-724,438,-945,-168,0:03:45
306,-139,-246,99,22,-574,481,-906,-234,0:03:45
307,-163,-264,116,288,-527,481,-906,-234,0:03:45
309,-168,-223,39,395,-371,445,-927,-132,0:03:45
340,-151,-270,-177,373,-135,343,-1118,23,0:03:45
330,-165,-267,-367,345,193,397,-1271,-47,0:03:45
295,-150,-265,-651,344,432,572,-1247,-42,0:03:45
327,-159,-273,-898,257,776,557,-1259,64,0:03:45
298,-136,-277,-1059,149,1050,268,-1258,128,0:03:45
288,-129,-289,-1098,142,1286,82,-1193,50,0:03:45
316,-109,-312,-1178,175,1466,109,-1301,-12,0:03:45
316,-109,-312,-1181,138,1455,72,-1555,35,0:03:45
250,-88,-321,-1043,-222,1416,-77,-1572,49,0:03:45
277,-87,-342,-784,-697,1332,-215,-1335,123,0:03:45
253,-55,-328,-592,-798,1350,-137,-1192,142,0:03:45
253,-55,-328,-496,-549,1346,208,-1186,97,0:03:45
255,-42,-339,-405,-151,1253,465,-1144,25,0:03:45
247,-16,-333,-358,266,1127,362,-1019,23,0:03:45
216,19,-321,-293,529,1047,190,-885,49,0:03:45
214,28,-333,-224,807,954,190,-885,49,0:03:45
220,42,-345,-167,977,842,208,-813,24,0:03:45
222,55,-363,-64,947,679,184,-699,15,0:03:45
220,43,-366,74,841,469,81,-571,17,0:03:45
210,55,-376,242,728,228,2,-461,6,0:03:45
240,61,-393,417,578,21,3,-409,28,0:03:45
240,61,-393,606,452,-143,39,-394,88,0:03:45
222,54,-403,756,441,-291,110,-336,147,0:03:45
231,48,-384,877,557,-419,235,-305,224,0:03:45
234,48,-411,813,544,-449,509,-387,390,0:03:45
228,54,-412,445,220,-271,895,-525,579,0:03:45
220,25,-402,123,631,219,1307,-759,566,0:03:45
247,22,-378,158,1319,778,1564,-1248,506,0:03:45
234,34,-432,8,859,665,1284,-1372,677,0:03:45
240,45,-447,50,23,111,521,-597,864,0:03:45
249,36,-436,219,713,-287,-276,-105,527,0:03:45
253,40,-471,-102,107,4,-325,-1059,6,0:03:45
226,40,-441,-499,-812,-65,387,-1424,338,0:03:45
226,55,-441,-322,-704,-504,387,-1424,338,0:03:45
226,55,-441,-96,-949,-970,-461,-693,-311,0:03:45
225,37,-442,333,-1341,-1103,-425,-468,-344,0:03:45
232,31,-414,735,-1238,-952,-3,-759,-365,0:03:45
265,12,-415,723,-891,-756,441,-1275,-237,0:03:45
249,-3,-376,569,-555,-697,782,-1359,-139,0:03:45
249,-10,-369,457,-392,-662,644,-1142,-33,0:03:45
253,-24,-355,470,-391,-601,327,-954,-55,0:03:46
264,-28,-354,507,-628,-652,89,-859,-31,0:03:46
246,-33,-358,509,-702,-736,-11,-835,-47,0:03:46
252,-46,-352,484,-742,-730,169,-890,-89,0:03:46
280,-60,-321,456,-713,-707,319,-913,-85,0:03:46
262,-61,-310,455,-695,-662,305,-877,-76,0:03:46
276,-55,-283,465,-668,-627,272,-836,-63,0:03:46
276,-64,-288,441,-576,-634,226,-842,-74,0:03:46
276,-64,-288,409,-518,-666,218,-874,-67,0:03:46
280,-70,-271,393,-535,-708,321,-856,-77,0:03:46
298,-75,-273,394,-586,-729,311,-863,-73,0:03:46
310,-87,-255,386,-538,-737,311,-863,-73,0:03:46
310,-96,-262,351,-462,-726,262,-905,-46,0:03:46
325,-87,-258,249,-422,-690,254,-950,-42,0:03:46
337,-96,-229,121,-357,-613,299,-975,-64,0:03:46
337,-100,-223,5,-194,-500,383,-969,-129,0:03:46
352,-114,-213,30,109,-450,488,-932,-196,0:03:46
349,-106,-226,33,433,-400,469,-920,-105,0:03:46
361,-105,-229,-191,195,-94,372,-1064,69,0:03:46
349,-126,-228,-549,49,169,393,-1161,90,0:03:46
355,-115,-229,-851,265,382,528,-1108,-52,0:03:46
367,-135,-247,-1062,530,710,694,-1105,-125,0:03:46
343,-112,-255,-987,280,1145,629,-1125,-20,0:03:46
345,-121,-267,-1057,126,1381,145,-1219,112,0:03:46
312,-106,-282,-1197,109,1469,-117,-1465,105,0:03:46
288,-85,-283,-1259,-90,1455,-78,-1716,-12,0:03:46
288,-85,-283,-1204,-375,1352,-117,-1709,7,0:03:46
300,-76,-318,-840,-667,1330,57,-1131,154,0:03:46
274,-54,-315,-539,-885,1376,57,-1131,154,0:03:46
247,-31,-292,-478,-571,1396,245,-1096,112,0:03:46
229,-33,-300,-457,67,1306,445,-1185,29,0:03:46
235,-33,-285,-410,389,1110,412,-1091,22,0:03:46
219,-15,-301,-341,592,982,203,-949,58,0:03:46
232,-1,-307,-274,796,891,163,-889,74,0:03:46
213,12,-312,-195,975,779,201,-813,50,0:03:46
226,18,-327,-99,1065,646,183,-690,0,0:03:46
226,37,-330,29,989,436,76,-570,1,0:03:46
207,28,-352,231,799,224,-22,-475,3,0:03:46
204,55,-382,466,637,50,-7,-404,26,0:03:46
222,55,-376,679,588,-126,75,-345,93,0:03:46
210,39,-363,844,653,-310,169,-290,157,0:03:46
210,39,-363,895,729,-484,259,-261,255,0:03:46
229,31,-396,760,663,-504,453,-338,449,0:03:46
211,21,-372,492,569,-318,832,-543,627,0:03:46
211,21,-372,182,772,65,1315,-1224,627,0:03:46
207,15,-378,160,1281,594,1038,-1353,616,0:03:46
223,30,-396,118,1011,690,1038,-1353,616,0:03:46
223,30,-396,142,70,214,460,-764,771,0:03:46
223,42,-438,16,571,-93,-71,-450,799,0:03:46
220,43,-432,-278,-6,34,-29,-1223,243,0:03:46
223,27,-450,-350,-581,-161,538,-1803,38,0:03:46
228,31,-435,-154,-571,-480,235,-1192,-20,0:03:47
234,33,-444,76,-951,-823,-326,-592,-253,0:03:47
211,34,-411,451,-1214,-952,-167,-589,-315,0:03:47
240,10,-406,750,-1049,-866,86,-935,-317,0:03:47
216,-1,-387,697,-702,-679,483,-1342,-147,0:03:47
216,-1,-387,581,-487,-606,724,-1290,-71,0:03:47
235,-16,-378,518,-384,-569,515,-1073,-17,0:03:47
232,-13,-351,485,-340,-551,250,-961,-59,0:03:47
232,-13,-351,513,-600,-572,120,-928,-88,0:03:47
238,-25,-328,506,-705,-662,18,-910,-31,0:03:47
250,-43,-354,479,-693,-695,104,-933,-13,0:03:47
246,-36,-342,504,-641,-690,304,-899,-75,0:03:47
252,-81,-300,516,-614,-686,256,-849,-83,0:03:47
264,-64,-294,529,-621,-669,256,-849,-83,0:03:47
265,-88,-300,495,-533,-674,209,-838,-104,0:03:47
279,-73,-289,471,-436,-690,199,-848,-110,0:03:47
274,-81,-279,466,-422,-712,252,-869,-118,0:03:47
297,-90,-274,443,-476,-694,300,-888,-91,0:03:47
277,-105,-271,408,-501,-673,282,-889,-46,0:03:47
294,-103,-243,348,-534,-662,212,-892,-22,0:03:47
294,-103,-243,281,-495,-659,190,-901,-21,0:03:47
310,-126,-256,177,-450,-646,241,-929,-29,0:03:47
306,-108,-235,67,-410,-555,324,-957,-64,0:03:47
312,-133,-249,-28,-321,-415,401,-949,-118,0:03:47
324,-136,-219,-80,-11,-350,450,-940,-150,0:03:47
345,-126,-216,-147,369,-288,444,-941,-85,0:03:47
349,-118,-231,-321,267,-72,399,-1038,59,0:03:47
348,-141,-247,-604,208,178,443,-1123,55,0:03:47
337,-130,-276,-897,452,330,551,-1066,-74,0:03:47
325,-136,-262,-1040,662,662,596,-1172,-26,0:03:47
321,-115,-283,-992,322,1131,596,-1172,-26,0:03:47
300,-117,-297,-1038,178,1332,189,-1293,91,0:03:47
291,-85,-300,-1102,115,1472,-45,-1477,37,0:03:47
291,-85,-300,-1103,-59,1538,1,-1571,-77,0:03:47
270,-84,-309,-935,-326,1424,-10,-1527,-44,0:03:47
256,-78,-321,-505,-640,1313,-17,-1309,37,0:03:47
258,-40,-334,-325,-615,1298,65,-1091,112,0:03:47
259,-37,-333,-313,-125,1335,309,-1088,80,0:03:47
234,-16,-309,-394,454,1215,499,-1124,20,0:03:47
237,-19,-318,-189,539,1027,311,-1040,58,0:03:47
214,12,-339,-121,690,975,94,-942,45,0:03:47
223,7,-322,-81,792,920,170,-917,6,0:03:47
219,30,-354,-7,838,786,242,-883,19,0:03:47
205,40,-378,63,816,640,187,-796,27,0:03:47
213,49,-385,173,687,452,97,-692,47,0:03:47
216,58,-394,305,531,238,17,-603,64,0:03:47
214,48,-411,320,380,60,93,-566,26,0:03:47
201,49,-388,178,443,-116,93,-566,26,0:03:47
201,60,-411,265,600,-291,202,-510,12,0:03:47
201,60,-411,472,710,-446,140,-386,179,0:03:47
223,34,-408,550,814,-506,172,-370,377,0:03:48
240,34,-396,476,953,-394,454,-513,405,0:03:48
225,57,-427,350,859,-105,760,-674,407,0:03:48
240,19,-423,353,338,247,1018,-770,529,0:03:48
211,10,-448,450,548,590,1212,-903,630,0:03:48
223,24,-444,261,568,540,1208,-1035,632,0:03:48
226,36,-465,69,360,229,830,-744,670,0:03:48
223,45,-439,53,351,-130,328,-321,622,0:03:48
228,37,-468,433,835,-312,-55,25,150,0:03:48
217,40,-466,310,497,-114,35,-849,-91,0:03:48
235,36,-472,147,-1079,-99,338,-1978,440,0:03:48
232,37,-459,278,-1219,-197,435,-1528,302,0:03:48
220,9,-456,149,-672,-422,53,-859,63,0:03:48
226,27,-423,245,-540,-644,-206,-527,-28,0:03:48
220,0,-411,486,-754,-678,161,-903,-186,0:03:48
220,-6,-414,750,-1316,-661,161,-903,-186,0:03:48
223,-16,-394,760,-1056,-731,494,-1073,-212,0:03:48
235,-42,-354,585,-980,-805,602,-1121,-117,0:03:48
235,-42,-354,480,-1131,-841,392,-997,-28,0:03:48
235,-61,-346,379,-1127,-817,138,-878,-22,0:03:48
229,-54,-328,229,-837,-845,77,-828,-56,0:03:48
232,-49,-307,157,-638,-774,244,-882,-109,0:03:48
213,-87,-312,63,-265,-617,358,-930,-133,0:03:48
250,-63,-316,136,-135,-567,341,-823,-128,0:03:48
253,-72,-286,233,-335,-657,157,-800,-180,0:03:48
249,-97,-295,236,-431,-686,125,-918,-155,0:03:48
270,-97,-294,247,-515,-632,251,-932,-67,0:03:48
265,-91,-267,291,-466,-601,242,-889,-101,0:03:48
273,-112,-277,324,-460,-614,203,-857,-104,0:03:48
291,-96,-255,347,-309,-623,214,-881,-76,0:03:48
285,-99,-274,371,-284,-669,214,-907,-81,0:03:48
285,-99,-274,361,-340,-744,182,-920,-85,0:03:48
289,-120,-208,232,-361,-727,329,-1013,-76,0:03:48
294,-120,-219,118,-346,-616,329,-1013,-76,0:03:48
318,-133,-226,34,-312,-516,369,-972,-142,0:03:48
319,-147,-234,-27,-203,-403,397,-971,-151,0:03:48
340,-139,-214,-196,-67,-286,375,-1048,-28,0:03:48
315,-157,-217,-480,-308,-107,326,-1130,108,0:03:48
328,-144,-216,-756,-418,84,390,-1196,55,0:03:48
310,-163,-217,-1068,-345,123,459,-1254,-23,0:03:48
327,-139,-235,-1253,-337,292,473,-1274,-32,0:03:48
316,-160,-256,-1125,-399,364,215,-1287,-15,0:03:48
304,-139,-285,-907,-416,307,-108,-1254,56,0:03:48
321,-145,-247,-709,-434,214,-164,-1180,152,0:03:48
321,-142,-286,-522,-457,310,-193,-1163,114,0:03:48
321,-142,-286,-413,-396,506,-204,-1187,50,0:03:48
307,-135,-241,-270,-502,634,-187,-1189,133,0:03:48
301,-153,-273,-122,-501,826,-158,-1191,148,0:03:48
283,-151,-261,-93,-410,1024,-11,-1198,79,0:03:48
283,-151,-261,-112,-130,1176,44,-1075,127,0:03:48
262,-103,-250,-199,401,1318,63,-1014,108,0:03:48
259,-108,-267,-330,1058,1467,63,-1014,108,0:03:49
255,-82,-268,-450,1495,1438,90,-970,32,0:03:49
243,-60,-286,-465,1626,1265,103,-898,-8,0:03:49
222,-45,-313,-390,1544,1064,33,-769,-47,0:03:49
217,-37,-357,-315,1251,851,-24,-646,-65,0:03:49
231,-36,-399,-51,940,643,-92,-550,-32,0:03:49
223,-24,-361,296,651,410,-146,-475,42,0:03:49
210,-9,-387,539,480,180,-122,-433,146,0:03:49
210,-9,-387,658,434,-8,14,-410,227,0:03:49
220,-13,-370,636,508,-173,201,-433,287,0:03:49
225,-16,-378,599,483,-275,372,-545,352,0:03:49
223,-24,-387,519,394,-235,585,-680,440,0:03:49
210,-21,-396,281,235,16,909,-864,591,0:03:49
235,-27,-390,181,641,398,1110,-1098,646,0:03:49
214,-15,-403,137,892,579,1023,-1323,562,0:03:49
217,-25,-399,88,356,350,262,-722,706,0:03:49
223,-18,-430,7,275,0,-93,-1104,280,0:03:49
223,-25,-424,-111,440,-16,-93,-1104,280,0:03:49
238,-9,-435,-396,-580,-72,-92,-1787,121,0:03:49
237,-15,-427,-234,-931,-392,-110,-1375,74,0:03:49
238,-33,-424,-10,-1092,-723,-338,-642,-123,0:03:49
229,-37,-396,250,-1295,-828,-354,-522,-260,0:03:49
214,-39,-379,720,-1368,-813,-77,-817,-426,0:03:49
226,-46,-354,756,-1136,-646,207,-1244,-277,0:03:49
226,-46,-354,516,-879,-569,581,-1369,-135,0:03:49
222,-54,-346,366,-795,-611,508,-1130,-26,0:03:49
243,-61,-319,289,-538,-584,178,-959,-65,0:03:49
262,-76,-306,354,-429,-568,86,-887,-84,0:03:49
256,-64,-298,418,-482,-578,98,-831,-101,0:03:49
228,-100,-298,396,-326,-569,162,-869,-123,0:03:49
237,-79,-312,394,-218,-571,233,-923,-88,0:03:49
271,-99,-282,408,-135,-615,229,-944,-68,0:03:49
241,-99,-273,417,-184,-639,198,-934,-58,0:03:49
267,-106,-277,408,-238,-634,163,-910,-48,0:03:49
270,-112,-265,404,-170,-646,161,-907,-41,0:03:49
288,-123,-277,424,-117,-690,161,-907,-41,0:03:49
295,-138,-256,455,-174,-723,186,-897,-45,0:03:49
303,-144,-237,470,-192,-747,187,-879,-36,0:03:49
327,-150,-235,438,-203,-767,149,-889,-16,0:03:49
301,-129,-237,375,-242,-747,150,-911,-19,0:03:49
301,-129,-237,297,-221,-688,220,-907,-40,0:03:49
321,-160,-208,201,-167,-599,291,-907,-63,0:03:49
349,-151,-217,120,-11,-468,330,-943,-88,0:03:49
336,-166,-216,39,117,-373,336,-979,-60,0:03:49
351,-168,-228,-155,242,-214,286,-1016,39,0:03:49
360,-186,-231,-439,124,93,310,-1112,117,0:03:49
357,-166,-231,-634,293,291,470,-1147,-71,0:03:49
346,-169,-255,-920,371,531,551,-1159,-145,0:03:49
349,-181,-270,-1053,260,880,469,-1279,51,0:03:49
334,-180,-241,-1136,98,1106,175,-1293,39,0:03:49
325,-172,-285,-1165,-55,1276,-74,-1330,-43,0:03:49
301,-153,-316,-1122,-153,1402,-193,-1593,21,0:03:50
306,-126,-301,-970,-249,1425,-193,-1593,21,0:03:50
295,-127,-309,-711,-439,1372,-189,-1446,26,0:03:50
271,-102,-309,-536,-474,1412,-86,-1231,84,0:03:50
250,-87,-322,-430,-429,1388,173,-1187,85,0:03:50
250,-87,-322,-441,16,1314,351,-1221,0,0:03:50
240,-63,-336,-419,405,1173,257,-1119,0,0:03:50
228,-58,-339,-272,478,1039,34,-958,65,0:03:50
198,-39,-345,-190,590,968,-11,-869,64,0:03:50
223,-30,-358,-161,725,916,75,-832,54,0:03:50
198,-1,-360,-154,802,795,121,-790,61,0:03:50
202,-19,-370,-100,777,627,99,-714,58,0:03:50
189,16,-381,44,671,420,51,-601,48,0:03:50
204,13,-403,233,568,184,-18,-491,61,0:03:50
196,22,-409,380,480,-32,-38,-422,86,0:03:50
192,7,-405,497,479,-238,30,-380,118,0:03:50
195,15,-400,567,587,-435,109,-360,182,0:03:50
207,16,-408,597,627,-560,227,-392,267,0:03:50
222,19,-411,562,625,-559,722,-657,539,0:03:50
207,-4,-436,315,527,-328,722,-657,539,0:03:50
207,-4,-436,144,400,170,1062,-915,700,0:03:50
214,-30,-432,180,1045,764,1369,-1365,616,0:03:50
222,-7,-436,75,893,724,1292,-1454,542,0:03:50
204,15,-436,127,163,188,697,-698,645,0:03:50
229,7,-456,502,-1,-447,-8,96,561,0:03:50
235,7,-475,644,799,-609,-564,56,-250,0:03:50
217,-33,-435,466,-764,80,-549,-1095,-446,0:03:50
235,-25,-468,-313,-1709,22,704,-1991,800,0:03:50
232,-15,-430,-371,-1022,-345,948,-1499,336,0:03:50
208,-15,-403,-230,-869,-817,-455,-754,-65,0:03:50
223,0,-403,142,-1438,-1009,-826,-263,92,0:03:50
220,-36,-370,577,-1201,-914,-186,-285,-508,0:03:50
220,-36,-370,728,-760,-787,320,-939,-387,0:03:50
211,-48,-342,515,-634,-658,644,-1453,-233,0:03:50
211,-48,-342,408,-661,-581,652,-1364,-87,0:03:50
232,-55,-328,397,-567,-584,22,-742,-96,0:03:50
232,-55,-328,444,-543,-649,17,-748,-147,0:03:50
220,-78,-321,437,-416,-718,17,-748,-147,0:03:50
241,-81,-289,422,-376,-710,199,-868,-160,0:03:50
265,-84,-295,450,-340,-638,312,-932,-133,0:03:50
262,-75,-282,475,-271,-634,255,-911,-78,0:03:50
267,-97,-279,447,-368,-673,160,-892,-32,0:03:50
276,-97,-252,398,-434,-656,124,-890,-21,0:03:50
271,-109,-235,364,-420,-638,136,-880,-33,0:03:50
303,-109,-268,398,-414,-651,168,-847,-65,0:03:50
298,-96,-262,433,-431,-668,218,-844,-81,0:03:50
283,-109,-244,408,-461,-676,264,-889,-71,0:03:50
283,-109,-244,308,-428,-673,273,-917,-58,0:03:50
300,-108,-246,173,-343,-632,260,-918,-81,0:03:50
327,-99,-225,42,-193,-549,284,-940,-89,0:03:50
307,-132,-220,-40,46,-454,333,-987,-79,0:03:51
324,-115,-225,-126,282,-311,338,-995,-24,0:03:51
328,-138,-235,-366,163,-102,498,-1094,60,0:03:51
336,-129,-232,-669,236,172,606,-1121,-126,0:03:51
349,-142,-229,-840,391,454,663,-1184,-78,0:03:51
339,-132,-237,-870,277,894,663,-1184,-78,0:03:51
339,-132,-237,-909,143,1215,463,-1250,103,0:03:51
324,-114,-292,-999,93,1345,70,-1366,42,0:03:51
304,-96,-288,-1038,-85,1470,-115,-1581,-34,0:03:51
297,-81,-312,-1038,-249,1526,-156,-1672,9,0:03:51
292,-55,-312,-974,-313,1460,-153,-1538,36,0:03:51
291,-52,-321,-688,-413,1397,-37,-1313,43,0:03:51
280,-37,-298,-475,-390,1496,141,-1220,82,0:03:51
259,-24,-294,-381,-154,1472,326,-1257,89,0:03:51
270,-12,-312,-464,422,1323,402,-1251,64,0:03:51
247,-10,-300,-378,655,1131,175,-1134,32,0:03:51
247,-10,-300,-275,778,1021,-8,-970,5,0:03:51
255,6,-319,-192,819,906,85,-881,0,0:03:51
264,30,-324,-124,965,755,140,-803,10,0:03:51
249,31,-328,-53,987,590,142,-687,8,0:03:51
264,40,-346,77,896,362,-21,-487,13,0:03:51
250,46,-348,268,765,100,-73,-408,21,0:03:51
258,33,-369,448,656,-113,-73,-408,21,0:03:51
234,36,-369,597,590,-313,-52,-352,71,0:03:51
261,42,-370,704,669,-513,8,-295,158,0:03:51
256,33,-376,693,744,-636,155,-311,281,0:03:51
261,28,-382,580,654,-559,470,-456,429,0:03:51
285,21,-381,341,622,-269,884,-665,548,0:03:51
247,1,-385,119,616,182,1203,-923,660,0:03:51
247,10,-390,117,1143,658,1288,-1280,594,0:03:51
247,10,-390,96,908,649,1023,-1336,560,0:03:51
273,28,-394,102,232,162,474,-714,744,0:03:51
267,34,-403,-10,537,-214,-78,-372,756,0:03:51
268,22,-406,-295,40,-8,-54,-1222,229,0:03:51
262,24,-433,-329,-626,-116,453,-1966,179,0:03:51
265,34,-426,-162,-748,-424,48,-1226,77,0:03:51
261,37,-412,41,-1161,-712,-406,-488,-187,0:03:51
277,42,-408,421,-1297,-890,-121,-568,-210,0:03:51
265,19,-387,779,-1184,-895,327,-1345,-170,0:03:51
271,-1,-364,816,-966,-807,327,-1345,-170,0:03:51
243,-28,-360,580,-724,-759,669,-1353,-104,0:03:51
276,-21,-349,455,-498,-744,479,-1102,-5,0:03:51
274,-10,-334,422,-297,-663,178,-967,-96,0:03:51
288,-34,-318,518,-463,-591,98,-944,-129,0:03:51
259,-45,-309,581,-646,-621,29,-927,-94,0:03:51
259,-45,-309,506,-564,-686,104,-937,-101,0:03:51
274,-39,-298,476,-332,-684,279,-950,-117,0:03:51
295,-46,-288,492,-302,-690,312,-939,-117,0:03:51
283,-57,-282,485,-330,-699,235,-910,-82,0:03:51
285,-57,-291,487,-366,-670,145,-883,-61,0:03:51
304,-73,-258,466,-307,-693,92,-875,-46,0:03:51
321,-73,-262,432,-287,-751,111,-875,-41,0:03:52
312,-73,-247,420,-308,-785,192,-856,-48,0:03:52
328,-88,-232,414,-324,-787,217,-848,-46,0:03:52
340,-91,-249,379,-378,-765,194,-875,-36,0:03:52
343,-123,-219,296,-389,-705,230,-903,-31,0:03:52
337,-111,-207,173,-305,-643,394,-940,-76,0:03:52
351,-108,-205,74,-164,-534,394,-940,-76,0:03:52
343,-105,-234,32,-10,-421,482,-947,-116,0:03:52
352,-130,-217,-40,177,-298,458,-916,-55,0:03:52
352,-130,-217,-196,137,-137,366,-974,101,0:03:52
355,-133,-196,-588,35,127,361,-1114,155,0:03:52
360,-138,-225,-945,189,394,472,-1135,16,0:03:52
358,-130,-219,-1125,478,741,640,-1146,-93,0:03:52
337,-124,-255,-980,259,1138,648,-1171,-43,0:03:52
321,-145,-255,-840,162,1390,159,-1220,79,0:03:52
303,-133,-283,-914,-37,1486,-208,-1452,103,0:03:52
276,-108,-280,-926,-313,1556,-145,-1710,-37,0:03:52
280,-105,-280,-908,-443,1562,-123,-1744,-59,0:03:52
288,-75,-313,-578,-565,1501,-92,-1514,44,0:03:52
270,-69,-276,-255,-499,1583,19,-1243,136,0:03:52
250,-45,-319,-218,-342,1468,358,-1153,25,0:03:52
250,-45,-319,-345,325,1274,510,-1187,-67,0:03:52
231,-27,-289,-334,627,1082,35,-973,92,0:03:52
231,-27,-289,-343,833,958,103,-900,20,0:03:52
231,-24,-313,-290,886,846,103,-900,20,0:03:52
226,-1,-328,-228,1005,720,157,-824,-11,0:03:52
216,31,-336,-137,1047,590,107,-719,4,0:03:52
201,3,-375,0,950,428,29,-640,18,0:03:52
190,37,-361,183,778,218,-60,-551,17,0:03:52
192,37,-370,357,588,22,-82,-484,27,0:03:52
222,39,-382,527,506,-180,-52,-410,69,0:03:52
208,10,-381,649,544,-410,-14,-324,146,0:03:52
205,10,-403,693,620,-582,86,-310,221,0:03:52
214,1,-390,637,511,-627,326,-420,330,0:03:52
220,0,-381,497,408,-494,646,-604,474,0:03:52
220,0,-381,208,318,-109,932,-806,636,0:03:52
222,-6,-391,118,768,510,1177,-1131,677,0:03:52
219,-6,-402,79,917,749,1196,-1450,571,0:03:52
229,7,-403,8,192,310,831,-1045,666,0:03:52
220,18,-424,17,164,-167,-79,-794,373,0:03:52
207,6,-424,-48,580,-235,8,-1664,26,0:03:52
207,6,-424,-345,-736,46,459,-1641,-73,0:03:52
228,7,-453,-261,-877,-305,459,-1641,-73,0:03:52
210,30,-433,-142,-980,-735,41,-929,27,0:03:52
201,-7,-397,140,-1408,-1045,-494,-474,-131,0:03:52
210,-22,-387,516,-1389,-1050,-132,-579,-430,0:03:52
235,-37,-361,723,-1074,-802,144,-1094,-335,0:03:52
228,-49,-339,546,-694,-597,614,-1436,-195,0:03:52
237,-55,-333,378,-597,-627,742,-1262,-45,0:03:52
231,-57,-327,331,-506,-632,349,-1020,-31,0:03:52
219,-49,-313,413,-518,-581,111,-921,-95,0:03:52
219,-49,-313,479,-718,-634,15,-853,-95,0:03:53
222,-64,-316,456,-674,-650,62,-859,-117,0:03:53
241,-64,-283,407,-455,-618,277,-945,-124,0:03:53
249,-73,-280,410,-339,-596,364,-973,-109,0:03:53
259,-93,-276,438,-368,-619,262,-914,-103,0:03:53
255,-93,-247,420,-366,-626,172,-873,-85,0:03:53
252,-108,-271,418,-360,-630,153,-878,-48,0:03:53
256,-105,-238,402,-324,-653,199,-880,-38,0:03:53
256,-105,-238,408,-317,-697,199,-880,-38,0:03:53
289,-97,-234,416,-370,-746,228,-864,-47,0:03:53
280,-120,-223,414,-413,-767,218,-878,-49,0:03:53
297,-126,-190,378,-406,-749,206,-913,-39,0:03:53
291,-130,-201,284,-372,-686,249,-919,-32,0:03:53
289,-148,-199,160,-296,-587,331,-915,-48,0:03:53
328,-133,-190,55,-189,-450,410,-920,-80,0:03:53
324,-145,-178,51,0,-377,476,-925,-117,0:03:53
313,-151,-211,-36,316,-304,438,-942,-37,0:03:53
318,-135,-214,-273,213,-88,361,-1054,88,0:03:53
318,-135,-214,-501,142,149,445,-1151,49,0:03:53
310,-135,-210,-828,370,367,554,-1150,-55,0:03:53
312,-151,-234,-969,585,664,617,-1211,-67,0:03:53
298,-151,-249,-900,349,1016,464,-1274,67,0:03:53
294,-132,-243,-1010,145,1185,-56,-1303,177,0:03:53
294,-121,-267,-1097,14,1295,-244,-1410,77,0:03:53
297,-96,-262,-1113,-170,1377,-124,-1567,-6,0:03:53
270,-105,-268,-930,-414,1395,-124,-1567,-6,0:03:53
240,-76,-286,-595,-677,1409,-145,-1348,97,0:03:53
249,-54,-301,-408,-671,1421,-75,-1157,161,0:03:53
231,-39,-268,-317,-455,1374,147,-1164,157,0:03:53
222,-16,-280,-451,187,1240,336,-1174,148,0:03:53
222,-16,-280,-440,569,1066,253,-1091,131,0:03:53
210,-1,-288,-348,699,966,111,-984,69,0:03:53
228,-1,-310,-242,823,868,140,-923,22,0:03:53
220,9,-321,-182,986,754,170,-852,8,0:03:53
222,18,-321,-105,1015,658,131,-758,12,0:03:53
226,34,-343,10,894,505,74,-675,44,0:03:53
228,31,-360,193,716,296,-16,-585,46,0:03:53
214,39,-363,385,527,111,-65,-514,35,0:03:53
201,36,-372,533,427,-82,-31,-467,70,0:03:53
210,28,-378,623,420,-289,31,-425,157,0:03:53
219,46,-360,694,500,-457,122,-380,217,0:03:53
232,48,-375,693,518,-539,265,-404,273,0:03:53
219,28,-372,592,497,-488,843,-757,601,0:03:53
240,3,-388,310,435,-209,843,-757,601,0:03:53
235,28,-388,147,595,295,1178,-1060,637,0:03:53
250,16,-388,113,1076,738,1302,-1421,520,0:03:53
235,36,-405,28,605,589,998,-1300,584,0:03:53
235,36,-405,-29,148,78,423,-654,800,0:03:53
234,25,-408,-137,538,-162,90,-747,702,0:03:53
247,18,-423,-196,50,-57,21,-1317,1,0:03:53
253,33,-420,-181,-526,-249,131,-1307,-37,0:03:54
231,22,-424,17,-907,-535,-53,-853,100,0:03:54
244,-4,-403,234,-1179,-786,-252,-574,-219,0:03:54
225,12,-385,521,-1292,-875,-45,-735,-295,0:03:54
229,1,-378,685,-1169,-762,159,-1099,-322,0:03:54
241,-16,-346,572,-786,-588,510,-1300,-199,0:03:54
229,-31,-345,442,-582,-548,635,-1155,-76,0:03:54
246,-42,-339,377,-495,-587,372,-977,9,0:03:54
256,-24,-331,357,-499,-541,156,-931,-33,0:03:54
238,-19,-315,406,-756,-545,114,-952,-68,0:03:54
252,-46,-318,432,-778,-585,184,-914,-101,0:03:54
252,-46,-318,389,-593,-549,184,-914,-101,0:03:54
256,-58,-304,371,-412,-529,338,-924,-109,0:03:54
271,-70,-310,416,-489,-540,322,-926,-131,0:03:54
258,-52,-276,422,-495,-590,236,-913,-117,0:03:54
258,-52,-276,357,-430,-616,183,-900,-66,0:03:54
271,-63,-243,352,-407,-627,200,-893,-69,0:03:54
271,-63,-258,385,-331,-641,233,-900,-89,0:03:54
304,-102,-250,407,-309,-658,265,-893,-99,0:03:54
295,-78,-241,425,-362,-672,265,-895,-92,0:03:54
325,-90,-235,403,-384,-675,230,-918,-68,0:03:54
318,-121,-235,341,-392,-647,224,-916,-53,0:03:54
312,-103,-229,279,-335,-576,266,-905,-69,0:03:54
324,-123,-229,185,-312,-474,314,-907,-82,0:03:54
325,-124,-214,99,-269,-386,340,-946,-110,0:03:54
348,-112,-217,37,-173,-308,375,-980,-153,0:03:54
348,-100,-232,-75,327,-291,404,-954,-122,0:03:54
340,-129,-214,-207,450,-210,345,-1149,50,0:03:54
337,-123,-220,-313,156,136,345,-1149,50,0:03:54
337,-123,-220,-560,132,320,498,-1194,19,0:03:54
339,-100,-234,-948,541,431,534,-1169,-18,0:03:54
349,-118,-244,-1122,522,767,522,-1211,-73,0:03:54
334,-112,-250,-1218,153,1040,274,-1208,74,0:03:54
318,-96,-270,-1349,19,1102,-125,-1276,186,0:03:54
319,-91,-294,-1344,-232,1152,-263,-1417,80,0:03:54
316,-84,-318,-1208,-478,1166,-245,-1471,18,0:03:54
292,-78,-297,-872,-557,1200,-156,-1371,17,0:03:54
310,-60,-310,-647,-591,1218,20,-1190,78,0:03:54
285,-43,-312,-656,-252,1233,201,-1124,109,0:03:54
282,-46,-300,-652,242,1180,375,-1161,71,0:03:54
286,-21,-309,-524,455,1008,401,-1123,65,0:03:54
271,-12,-340,-407,467,870,197,-997,79,0:03:54
259,1,-336,-313,522,823,73,-921,89,0:03:54
259,1,-336,-250,660,749,126,-885,110,0:03:54
247,0,-325,-186,729,633,179,-831,115,0:03:54
265,13,-352,-82,721,465,68,-643,84,0:03:54
250,36,-343,60,702,266,-2,-544,81,0:03:54
247,22,-372,239,607,81,-2,-544,81,0:03:54
247,31,-348,415,490,-78,-16,-493,88,0:03:54
258,33,-352,521,432,-248,19,-474,138,0:03:54
258,16,-361,573,450,-431,102,-476,238,0:03:54
262,10,-370,615,523,-564,215,-484,269,0:03:55
256,19,-370,607,526,-570,380,-573,350,0:03:55
264,-1,-349,530,537,-436,613,-723,521,0:03:55
264,9,-373,403,526,-179,806,-851,591,0:03:55
259,-4,-385,220,751,310,917,-1018,557,0:03:55
282,-4,-385,252,849,747,903,-1282,505,0:03:55
256,24,-411,242,411,651,681,-1219,564,0:03:55
259,33,-409,299,-214,134,273,-640,675,0:03:55
258,27,-399,329,473,-255,-117,-361,488,0:03:55
258,27,-399,143,527,-177,-125,-780,189,0:03:55
259,27,-411,-124,-300,-42,287,-1519,226,0:03:55
255,15,-405,-102,-470,-267,107,-1191,-42,0:03:55
249,15,-406,-4,-536,-664,-249,-670,-49,0:03:55
259,0,-403,153,-669,-965,-249,-670,-49,0:03:55
268,-1,-396,420,-408,-994,8,-651,-266,0:03:55
252,-27,-406,550,131,-769,333,-958,-255,0:03:55
261,-16,-399,448,346,-469,582,-1146,-108,0:03:55
270,-46,-387,361,385,-315,586,-1095,0,0:03:55
283,-27,-394,388,233,-275,363,-986,28,0:03:55
280,-19,-388,419,-69,-306,138,-920,38,0:03:55
282,-37,-382,425,-312,-366,-3,-877,45,0:03:55
286,-34,-358,418,-409,-399,14,-885,27,0:03:55
286,-34,-358,424,-386,-387,170,-946,-2,0:03:55
288,-45,-364,398,-296,-380,300,-984,9,0:03:55
280,-75,-355,383,-147,-361,332,-935,-4,0:03:55
280,-61,-367,349,-51,-311,323,-872,-33,0:03:55
277,-58,-358,311,-53,-279,327,-866,-46,0:03:55
283,-57,-349,324,32,-317,291,-892,-38,0:03:55
279,-66,-364,329,117,-389,256,-908,-5,0:03:55
301,-99,-364,350,134,-436,276,-925,-1,0:03:55
303,-64,-346,371,120,-424,276,-925,-1,0:03:55
307,-75,-364,401,185,-402,233,-928,0,0:03:55
316,-87,-360,366,190,-416,169,-941,27,0:03:55
315,-87,-354,322,100,-394,162,-949,27,0:03:55
316,-99,-369,296,10,-398,218,-943,-26,0:03:55
330,-91,-348,224,7,-355,265,-957,-63,0:03:55
318,-93,-348,99,156,-249,325,-1011,-22,0:03:55
318,-93,-348,-49,387,-238,296,-1064,80,0:03:55
325,-100,-348,-235,536,-242,206,-1057,151,0:03:55
337,-112,-370,-419,525,-205,199,-981,150,0:03:55
333,-105,-370,-600,475,-91,180,-889,116,0:03:55
345,-114,-384,-909,366,68,177,-897,51,0:03:55
355,-106,-403,-1199,301,234,266,-1094,94,0:03:55
345,-96,-406,-1456,285,511,412,-1294,130,0:03:55
354,-105,-415,-1428,744,760,557,-1291,-47,0:03:55
346,-106,-444,-1323,991,951,473,-1194,-172,0:03:55
373,-69,-433,-1085,506,1054,199,-1145,-193,0:03:55
343,-64,-474,-602,-17,1030,124,-1115,-134,0:03:55
333,-72,-498,-109,-26,1067,124,-1115,-134,0:03:55
333,-72,-498,174,91,1084,270,-1086,-34,0:03:55
315,-63,-460,249,557,1031,407,-1084,16,0:03:55
318,-40,-462,237,961,885,470,-1070,10,0:03:56
295,-33,-460,251,1164,758,344,-956,-49,0:03:56
310,-19,-501,358,1281,711,178,-870,-61,0:03:56
306,-30,-507,517,1275,708,129,-896,-30,0:03:56
328,-27,-477,605,1356,732,164,-951,-22,0:03:56
334,-25,-513,613,1446,744,244,-970,-27,0:03:56
309,-19,-507,637,1435,686,250,-960,-27,0:03:56
322,-19,-523,673,1339,573,154,-922,-16,0:03:56
336,-27,-513,688,1241,440,91,-887,20,0:03:56
367,-27,-565,690,1176,324,106,-860,70,0:03:56
367,-27,-565,688,1268,232,168,-851,101,0:03:56
331,-34,-550,692,1442,144,232,-870,96,0:03:56
351,-37,-564,670,1509,46,245,-880,83,0:03:56
373,-52,-547,640,1531,-25,244,-874,116,0:03:56
397,-46,-555,597,1513,-61,320,-869,142,0:03:56
405,-61,-574,600,1498,-105,320,-869,142,0:03:56
405,-61,-574,602,1502,-147,392,-878,165,0:03:56
442,-46,-573,545,1403,-123,401,-806,182,0:03:56
465,-70,-591,437,1280,-54,347,-831,208,0:03:56
478,-85,-570,377,1287,26,225,-933,283,0:03:56
495,-90,-570,387,1078,68,97,-911,277,0:03:56
495,-79,-564,520,655,-36,14,-910,197,0:03:56
490,-88,-583,519,291,-270,-61,-967,225,0:03:56
523,-85,-570,483,174,-506,-103,-1004,147,0:03:56
499,-90,-565,350,978,-533,-134,-1103,30,0:03:56
499,-90,-565,417,793,-348,189,-1219,51,0:03:56
540,-111,-555,371,378,-204,742,-1126,-111,0:03:56
538,-100,-549,452,634,-218,709,-943,-250,0:03:56
547,-96,-550,574,1150,-257,359,-802,-184,0:03:56
550,-115,-552,554,1505,-360,214,-781,-86,0:03:56
550,-120,-553,527,1733,-412,308,-973,-73,0:03:56
588,-108,-544,455,2017,-364,313,-1053,-88,0:03:56
612,-114,-550,376,2298,-226,313,-1053,-88,0:03:56
622,-126,-525,400,2204,-107,277,-1055,-58,0:03:56
643,-106,-526,433,1717,-21,227,-996,-43,0:03:56
658,-120,-520,442,1452,0,163,-965,-67,0:03:56
651,-138,-504,469,1367,-27,77,-956,-95,0:03:56
667,-130,-483,476,1320,-49,51,-956,-115,0:03:56
685,-135,-468,454,1315,-79,83,-975,-140,0:03:56
684,-123,-454,437,1185,-79,137,-1000,-172,0:03:56
708,-139,-445,438,1130,-79,115,-991,-192,0:03:56
726,-130,-433,395,1039,-99,37,-974,-190,0:03:56
717,-132,-426,371,942,-117,-13,-984,-181,0:03:56
718,-133,-420,347,791,-153,-88,-1016,-110,0:03:56
723,-141,-406,312,626,-201,-88,-1019,-64,0:03:56
723,-141,-406,281,529,-242,-15,-991,-92,0:03:56
727,-151,-423,246,449,-252,24,-992,-113,0:03:56
739,-133,-409,209,295,-228,61,-990,-122,0:03:56
747,-126,-403,193,252,-233,144,-980,-98,0:03:56
750,-133,-397,191,338,-246,194,-971,-103,0:03:56
738,-130,-402,158,287,-272,194,-971,-103,0:03:57
735,-136,-406,145,291,-271,198,-992,-102,0:03:57
736,-147,-409,112,332,-294,181,-959,-99,0:03:57
742,-132,-400,77,294,-281,149,-926,-122,0:03:57
759,-117,-390,50,294,-333,97,-963,-144,0:03:57
778,-129,-394,5,141,-321,72,-1000,-121,0:03:57
775,-120,-372,-23,185,-393,51,-993,-86,0:03:57
777,-136,-369,-95,129,-399,62,-1019,-67,0:03:57
771,-124,-384,-134,168,-427,131,-1029,-68,0:03:57
771,-124,-384,-210,210,-431,202,-1025,-44,0:03:57
783,-103,-405,-312,293,-405,302,-1064,7,0:03:57
775,-109,-399,-434,345,-355,382,-1115,66,0:03:57
784,-120,-376,-576,519,-265,501,-1125,48,0:03:57
811,-96,-381,-759,679,-158,498,-1155,24,0:03:57
820,-96,-394,-921,777,-16,414,-1205,64,0:03:57
793,-94,-363,-992,696,206,253,-1174,142,0:03:57
804,-91,-391,-1063,456,434,199,-1001,27,0:03:57
810,-85,-426,-1173,282,648,221,-938,-46,0:03:57
813,-100,-403,-1049,298,800,221,-938,-46,0:03:57
787,-97,-436,-758,435,872,175,-938,-122,0:03:57
795,-87,-415,-403,617,907,100,-947,-161,0:03:57
787,-94,-423,-92,606,1092,66,-977,-149,0:03:57
783,-106,-427,104,287,1302,103,-1006,-99,0:03:57
769,-100,-399,239,-80,1300,144,-991,-51,0:03:57
768,-148,-403,253,-166,1149,97,-1034,25,0:03:57
727,-142,-411,347,-107,967,80,-1102,104,0:03:57
727,-142,-411,375,266,1054,88,-1132,88,0:03:57
703,-153,-415,214,851,1201,166,-1137,-11,0:03:57
723,-157,-396,147,981,1257,178,-1154,-37,0:03:57
696,-175,-405,135,1067,1242,66,-1148,42,0:03:57
706,-177,-403,81,1048,1192,85,-1111,105,0:03:57
666,-186,-375,56,1045,1101,116,-1075,130,0:03:57
658,-178,-378,30,1001,974,94,-969,113,0:03:57
654,-187,-384,60,940,795,52,-863,108,0:03:57
634,-189,-385,119,904,604,25,-704,165,0:03:57
640,-189,-366,158,867,420,25,-704,165,0:03:57
625,-192,-381,219,829,263,102,-671,184,0:03:57
634,-186,-373,289,806,119,207,-608,190,0:03:57
645,-196,-349,421,740,-6,249,-541,196,0:03:57
642,-193,-348,555,686,-123,286,-522,207,0:03:57
660,-190,-363,613,684,-215,388,-522,266,0:03:57
660,-190,-363,563,592,-233,536,-552,372,0:03:57
648,-195,-334,401,426,-80,698,-637,496,0:03:57
648,-195,-334,317,776,298,991,-871,500,0:03:57
646,-204,-327,295,1078,497,1190,-1173,437,0:03:57
621,-214,-304,265,766,242,903,-994,505,0:03:57
670,-177,-324,424,249,-220,307,-445,551,0:03:57
664,-186,-321,373,330,-592,-258,-395,142,0:03:57
649,-199,-297,337,28,-449,-447,-1285,-206,0:03:57
661,-195,-292,-192,-1013,-177,90,-1992,468,0:03:57
664,-189,-309,-231,-946,-499,482,-1590,469,0:03:57
678,-195,-304,-82,-799,-786,-565,-279,-157,0:03:58
675,-211,-322,196,-1261,-901,-103,-493,-396,0:03:58
696,-178,-318,452,-1282,-754,-103,-493,-396,0:03:58
715,-184,-334,422,-955,-624,423,-986,-257,0:03:58
708,-192,-307,374,-816,-593,616,-1226,-107,0:03:58
696,-174,-307,368,-844,-553,536,-1148,-75,0:03:58
696,-174,-307,329,-774,-505,290,-926,-21,0:03:58
729,-192,-321,361,-802,-493,139,-774,-58,0:03:58
718,-172,-315,403,-620,-529,118,-766,-140,0:03:58
729,-174,-303,414,-389,-497,225,-866,-170,0:03:58
724,-154,-313,408,-261,-466,341,-952,-122,0:03:58
724,-171,-312,384,-273,-505,251,-939,-24,0:03:58
748,-147,-312,361,-319,-553,115,-925,6,0:03:58
759,-162,-309,330,-406,-563,74,-942,-20,0:03:58
772,-153,-285,331,-452,-517,111,-912,-54,0:03:58
783,-142,-309,406,-408,-515,156,-871,-101,0:03:58
778,-159,-292,472,-401,-560,147,-886,-129,0:03:58
774,-148,-298,501,-463,-595,157,-934,-116,0:03:58
793,-139,-313,478,-561,-588,203,-988,-113,0:03:58
801,-141,-306,424,-527,-595,203,-988,-113,0:03:58
793,-141,-307,329,-325,-618,206,-1010,-117,0:03:58
816,-129,-307,211,-112,-598,269,-1021,-125,0:03:58
816,-129,-307,100,-9,-511,293,-1034,-113,0:03:58
801,-123,-301,17,71,-432,273,-1073,-51,0:03:58
810,-114,-307,-64,139,-357,298,-1074,-42,0:03:58
829,-114,-283,-144,193,-278,319,-1031,-35,0:03:58
828,-93,-295,-313,123,-196,378,-1025,42,0:03:58
816,-100,-301,-651,206,-10,465,-1028,66,0:03:58
823,-103,-301,-907,513,252,507,-1052,-79,0:03:58
811,-91,-300,-1058,541,594,542,-1117,-120,0:03:58
820,-109,-306,-1116,330,997,455,-1155,5,0:03:58
811,-112,-327,-1209,192,1246,139,-1267,16,0:03:58
793,-126,-360,-1245,58,1366,-152,-1470,-33,0:03:58
781,-138,-352,-1123,-260,1432,-269,-1570,-58,0:03:58
768,-154,-381,-898,-450,1397,-277,-1492,-3,0:03:58
760,-157,-387,-606,-584,1423,-188,-1257,42,0:03:58
760,-157,-387,-424,-836,1372,209,-1077,109,0:03:58
738,-154,-399,-315,-687,1357,209,-1077,109,0:03:58
723,-174,-403,-381,72,1280,443,-1170,38,0:03:58
705,-162,-411,-266,462,1154,416,-1112,-40,0:03:58
681,-165,-417,-181,742,1036,179,-996,-9,0:03:58
682,-163,-438,-105,875,908,127,-882,-20,0:03:58
684,-165,-423,-39,928,801,120,-777,-5,0:03:58
688,-174,-403,21,893,695,101,-733,25,0:03:58
675,-193,-403,105,773,552,24,-691,36,0:03:58
661,-172,-414,233,610,385,-65,-615,36,0:03:58
666,-184,-420,371,436,231,-69,-544,45,0:03:58
673,-192,-408,499,301,65,-9,-498,81,0:03:58
661,-199,-382,511,273,-135,52,-454,128,0:03:58
672,-199,-373,455,438,-288,140,-434,174,0:03:58
670,-198,-367,467,567,-352,330,-517,225,0:03:58
693,-195,-357,506,680,-316,625,-646,265,0:03:59
694,-211,-339,472,627,-173,861,-726,375,0:03:59
694,-211,-339,428,523,62,1059,-949,458,0:03:59
690,-192,-336,403,729,325,1044,-1144,440,0:03:59
681,-207,-318,208,1057,422,1044,-1144,440,0:03:59
697,-226,-322,112,804,164,897,-1048,596,0:03:59
675,-210,-318,231,525,-243,486,-534,637,0:03:59
672,-216,-303,689,472,-583,-86,-114,371,0:03:59
702,-210,-288,608,205,-499,-394,-455,77,0:03:59
693,-225,-294,133,-891,-92,-148,-1456,-32,0:03:59
693,-231,-270,-424,-1280,-217,536,-1993,541,0:03:59
697,-207,-291,-216,-1003,-709,301,-1386,319,0:03:59
694,-214,-300,-142,-1214,-1078,-604,-514,-119,0:03:59
726,-211,-285,221,-1670,-1138,-465,-261,-225,0:03:59
732,-205,-300,609,-1390,-841,63,-588,-512,0:03:59
724,-207,-309,555,-931,-619,359,-1122,-249,0:03:59
750,-189,-289,334,-781,-650,612,-1345,-115,0:03:59
762,-193,-310,286,-730,-667,543,-1210,-104,0:03:59
757,-189,-298,287,-646,-607,236,-981,-130,0:03:59
757,-189,-298,326,-701,-575,77,-835,-123,0:03:59
769,-177,-291,310,-646,-611,180,-877,-181,0:03:59
795,-186,-289,309,-479,-588,180,-877,-181,0:03:59
783,-184,-319,415,-460,-518,314,-942,-200,0:03:59
793,-169,-303,440,-497,-532,254,-910,-153,0:03:59
804,-180,-315,469,-630,-606,123,-874,-92,0:03:59
813,-156,-306,445,-617,-658,26,-877,-93,0:03:59
819,-142,-282,418,-464,-651,53,-876,-114,0:03:59
822,-166,-294,407,-427,-660,155,-868,-135,0:03:59
835,-168,-289,435,-427,-693,216,-890,-114,0:03:59
826,-163,-292,434,-429,-730,248,-904,-88,0:03:59
847,-141,-291,358,-411,-749,228,-925,-62,0:03:59
859,-135,-330,261,-396,-725,245,-969,-35,0:03:59
840,-120,-280,179,-336,-656,333,-999,-32,0:03:59
877,-120,-291,80,-133,-573,409,-1029,-34,0:03:59
868,-118,-273,-51,116,-422,418,-1064,-39,0:03:59
868,-118,-273,-213,288,-249,386,-1041,19,0:03:59
882,-120,-289,-470,336,-32,365,-1015,79,0:03:59
876,-114,-276,-667,370,282,611,-1182,-174,0:03:59
876,-114,-276,-822,355,618,517,-1325,13,0:03:59
855,-112,-303,-988,146,1067,517,-1325,13,0:03:59
849,-126,-298,-1026,3,1347,235,-1368,99,0:03:59
844,-147,-303,-1105,44,1514,-68,-1334,-25,0:03:59
835,-147,-316,-1137,-44,1666,-182,-1524,-45,0:03:59
780,-180,-327,-1143,-284,1544,-205,-1664,-30,0:03:59
777,-190,-354,-863,-511,1448,-183,-1443,39,0:03:59
768,-192,-378,-539,-523,1573,0,-1213,117,0:03:59
738,-208,-402,-364,-414,1523,333,-1234,9,0:03:59
699,-195,-399,-588,251,1355,468,-1270,-117,0:03:59
693,-204,-393,-503,544,1158,229,-1097,-57,0:03:59
693,-204,-393,-292,671,1026,23,-878,6,0:03:59
694,-222,-417,-207,948,997,73,-742,-34,0:04:00
684,-216,-405,-159,1129,937,164,-710,-25,0:04:00
648,-216,-385,-78,1082,788,125,-702,7,0:04:00
666,-207,-417,72,950,548,-65,-607,7,0:04:00
627,-223,-385,270,687,312,-173,-466,-8,0:04:00
645,-222,-396,438,436,116,-22,-412,48,0:04:00
649,-216,-400,586,280,-70,-22,-412,48,0:04:00
645,-214,-378,676,290,-247,66,-390,140,0:04:00
633,-213,-376,695,435,-382,172,-398,258,0:04:00
645,-219,-346,665,511,-438,457,-492,383,0:04:00
657,-211,-358,487,532,-373,837,-604,503,0:04:00
658,-229,-337,181,500,-60,1121,-791,625,0:04:00
660,-214,-336,179,1029,458,1279,-1146,596,0:04:00
660,-214,-336,168,1079,576,1206,-1449,501,0:04:00
654,-207,-327,79,560,173,851,-995,679,0:04:00
627,-207,-312,18,697,-198,-62,-396,951,0:04:00
648,-226,-312,-60,472,-75,-398,-977,293,0:04:00
643,-207,-313,-303,-578,-197,-39,-1811,161,0:04:00
654,-205,-316,-141,-1000,-613,-90,-1415,166,0:04:00
651,-214,-333,-36,-1274,-950,-359,-670,-246,0:04:00
661,-198,-346,270,-1408,-1052,-339,-531,-311,0:04:00
678,-204,-316,632,-1428,-890,-48,-814,-372,0:04:00
702,-192,-325,686,-1251,-704,240,-1231,-215,0:04:00
711,-183,-333,519,-1093,-718,538,-1106,-65,0:04:00
712,-172,-327,413,-975,-774,538,-1106,-65,0:04:00
712,-172,-327,354,-707,-755,230,-969,-79,0:04:00
714,-195,-340,400,-619,-677,110,-873,-153,0:04:00
739,-166,-321,466,-661,-649,110,-833,-156,0:04:00
724,-184,-327,430,-532,-641,185,-876,-160,0:04:00
750,-160,-318,402,-277,-630,294,-937,-164,0:04:00
732,-160,-316,455,-288,-627,333,-960,-132,0:04:00
748,-160,-316,459,-338,-663,229,-938,-108,0:04:00
762,-162,-321,460,-338,-694,118,-923,-76,0:04:00
763,-163,-303,428,-313,-682,103,-933,-39,0:04:00
775,-141,-337,431,-256,-716,133,-901,-48,0:04:00
783,-142,-324,489,-275,-776,176,-874,-66,0:04:00
790,-129,-315,492,-294,-843,184,-887,-64,0:04:00
790,-129,-315,432,-316,-865,168,-900,-43,0:04:00
807,-126,-312,323,-356,-830,180,-902,-36,0:04:00
816,-109,-289,209,-381,-738,234,-926,-48,0:04:00
820,-124,-294,117,-354,-590,388,-1023,-60,0:04:00
817,-94,-307,23,-121,-470,381,-1008,-71,0:04:00
826,-109,-318,-70,9,-380,381,-1008,-71,0:04:00
834,-102,-312,-232,179,-211,350,-966,-37,0:04:00
831,-97,-286,-504,113,63,413,-1051,33,0:04:00
834,-88,-313,-755,221,322,545,-1159,-52,0:04:00
826,-100,-303,-1013,400,650,597,-1220,-94,0:04:00
807,-106,-312,-1001,270,1060,585,-1300,-27,0:04:00
813,-109,-327,-964,95,1272,220,-1303,65,0:04:00
808,-120,-351,-1015,102,1367,-154,-1340,94,0:04:00
783,-136,-343,-1045,32,1433,-198,-1508,13,0:04:00
783,-136,-343,-1096,-150,1458,-190,-1613,-12,0:04:01
760,-142,-381,-929,-424,1493,-163,-1467,36,0:04:01
766,-147,-403,-714,-569,1546,-84,-1254,85,0:04:01
736,-166,-396,-555,-521,1540,137,-1215,46,0:04:01
708,-157,-429,-590,-46,1431,291,-1230,37,0:04:01
696,-186,-415,-455,203,1242,193,-1158,65,0:04:01
676,-162,-429,-315,500,1122,15,-1005,49,0:04:01
673,-159,-442,-240,725,1008,154,-813,2,0:04:01
663,-165,-433,-228,1028,896,154,-813,2,0:04:01
661,-171,-405,-149,1101,739,159,-692,-11,0:04:01
651,-165,-433,20,994,499,32,-551,-24,0:04:01
648,-171,-435,243,795,246,-117,-412,-13,0:04:01
645,-169,-408,413,602,37,-115,-373,3,0:04:01
655,-181,-402,522,556,-183,-22,-401,64,0:04:01
651,-169,-390,630,676,-381,81,-379,167,0:04:01
651,-169,-390,712,788,-496,210,-371,254,0:04:01
678,-199,-381,676,709,-465,458,-482,397,0:04:01
679,-190,-366,425,518,-270,835,-711,588,0:04:01
703,-183,-366,198,406,70,1154,-977,696,0:04:01
687,-181,-372,142,969,524,1189,-1269,567,0:04:01
678,-190,-334,84,921,543,946,-1348,524,0:04:01
694,-190,-363,142,349,119,556,-756,693,0:04:01
696,-193,-339,229,385,-359,75,-198,672,0:04:01
696,-192,-319,130,494,-274,-100,-773,164,0:04:01
703,-189,-325,-261,-796,-4,13,-1692,77,0:04:01
697,-178,-351,-311,-945,-394,0,-891,-35,0:04:01
688,-184,-333,-226,-1130,-823,0,-891,-35,0:04:01
700,-189,-366,114,-1455,-1033,-454,-374,-266,0:04:01
715,-171,-352,641,-1442,-939,-74,-486,-506,0:04:01
715,-171,-352,910,-1122,-762,166,-1049,-345,0:04:01
745,-189,-363,742,-775,-699,589,-1410,-244,0:04:01
750,-192,-315,508,-531,-753,713,-1272,-72,0:04:01
750,-192,-315,413,-249,-686,370,-1045,-45,0:04:01
763,-178,-330,454,-329,-647,118,-894,-99,0:04:01
769,-204,-327,466,-408,-704,-33,-822,-53,0:04:01
771,-166,-298,480,-336,-702,24,-854,-105,0:04:01
790,-184,-303,505,-252,-643,225,-935,-130,0:04:01
790,-162,-291,542,-258,-640,264,-957,-82,0:04:01
805,-168,-303,548,-336,-673,174,-912,-68,0:04:01
811,-153,-303,550,-413,-674,99,-874,-63,0:04:01
831,-162,-283,499,-350,-731,78,-887,-58,0:04:01
840,-157,-282,483,-332,-807,103,-900,-57,0:04:01
850,-133,-282,464,-344,-851,218,-883,-59,0:04:01
847,-115,-289,404,-345,-821,218,-883,-59,0:04:01
862,-141,-280,344,-393,-756,217,-913,-36,0:04:01
877,-129,-273,247,-373,-683,220,-953,-43,0:04:01
877,-129,-273,104,-249,-620,251,-989,-65,0:04:01
868,-127,-270,31,-42,-506,380,-992,-113,0:04:01
868,-114,-271,41,123,-424,524,-969,-150,0:04:01
865,-121,-276,-92,224,-260,449,-947,-68,0:04:01
894,-112,-264,-324,191,-63,365,-1044,29,0:04:01
906,-111,-270,-515,280,189,488,-1171,-50,0:04:02
859,-97,-271,-756,296,405,511,-1241,-37,0:04:02
871,-103,-259,-1038,153,743,403,-1348,159,0:04:02
876,-126,-264,-1129,14,1024,205,-1301,116,0:04:02
864,-138,-276,-1090,-23,1280,39,-1146,-49,0:04:02
834,-168,-298,-1020,73,1394,-43,-1261,28,0:04:02
813,-172,-321,-1014,6,1488,-164,-1532,88,0:04:02
781,-192,-342,-910,-382,1407,-210,-1579,52,0:04:02
783,-196,-330,-634,-704,1425,-180,-1371,103,0:04:02
760,-207,-366,-469,-611,1509,326,-1261,-31,0:04:02
726,-210,-355,-492,-201,1476,326,-1261,-31,0:04:02
726,-210,-355,-487,160,1276,337,-1213,-20,0:04:02
711,-225,-393,-377,429,1180,104,-1036,50,0:04:02
694,-232,-369,-215,553,1116,44,-906,39,0:04:02
679,-235,-397,-173,844,1033,122,-867,35,0:04:02
666,-235,-375,-144,1002,924,153,-801,41,0:04:02
652,-228,-393,-65,957,745,87,-688,38,0:04:02
624,-232,-393,98,786,489,-36,-549,26,0:04:02
645,-234,-385,275,613,210,-121,-427,26,0:04:02
636,-241,-390,413,492,-17,-102,-379,40,0:04:02
637,-249,-376,511,473,-206,5,-392,104,0:04:02
622,-243,-379,608,605,-361,134,-383,190,0:04:02
627,-238,-346,655,670,-435,287,-376,278,0:04:02
636,-261,-337,562,616,-384,558,-479,432,0:04:02
649,-237,-319,345,523,-218,868,-669,593,0:04:02
649,-237,-319,187,513,137,1144,-922,637,0:04:02
652,-234,-316,165,1122,580,1076,-1338,496,0:04:02
648,-246,-327,142,977,550,636,-772,729,0:04:02
639,-256,-327,124,387,84,636,-772,729,0:04:02
640,-241,-301,100,562,-310,127,-404,719,0:04:02
639,-246,-300,43,304,-261,-131,-1043,128,0:04:02
645,-258,-301,-241,-921,-163,-38,-1783,135,0:04:02
618,-249,-318,-140,-1119,-417,184,-1526,152,0:04:02
642,-247,-330,-53,-1241,-746,-160,-795,-101,0:04:02
645,-229,-324,226,-1414,-915,-365,-498,-188,0:04:02
660,-222,-333,624,-1374,-874,-38,-684,-318,0:04:02
694,-231,-340,672,-1083,-768,290,-1117,-211,0:04:02
682,-234,-316,548,-856,-765,641,-1315,-198,0:04:02
699,-234,-316,501,-729,-788,605,-1165,-91,0:04:02
699,-234,-316,448,-568,-731,280,-962,-93,0:04:02
708,-225,-322,473,-580,-648,123,-841,-119,0:04:02
709,-208,-328,480,-581,-644,105,-812,-98,0:04:02
739,-219,-321,464,-441,-637,196,-878,-121,0:04:02
735,-207,-313,439,-266,-609,298,-952,-50,0:04:02
747,-205,-312,467,-276,-630,175,-899,-20,0:04:02
733,-213,-313,466,-295,-706,88,-866,-36,0:04:02
775,-201,-301,479,-346,-734,88,-866,-36,0:04:02
789,-172,-304,466,-341,-739,102,-864,-35,0:04:02
775,-190,-288,498,-283,-794,126,-886,-30,0:04:02
793,-189,-274,497,-328,-827,135,-913,-49,0:04:02
802,-169,-258,475,-397,-806,171,-920,-70,0:04:03
804,-150,-270,434,-394,-794,204,-922,-79,0:04:03
825,-154,-274,298,-400,-743,198,-943,-74,0:04:03
823,-145,-252,161,-417,-668,226,-960,-84,0:04:03
841,-153,-271,73,-299,-579,285,-960,-113,0:04:03
841,-153,-271,1,-94,-479,318,-985,-108,0:04:03
834,-150,-271,-93,-14,-377,343,-999,-57,0:04:03
861,-135,-282,-224,11,-276,340,-996,22,0:04:03
850,-135,-273,-442,-48,-130,407,-1053,131,0:04:03
853,-121,-295,-871,101,74,574,-1091,124,0:04:03
859,-130,-300,-1126,415,386,622,-1091,-68,0:04:03
843,-126,-288,-1103,417,800,458,-1220,139,0:04:03
861,-132,-313,-957,245,1203,30,-1360,57,0:04:03
825,-133,-321,-889,221,1407,30,-1360,57,0:04:03
805,-171,-319,-887,59,1516,-216,-1604,-115,0:04:03
811,-169,-358,-837,-277,1575,-290,-1744,-54,0:04:03
783,-181,-358,-879,-540,1659,-276,-1650,23,0:04:03
762,-192,-378,-650,-669,1743,-144,-1417,33,0:04:03
739,-216,-391,-532,-709,1605,151,-1205,13,0:04:03
706,-213,-400,-430,-76,1496,401,-1176,16,0:04:03
676,-210,-376,-382,375,1339,350,-1150,60,0:04:03
676,-210,-376,-304,707,1209,127,-1042,38,0:04:03
675,-220,-417,-178,845,1073,49,-904,-11,0:04:03
643,-217,-421,-129,1087,947,134,-784,11,0:04:03
666,-229,-427,-97,1202,826,155,-697,36,0:04:03
630,-232,-399,-8,1081,625,57,-629,13,0:04:03
630,-232,-399,173,801,391,-86,-547,4,0:04:03
637,-220,-429,336,551,169,-147,-482,39,0:04:03
622,-232,-417,478,462,-23,-101,-448,83,0:04:03
621,-223,-388,589,481,-224,93,-344,194,0:04:03
654,-226,-378,635,567,-442,256,-397,269,0:04:03
652,-240,-379,632,541,-518,256,-397,269,0:04:03
633,-228,-331,587,529,-460,557,-593,371,0:04:03
661,-238,-343,429,428,-274,872,-815,541,0:04:03
672,-243,-351,263,335,83,1046,-993,678,0:04:03
666,-235,-345,198,959,532,1145,-1255,565,0:04:03
666,-235,-345,142,843,470,1081,-1323,557,0:04:03
679,-249,-357,115,354,-45,723,-707,795,0:04:03
667,-205,-334,100,606,-429,324,-310,684,0:04:03
654,-241,-333,17,596,-333,83,-1075,155,0:04:03
681,-246,-313,-214,-408,-155,101,-1858,-19,0:04:03
670,-261,-300,-96,-752,-508,150,-1452,57,0:04:03
673,-253,-315,57,-1368,-753,-279,-600,36,0:04:03
693,-250,-333,308,-1678,-868,-306,-317,-345,0:04:03
702,-253,-342,721,-1542,-763,15,-707,-531,0:04:03
723,-238,-330,711,-1324,-743,166,-1371,-231,0:04:03
721,-231,-310,520,-1148,-794,590,-1462,-152,0:04:03
733,-229,-304,429,-822,-856,243,-941,-40,0:04:03
757,-213,-312,395,-467,-768,243,-941,-40,0:04:03
762,-217,-321,425,-553,-669,95,-860,-129,0:04:03
766,-210,-301,483,-664,-672,28,-824,-110,0:04:03
766,-210,-301,485,-484,-660,94,-867,-161,0:04:04
771,-207,-316,457,-262,-604,296,-933,-154,0:04:04
768,-220,-273,490,-229,-647,322,-952,-69,0:04:04
784,-204,-289,524,-242,-734,177,-903,-55,0:04:04
787,-205,-271,520,-249,-746,103,-876,-69,0:04:04
814,-210,-271,531,-163,-746,99,-897,-51,0:04:04
813,-196,-271,494,-66,-809,101,-925,-32,0:04:04
822,-181,-273,471,-107,-844,128,-949,-44,0:04:04
840,-181,-255,456,-200,-821,182,-954,-53,0:04:04
829,-160,-249,389,-299,-783,213,-950,-59,0:04:04
862,-144,-246,294,-349,-735,211,-944,-49,0:04:04
876,-145,-252,195,-410,-671,247,-955,-53,0:04:04
879,-141,-255,96,-345,-571,312,-990,-93,0:04:04
879,-141,-255,-52,-105,-450,351,-1020,-127,0:04:04
870,-135,-280,-160,53,-295,326,-952,5,0:04:04
885,-117,-243,-334,79,-134,326,-952,5,0:04:04
880,-130,-244,-694,-206,123,344,-1101,208,0:04:04
864,-117,-270,-1146,-156,369,480,-1159,138,0:04:04
859,-126,-244,-1351,242,743,558,-1098,-127,0:04:04
885,-160,-282,-1155,256,1227,692,-1100,-193,0:04:04
852,-144,-282,-818,105,1533,384,-1138,16,0:04:04
825,-187,-294,-783,131,1694,-225,-1322,38,0:04:04
817,-172,-310,-765,-112,1697,-279,-1694,-59,0:04:04
802,-192,-322,-744,-542,1631,-165,-1846,19,0:04:04
763,-202,-339,-593,-749,1569,-187,-1612,59,0:04:04
730,-219,-355,-368,-534,1591,5,-1326,59,0:04:04
730,-219,-355,-427,-267,1561,309,-1181,26,0:04:04
699,-231,-376,-495,324,1427,351,-1180,6,0:04:04
676,-238,-370,-379,612,1190,195,-1154,92,0:04:04
676,-249,-366,-289,826,1008,7,-1034,74,0:04:04
657,-241,-372,-221,895,877,-13,-874,5,0:04:04
631,-237,-391,-184,978,744,39,-639,22,0:04:04
636,-238,-378,-94,988,611,-58,-534,10,0:04:04
627,-231,-370,79,793,450,-58,-534,10,0:04:04
619,-232,-373,253,563,241,-137,-464,21,0:04:04
613,-234,-357,406,399,72,-119,-432,35,0:04:04
606,-238,-375,518,361,-106,-42,-406,78,0:04:04
622,-241,-340,555,472,-303,43,-363,126,0:04:04
624,-243,-345,553,618,-444,174,-369,175,0:04:04
634,-237,-345,554,689,-448,469,-519,280,0:04:04
627,-229,-328,509,542,-286,837,-730,426,0:04:04
627,-229,-328,343,303,-23,1115,-907,550,0:04:04
639,-216,-306,283,716,406,1257,-1133,561,0:04:04
639,-216,-313,103,1089,562,1182,-1373,515,0:04:04
619,-247,-301,77,660,215,890,-1083,667,0:04:04
616,-228,-286,170,389,-351,415,-363,708,0:04:04
628,-225,-312,514,782,-537,-30,-183,241,0:04:04
637,-219,-297,418,78,-233,-104,-943,-31,0:04:04
628,-216,-274,-196,-1043,-83,208,-1773,295,0:04:04
637,-217,-312,-133,-966,-423,-128,-825,134,0:04:04
621,-207,-291,-152,-944,-835,-128,-825,134,0:04:04
654,-211,-312,49,-1386,-1057,-575,-303,-103,0:04:05
673,-190,-324,542,-1470,-956,-98,-419,-490,0:04:05
687,-201,-294,699,-996,-719,211,-1018,-361,0:04:05
678,-202,-312,517,-713,-590,557,-1363,-160,0:04:05
678,-202,-312,360,-583,-648,636,-1224,-32,0:04:05
684,-202,-312,327,-613,-610,295,-1030,-27,0:04:05
697,-199,-301,431,-805,-572,53,-906,-107,0:04:05
733,-195,-297,518,-753,-588,-24,-838,-134,0:04:05
724,-184,-267,466,-718,-630,119,-880,-187,0:04:05
745,-178,-289,433,-576,-602,301,-970,-188,0:04:05
729,-186,-300,424,-597,-573,278,-983,-124,0:04:05
769,-174,-312,420,-616,-611,184,-922,-111,0:04:05
759,-156,-297,394,-586,-647,121,-883,-109,0:04:05
754,-162,-268,394,-486,-681,85,-867,-83,0:04:05
763,-166,-282,379,-376,-715,111,-865,-89,0:04:05
763,-166,-282,387,-407,-732,206,-880,-94,0:04:05
787,-151,-292,420,-427,-746,215,-880,-64,0:04:05
810,-120,-300,406,-406,-770,215,-880,-64,0:04:05
790,-147,-297,363,-392,-781,200,-919,-67,0:04:05
805,-136,-306,256,-333,-753,243,-964,-68,0:04:05
819,-112,-291,119,-287,-673,287,-968,-86,0:04:05
835,-126,-303,27,-224,-528,328,-973,-105,0:04:05
834,-124,-291,-5,-44,-441,377,-1018,-129,0:04:05
829,-112,-295,-84,258,-356,361,-1011,-87,0:04:05
849,-111,-294,-231,181,-176,350,-1053,33,0:04:05
853,-108,-304,-526,100,98,379,-1122,68,0:04:05
846,-127,-301,-847,217,343,440,-1124,-44,0:04:05
840,-108,-310,-1099,361,705,537,-1213,-86,0:04:05
831,-126,-324,-1059,120,1096,533,-1266,-23,0:04:05
837,-126,-333,-1011,6,1299,190,-1241,49,0:04:05
808,-139,-337,-1052,58,1390,-121,-1359,63,0:04:05
808,-139,-337,-1050,-71,1456,-145,-1578,-21,0:04:05
801,-144,-354,-997,-239,1456,-159,-1608,-56,0:04:05
772,-180,-346,-723,-446,1478,31,-1186,53,0:04:05
762,-165,-366,-386,-455,1591,359,-1186,-83,0:04:05
730,-163,-378,-364,-210,1547,359,-1186,-83,0:04:05
709,-189,-394,-511,303,1360,494,-1252,-145,0:04:05
688,-192,-397,-362,513,1160,216,-1174,-7,0:04:05
685,-187,-411,-192,688,1057,-10,-988,26,0:04:05
669,-189,-403,-134,858,984,24,-866,10,0:04:05
655,-195,-394,-140,1043,894,123,-813,25,0:04:05
652,-201,-403,-113,1022,770,120,-757,21,0:04:05
642,-207,-400,21,914,581,5,-644,25,0:04:05
628,-189,-394,219,737,334,-98,-516,29,0:04:05
645,-204,-396,387,540,120,-98,-464,22,0:04:05
633,-201,-399,473,500,-87,-13,-463,84,0:04:05
654,-195,-381,496,634,-308,97,-433,170,0:04:05
633,-205,-361,536,735,-466,221,-399,230,0:04:05
651,-186,-363,556,787,-541,426,-438,308,0:04:05
661,-208,-349,483,753,-450,650,-556,441,0:04:05
661,-208,-349,320,438,-162,1147,-1030,627,0:04:06
669,-207,-348,214,585,286,1166,-1359,542,0:04:06
660,-207,-318,121,887,554,1166,-1359,542,0:04:06
651,-202,-333,67,562,324,861,-1137,644,0:04:06
657,-196,-328,142,84,-176,408,-474,776,0:04:06
640,-207,-334,226,522,-286,-60,-362,291,0:04:06
658,-189,-330,0,-490,72,-142,-1271,-112,0:04:06
672,-211,-330,-262,-1007,-158,425,-1982,256,0:04:06
651,-204,-315,-169,-940,-604,193,-1403,100,0:04:06
657,-220,-349,7,-1211,-982,-488,-665,-257,0:04:06
667,-199,-324,431,-1509,-1085,-368,-508,-302,0:04:06
681,-201,-340,800,-1384,-982,-115,-870,-315,0:04:06
715,-208,-318,673,-1003,-833,283,-1346,-258,0:04:06
727,-190,-330,435,-765,-776,667,-1344,-200,0:04:06
727,-190,-330,305,-543,-667,547,-1119,-81,0:04:06
726,-190,-342,354,-637,-590,251,-944,-77,0:04:06
735,-196,-328,437,-651,-618,54,-837,-78,0:04:06
733,-184,-334,472,-545,-661,66,-815,-138,0:04:06
748,-190,-315,464,-392,-647,330,-916,-133,0:04:06
751,-166,-330,470,-242,-603,247,-902,-109,0:04:06
750,-181,-318,471,-224,-616,247,-902,-109,0:04:06
772,-180,-304,415,-290,-616,133,-888,-77,0:04:06
790,-172,-325,383,-328,-618,62,-900,-53,0:04:06
784,-169,-312,367,-320,-657,69,-926,-36,0:04:06
808,-166,-318,391,-392,-723,137,-923,-50,0:04:06
795,-169,-310,418,-421,-786,193,-884,-60,0:04:06
819,-150,-292,413,-415,-819,200,-884,-53,0:04:06
819,-150,-292,355,-443,-803,187,-913,-41,0:04:06
814,-151,-292,217,-434,-749,194,-925,-20,0:04:06
843,-129,-288,109,-412,-640,257,-929,-56,0:04:06
814,-138,-294,15,-232,-487,344,-943,-89,0:04:06
853,-118,-286,-26,-13,-392,421,-945,-119,0:04:06
846,-112,-300,-137,303,-256,391,-919,-47,0:04:06
849,-123,-288,-332,290,-31,392,-1030,25,0:04:06
844,-112,-270,-489,338,228,475,-1171,-53,0:04:06
849,-133,-279,-847,321,490,485,-1270,9,0:04:06
843,-123,-300,-1052,211,840,174,-1373,24,0:04:06
840,-132,-306,-1096,-25,1078,174,-1373,24,0:04:06
813,-150,-313,-1026,-30,1241,-13,-1228,-12,0:04:06
792,-162,-330,-965,7,1327,-71,-1362,1,0:04:06
807,-157,-355,-928,-58,1423,-122,-1562,4,0:04:06
777,-171,-352,-734,-357,1428,-144,-1501,0,0:04:06
753,-177,-366,-494,-500,1448,-108,-1280,41,0:04:06
753,-177,-366,-359,-332,1522,110,-1214,63,0:04:06
720,-180,-366,-501,135,1423,287,-1276,61,0:04:06
712,-195,-373,-476,291,1215,195,-1230,56,0:04:06
670,-183,-396,-337,459,1057,2,-1052,53,0:04:06
676,-199,-382,-231,687,992,-14,-887,24,0:04:06
643,-207,-394,-184,907,932,112,-811,-1,0:04:06
651,-213,-397,-140,994,848,152,-767,22,0:04:06
645,-217,-396,-51,917,726,121,-678,16,0:04:06
630,-214,-399,105,765,512,19,-566,0,0:04:07
639,-201,-388,308,580,276,-82,-475,12,0:04:07
627,-201,-369,468,448,72,-72,-432,30,0:04:07
627,-201,-369,553,423,-137,73,-377,175,0:04:07
631,-192,-369,610,504,-343,73,-377,175,0:04:07
636,-219,-366,599,646,-480,195,-364,254,0:04:07
649,-217,-345,547,783,-458,468,-494,363,0:04:07
646,-231,-319,442,800,-236,826,-693,455,0:04:07
646,-231,-319,255,564,89,1097,-914,509,0:04:07
694,-222,-339,205,634,435,1183,-1130,571,0:04:07
672,-211,-331,112,754,491,1061,-1207,587,0:04:07
657,-222,-319,95,472,159,722,-811,620,0:04:07
667,-207,-322,285,433,-218,252,-247,556,0:04:07
660,-228,-294,162,698,-170,-103,-484,103,0:04:07
658,-228,-316,-139,-810,155,-89,-1447,86,0:04:07
664,-222,-319,-313,-950,-169,608,-1854,350,0:04:07
652,-223,-307,-264,-724,-655,279,-1152,111,0:04:07
652,-223,-307,-35,-1049,-932,-494,-467,-211,0:04:07
685,-214,-321,596,-1381,-904,-267,-386,-376,0:04:07
690,-223,-325,819,-1141,-791,-64,-868,-284,0:04:07
696,-213,-304,613,-865,-775,575,-1409,-105,0:04:07
703,-211,-307,394,-806,-826,362,-1172,-61,0:04:07
723,-201,-306,319,-683,-752,362,-1172,-61,0:04:07
736,-204,-292,353,-757,-667,123,-972,-134,0:04:07
747,-210,-307,401,-735,-655,26,-846,-143,0:04:07
756,-204,-309,386,-601,-603,114,-822,-162,0:04:07
775,-187,-297,361,-441,-576,316,-899,-165,0:04:07
753,-187,-276,405,-336,-559,350,-940,-119,0:04:07
784,-198,-289,422,-272,-613,253,-920,-81,0:04:07
784,-181,-265,417,-343,-649,162,-888,-79,0:04:07
802,-166,-276,378,-363,-671,110,-882,-61,0:04:07
804,-168,-268,373,-366,-687,111,-890,-32,0:04:07
817,-169,-270,401,-346,-741,171,-877,-61,0:04:07
804,-169,-286,443,-343,-784,218,-837,-87,0:04:07
840,-151,-261,469,-368,-799,239,-834,-66,0:04:07
837,-136,-255,437,-389,-783,234,-900,-38,0:04:07
837,-136,-255,310,-365,-726,240,-940,-13,0:04:07
841,-127,-258,156,-287,-595,309,-914,-29,0:04:07
849,-130,-276,53,-122,-459,438,-941,-126,0:04:07
876,-118,-250,36,154,-401,420,-930,-45,0:04:07
865,-120,-268,-67,317,-260,420,-930,-45,0:04:07
855,-130,-250,-315,264,79,356,-1062,58,0:04:07
864,-111,-271,-480,347,333,426,-1202,-45,0:04:07
852,-109,-291,-785,454,550,492,-1226,-89,0:04:07
853,-142,-261,-954,261,919,463,-1308,17,0:04:07
844,-136,-277,-1047,35,1155,179,-1294,71,0:04:07
840,-156,-297,-1140,-16,1279,-99,-1303,51,0:04:07
807,-154,-301,-1125,67,1355,-173,-1534,44,0:04:07
799,-171,-318,-1101,-28,1416,-213,-1645,-9,0:04:07
804,-196,-327,-888,-371,1439,-174,-1485,0,0:04:07
753,-214,-361,-650,-523,1449,-88,-1248,118,0:04:07
714,-199,-366,-567,-429,1415,95,-1245,98,0:04:08
714,-199,-366,-709,11,1297,205,-1324,95,0:04:08
709,-208,-376,-649,196,1102,121,-1218,139,0:04:08
685,-223,-379,-506,306,989,-27,-1025,91,0:04:08
679,-225,-385,-404,338,923,99,-844,68,0:04:08
661,-222,-390,-340,525,835,119,-775,76,0:04:08
643,-243,-402,-298,684,705,119,-775,76,0:04:08
637,-229,-384,-204,676,514,88,-682,32,0:04:08
624,-231,-391,-25,604,279,9,-551,13,0:04:08
604,-229,-394,179,528,58,-28,-431,13,0:04:08
621,-243,-400,350,493,-146,24,-382,49,0:04:08
606,-241,-387,469,499,-340,99,-355,124,0:04:08
625,-241,-390,600,579,-510,193,-323,186,0:04:08
619,-228,-370,648,591,-585,354,-352,250,0:04:08
643,-226,-375,543,618,-487,588,-486,389,0:04:08
631,-241,-349,291,413,-147,858,-719,582,0:04:08
631,-241,-349,109,541,361,1120,-1023,640,0:04:08
624,-235,-360,52,1081,767,1218,-1399,582,0:04:08
613,-229,-333,24,743,627,976,-1316,590,0:04:08
613,-229,-333,179,150,105,423,-526,622,0:04:08
594,-258,-339,417,310,-384,-138,17,555,0:04:08
625,-241,-331,266,553,-257,-325,-440,104,0:04:08
619,-241,-354,-74,-1075,268,963,-1842,62,0:04:08
610,-243,-382,-243,-840,-37,273,-1098,162,0:04:08
598,-249,-348,-216,-660,-560,273,-1098,162,0:04:08
631,-235,-355,-99,-1050,-899,-546,-415,92,0:04:08
640,-217,-349,370,-1057,-907,-94,-374,-328,0:04:08
640,-225,-361,637,-767,-718,106,-838,-223,0:04:08
652,-217,-370,497,-487,-594,450,-1340,-73,0:04:08
651,-223,-349,324,-483,-666,645,-1290,-3,0:04:08
654,-229,-363,352,-511,-694,383,-1072,-20,0:04:08
672,-213,-358,399,-445,-619,185,-980,-87,0:04:08
676,-238,-324,461,-522,-626,144,-925,-62,0:04:08
688,-229,-346,450,-429,-631,154,-898,-73,0:04:08
690,-234,-339,423,-289,-607,260,-919,-91,0:04:08
690,-234,-339,431,-190,-613,292,-915,-83,0:04:08
696,-213,-322,437,-200,-654,192,-902,-61,0:04:08
718,-223,-328,430,-231,-672,113,-892,-58,0:04:08
727,-225,-348,415,-306,-658,79,-878,-62,0:04:08
723,-222,-330,413,-282,-634,167,-861,-66,0:04:08
748,-196,-316,436,-298,-639,196,-837,-72,0:04:08
748,-196,-316,490,-319,-674,196,-837,-72,0:04:08
766,-195,-312,514,-353,-712,174,-836,-52,0:04:08
766,-217,-297,508,-399,-733,141,-871,-34,0:04:08
784,-198,-300,474,-410,-737,142,-930,-28,0:04:08
801,-187,-304,409,-382,-714,186,-975,-31,0:04:08
810,-180,-307,286,-345,-640,261,-989,-42,0:04:08
820,-192,-285,131,-249,-515,303,-1001,-42,0:04:08
802,-156,-324,54,-109,-402,345,-1012,-69,0:04:08
837,-156,-312,-35,63,-317,371,-994,-35,0:04:08
837,-156,-312,-219,-30,-123,330,-1051,97,0:04:09
837,-148,-310,-545,-231,49,377,-1128,216,0:04:09
816,-166,-310,-977,-61,196,474,-1069,109,0:04:09
838,-171,-316,-1293,317,496,479,-1032,-132,0:04:09
822,-151,-346,-1197,284,954,590,-1107,-137,0:04:09
810,-153,-355,-982,46,1350,506,-1182,69,0:04:09
810,-172,-364,-965,63,1526,-31,-1329,127,0:04:09
808,-177,-384,-991,-113,1604,-194,-1749,-123,0:04:09
757,-210,-403,-897,-497,1548,-194,-1749,-123,0:04:09
730,-198,-433,-547,-827,1444,-142,-1575,15,0:04:09
718,-202,-414,-151,-1055,1365,82,-1253,138,0:04:09
679,-222,-418,-193,-854,1304,379,-1057,136,0:04:09
657,-222,-447,-256,66,1272,365,-1115,73,0:04:09
657,-222,-447,-224,414,1113,254,-1127,50,0:04:09
648,-231,-438,-186,717,966,128,-1004,70,0:04:09
624,-237,-433,-135,872,875,10,-902,70,0:04:09
646,-237,-432,-100,910,782,46,-829,69,0:04:09
625,-237,-427,-42,881,688,70,-767,61,0:04:09
618,-219,-424,30,808,569,29,-676,42,0:04:09
622,-237,-439,165,629,399,-67,-566,39,0:04:09
607,-222,-421,312,403,205,-120,-480,58,0:04:09
627,-232,-427,448,235,27,-82,-433,113,0:04:09
604,-244,-415,496,285,-161,6,-381,145,0:04:09
634,-246,-400,494,479,-318,139,-353,165,0:04:09
634,-240,-399,496,627,-411,359,-427,220,0:04:09
639,-247,-379,476,682,-366,1000,-736,342,0:04:09
633,-225,-378,387,638,-179,1000,-736,342,0:04:09
633,-240,-369,276,419,126,1151,-851,496,0:04:09
628,-231,-373,294,952,508,1179,-1024,432,0:04:09
628,-231,-373,205,1085,574,1045,-1209,406,0:04:09
624,-247,-354,160,553,219,753,-917,648,0:04:09
633,-249,-352,215,336,-226,369,-351,659,0:04:09
625,-250,-354,304,571,-330,45,-442,227,0:04:09
634,-247,-357,7,-323,116,-51,-1361,-207,0:04:09
643,-255,-340,-389,-705,-101,539,-1993,547,0:04:09
651,-253,-354,-212,-685,-711,165,-1233,544,0:04:09
643,-232,-358,-121,-1102,-1107,-684,-334,-150,0:04:09
660,-231,-363,412,-1299,-934,-248,-258,-432,0:04:09
663,-250,-373,749,-1246,-681,127,-785,-395,0:04:09
675,-229,-367,634,-1085,-619,427,-1336,-74,0:04:09
682,-240,-351,435,-941,-772,690,-1295,-114,0:04:09
691,-223,-343,419,-740,-868,453,-1062,-48,0:04:09
691,-223,-343,409,-576,-798,156,-920,-94,0:04:09
714,-247,-345,426,-455,-738,143,-881,-108,0:04:09
709,-229,-343,366,-309,-782,143,-881,-108,0:04:09
742,-199,-343,326,-37,-753,196,-907,-144,0:04:09
738,-192,-334,424,-19,-693,273,-939,-157,0:04:09
732,-199,-337,478,40,-756,182,-912,-134,0:04:09
762,-190,-316,523,-93,-785,67,-879,-98,0:04:09
769,-178,-307,518,-224,-759,34,-883,-72,0:04:09
775,-184,-304,498,-228,-746,59,-906,-63,0:04:09
790,-198,-301,466,-187,-783,126,-909,-55,0:04:10
795,-199,-292,465,-192,-810,177,-883,-60,0:04:10
802,-189,-279,426,-211,-801,213,-899,-54,0:04:10
811,-156,-291,392,-298,-778,215,-938,-28,0:04:10
820,-172,-279,278,-332,-693,223,-953,-26,0:04:10
841,-166,-276,172,-299,-568,267,-967,-52,0:04:10
840,-130,-282,30,-176,-444,316,-993,-69,0:04:10
843,-130,-289,-62,-86,-371,365,-994,-105,0:04:10
862,-141,-288,-200,87,-231,322,-962,-6,0:04:10
843,-145,-276,-420,-134,8,320,-1078,177,0:04:10
843,-145,-276,-765,-79,219,463,-1113,-45,0:04:10
852,-145,-294,-1101,212,459,463,-1113,-45,0:04:10
841,-141,-297,-1155,310,833,525,-1160,-100,0:04:10
841,-141,-297,-1075,-93,1131,371,-1170,117,0:04:10
810,-168,-327,-1008,-224,1325,-80,-1219,164,0:04:10
813,-180,-348,-1012,-223,1417,-220,-1483,-57,0:04:10
802,-177,-357,-1034,-368,1479,-178,-1686,-63,0:04:10
762,-202,-366,-874,-424,1413,-144,-1622,40,0:04:10
762,-190,-394,-600,-573,1458,-77,-1377,99,0:04:10
730,-196,-405,-335,-735,1402,52,-1178,145,0:04:10
696,-207,-403,-331,-634,1349,240,-1152,138,0:04:10
681,-202,-423,-336,-9,1261,339,-1161,103,0:04:10
681,-205,-402,-319,365,1094,230,-1086,81,0:04:10
666,-205,-423,-278,553,968,47,-986,80,0:04:10
640,-214,-426,-237,713,863,21,-930,62,0:04:10
628,-207,-409,-174,796,744,58,-833,29,0:04:10
628,-207,-409,-105,854,623,41,-726,35,0:04:10
639,-216,-421,2,791,483,-52,-517,25,0:04:10
619,-229,-399,168,612,289,-52,-517,25,0:04:10
619,-229,-399,351,413,97,-99,-428,53,0:04:10
628,-213,-424,494,355,-90,-55,-369,103,0:04:10
628,-202,-402,593,476,-301,77,-322,152,0:04:10
645,-222,-415,630,590,-472,212,-310,203,0:04:10
639,-220,-397,551,582,-513,447,-410,303,0:04:10
625,-220,-366,381,474,-353,797,-606,464,0:04:10
625,-220,-366,184,378,37,1096,-838,595,0:04:10
652,-232,-370,135,952,546,1275,-1131,514,0:04:10
634,-210,-361,72,1253,665,1114,-1361,470,0:04:10
637,-216,-375,86,517,319,680,-1012,652,0:04:10
625,-228,-361,153,20,-171,301,-339,803,0:04:10
643,-216,-364,156,616,-317,-112,-315,444,0:04:10
643,-216,-364,-102,-260,228,-178,-1269,-121,0:04:10
639,-207,-339,-508,-564,-53,549,-1992,425,0:04:10
640,-216,-363,-433,-660,-651,170,-1295,426,0:04:10
646,-208,-372,-179,-1152,-970,-136,-390,-416,0:04:10
639,-202,-387,361,-1220,-1033,29,-852,-356,0:04:10
643,-211,-397,730,-1128,-844,29,-852,-356,0:04:10
658,-205,-381,710,-949,-712,322,-1358,-162,0:04:10
654,-199,-355,462,-769,-767,707,-1380,-123,0:04:10
678,-202,-357,386,-576,-844,547,-1168,-5,0:04:10
685,-193,-369,411,-415,-819,245,-987,-58,0:04:11
685,-183,-348,437,-368,-807,156,-895,-69,0:04:11
706,-175,-357,481,-359,-828,105,-864,-52,0:04:11
696,-183,-345,532,-304,-760,204,-890,-84,0:04:11
730,-190,-340,550,-241,-697,324,-898,-117,0:04:11
730,-190,-340,558,-215,-709,265,-859,-75,0:04:11
736,-199,-340,586,-273,-725,163,-802,-77,0:04:11
727,-178,-316,609,-270,-720,126,-784,-118,0:04:11
744,-180,-330,553,-171,-704,137,-807,-81,0:04:11
741,-166,-327,517,-172,-719,168,-841,-17,0:04:11
757,-174,-319,506,-237,-746,185,-855,-33,0:04:11
757,-132,-316,474,-287,-738,184,-883,-63,0:04:11
772,-150,-328,399,-307,-705,160,-954,-19,0:04:11
786,-163,-315,328,-273,-676,160,-954,-19,0:04:11
808,-163,-309,189,-261,-620,197,-978,-18,0:04:11
796,-153,-297,66,-193,-506,248,-978,-43,0:04:11
825,-159,-319,14,-77,-385,324,-991,-95,0:04:11
811,-157,-325,-77,63,-281,341,-991,-69,0:04:11
807,-142,-315,-228,106,-145,301,-1054,58,0:04:11
807,-142,-315,-533,49,-5,365,-1171,149,0:04:11
811,-144,-337,-914,182,203,478,-1154,71,0:04:11
799,-138,-346,-1240,289,552,513,-1132,-25,0:04:11
813,-147,-354,-1157,283,979,546,-1192,-3,0:04:11
790,-165,-375,-984,56,1257,212,-1214,110,0:04:11
777,-166,-381,-1000,79,1369,-221,-1291,113,0:04:11
771,-189,-403,-1089,-39,1437,-210,-1547,-30,0:04:11
753,-183,-408,-1103,-158,1471,-87,-1670,-54,0:04:11
714,-169,-442,-886,-249,1375,-45,-1519,9,0:04:11
697,-193,-430,-572,-416,1355,-8,-1289,78,0:04:11
690,-192,-436,-382,-621,1369,117,-1153,117,0:04:11
681,-207,-459,-290,-445,1353,293,-1160,129,0:04:11
640,-204,-486,-275,130,1271,293,-1160,129,0:04:11
640,-204,-486,-190,358,1129,106,-1047,114,0:04:11
619,-220,-475,-148,567,1046,-31,-973,82,0:04:11
612,-202,-483,-139,674,940,15,-914,63,0:04:11
598,-216,-504,-88,777,830,84,-807,60,0:04:11
597,-214,-492,-13,823,674,78,-663,53,0:04:11
604,-238,-510,124,711,462,47,-549,29,0:04:11
577,-199,-529,280,554,210,-28,-469,41,0:04:11
588,-214,-499,446,462,-1,-70,-407,93,0:04:11
588,-213,-502,568,527,-198,-16,-355,157,0:04:11
615,-229,-489,638,648,-416,115,-302,195,0:04:11
618,-237,-477,670,759,-563,306,-318,220,0:04:11
633,-237,-453,602,770,-542,595,-445,339,0:04:11
633,-237,-453,359,508,-275,962,-666,507,0:04:11
636,-229,-457,154,751,269,1289,-975,542,0:04:11
637,-247,-457,53,1299,723,1388,-1397,520,0:04:11
643,-256,-457,7,839,609,465,-588,751,0:04:11
627,-252,-448,88,205,121,-4,-200,597,0:04:11
639,-250,-424,265,641,-228,-4,-200,597,0:04:11
654,-280,-441,-63,374,-67,-60,-902,49,0:04:11
664,-291,-450,-387,-495,-61,275,-1746,390,0:04:12
645,-267,-423,-243,-563,-493,173,-1413,368,0:04:12
661,-259,-438,-117,-882,-869,-293,-703,-135,0:04:12
678,-259,-460,273,-1073,-1017,-238,-475,-237,0:04:12
690,-262,-474,637,-1010,-880,-64,-704,-313,0:04:12
685,-273,-451,716,-784,-688,195,-1203,-143,0:04:12
